AccelerationX,AccelerationY,AccelerationZ
-0.4926300048828125,0.596923828125,-0.615447998046875
-0.4428558349609375,0.53717041015625,-0.564910888671875
-0.5020294189453125,0.5766754150390625,-0.548370361328125
-0.5510101318359375,0.6162261962890625,-0.54852294921875
-0.4770660400390625,0.576873779296875,-0.564208984375
-0.5172119140625,0.5785675048828125,-0.5650177001953125
-0.4181365966796875,0.5832977294921875,-0.6053924560546875
-0.4061431884765625,0.6544952392578125,-0.6053466796875
-0.4026641845703125,0.6751556396484375,-0.660064697265625
-0.47235107421875,0.70953369140625,-0.62109375
-0.517822265625,0.7327117919921875,-0.6449737548828125
-0.46795654296875,0.69775390625,-0.6269989013671875
-0.331878662109375,0.6607818603515625,-0.6208953857421875
-0.25579833984375,0.6704864501953125,-0.5531005859375
-0.3779754638671875,0.7288970947265625,-0.4829559326171875
-0.5224609375,0.7885589599609375,-0.4382781982421875
-0.52496337890625,0.7704315185546875,-0.3778533935546875
-0.5196380615234375,0.7933807373046875,-0.3160247802734375
-0.4896240234375,0.8321990966796875,-0.232269287109375
-0.591064453125,0.8732757568359375,-0.055572509765625
-0.6497650146484375,0.7997589111328125,-0.0949859619140625
-0.6100311279296875,0.751220703125,-0.0999908447265625
-0.66156005859375,0.7761993408203125,-0.028961181640625
-0.6677703857421875,0.805145263671875,-0.078643798828125
-0.66204833984375,0.859161376953125,-0.0446624755859375
-0.7198486328125,0.840179443359375,-0.0868988037109375
-0.8050079345703125,0.771881103515625,0.0458984375
-0.7733154296875,0.71636962890625,0.0999298095703125
-0.6186370849609375,0.9241943359375,0.040618896484375
-0.2730712890625,1.0066070556640625,0.02227783203125
-0.2504119873046875,1.03948974609375,0.1331024169921875
-0.257568359375,0.91009521484375,0.0955352783203125
-0.2555694580078125,0.81439208984375,0.1911773681640625
-0.3726959228515625,0.7644195556640625,0.3238983154296875
-0.5512847900390625,0.77691650390625,0.3271331787109375
-0.6162567138671875,0.724853515625,0.2934722900390625
-0.5709686279296875,0.7480316162109375,0.1876068115234375
-0.6266632080078125,0.7378997802734375,0.094696044921875
-0.6824493408203125,0.6811676025390625,0.113525390625
-0.72625732421875,0.6965484619140625,0.183746337890625
-0.743255615234375,0.756805419921875,0.18402099609375
-0.81005859375,0.7073974609375,0.2279510498046875
-0.8974456787109375,0.697906494140625,0.235748291015625
-0.8855438232421875,0.8047332763671875,0.159088134765625
-0.9141082763671876,0.806304931640625,0.0743865966796875
-0.9248504638671876,0.681610107421875,0.154632568359375
-0.9061431884765624,0.8152008056640625,0.1525726318359375
-0.77099609375,0.95111083984375,-0.0489349365234375
-0.6754302978515625,0.85968017578125,-0.0725860595703125
-0.643768310546875,0.7670135498046875,0.00732421875
-0.6108551025390625,0.7376861572265625,0.0473480224609375
-0.437469482421875,0.67510986328125,0.034637451171875
-0.4028778076171875,0.7012939453125,0.0276031494140625
-0.3985595703125,0.6591949462890625,0.0680694580078125
-0.547882080078125,0.751373291015625,0.12261962890625
-0.603057861328125,0.93109130859375,0.172515869140625
-0.555023193359375,0.836395263671875,0.2892608642578125
-0.7615509033203125,0.94244384765625,0.229644775390625
-0.64996337890625,1.0302734375,0.0738067626953125
-0.5480499267578125,0.837677001953125,0.10247802734375
-0.617431640625,0.6944122314453125,0.355804443359375
-0.751556396484375,0.7806549072265625,0.2299041748046875
-0.7448272705078125,0.7869873046875,0.138397216796875
-0.739166259765625,0.6416778564453125,0.2342071533203125
-0.759674072265625,0.621612548828125,0.2066802978515625
-0.7038726806640625,0.6421356201171875,0.0945281982421875
-0.6868743896484375,0.615966796875,0.1696624755859375
-0.7143096923828125,0.569305419921875,0.2506256103515625
-0.727813720703125,0.603057861328125,0.2685546875
-0.8268890380859375,0.768402099609375,0.1967315673828125
-0.8781890869140625,0.8208465576171875,0.149169921875
-0.899169921875,0.71099853515625,0.1841888427734375
-0.9222564697265624,0.94476318359375,0.175933837890625
-0.8069610595703125,1.002960205078125,0.0971832275390625
-0.760223388671875,0.80328369140625,0.0732574462890625
-0.8165435791015625,0.85577392578125,-0.01690673828125
-0.7538299560546875,1.006011962890625,-0.0879974365234375
-0.586639404296875,0.9350738525390624,-0.0261688232421875
-0.5035552978515625,0.7609405517578125,-0.0085601806640625
-0.4915924072265625,0.7162017822265625,0.02294921875
-0.4541778564453125,0.715606689453125,0.03472900390625
-0.3524169921875,0.69281005859375,0.0692291259765625
-0.3192138671875,0.62847900390625,0.1375579833984375
-0.4110107421875,0.6643524169921875,0.147552490234375
-0.4600067138671875,0.75201416015625,0.2181396484375
-0.5200347900390625,0.8489837646484375,0.1318206787109375
-0.5889739990234375,0.920989990234375,0.0335693359375
-0.7371673583984375,1.031585693359375,0.138214111328125
-0.748321533203125,1.0738372802734375,0.1338958740234375
-0.6686859130859375,0.7705230712890625,-0.0272979736328125
-0.7675933837890625,0.65576171875,0.0676727294921875
-0.8428955078125,0.7592010498046875,0.1031494140625
-0.85565185546875,0.8253936767578125,0.0507659912109375
-0.792327880859375,0.732574462890625,-0.037567138671875
-0.721588134765625,0.6881256103515625,-0.0360260009765625
-0.65625,0.718597412109375,0.0199737548828125
-0.62615966796875,0.721649169921875,0.0057373046875
-0.605987548828125,0.7127838134765625,-0.0380706787109375
-0.6031646728515625,0.74090576171875,-0.01971435546875
-0.610595703125,0.7281494140625,0.0492706298828125
-0.6253814697265625,0.735260009765625,0.099609375
-0.6692657470703125,0.7835235595703125,0.0518341064453125
-0.770599365234375,0.8856201171875,0.0133514404296875
-0.8560638427734375,1.088958740234375,-0.06475830078125
-0.7821807861328125,0.9754638671875,-0.09375
-0.79864501953125,0.8577423095703125,0.04156494140625
-0.770782470703125,0.913970947265625,-0.0365447998046875
-0.6912841796875,0.95916748046875,-0.184112548828125
-0.6213836669921875,0.869384765625,-0.138519287109375
-0.5432891845703125,0.7779541015625,-0.005615234375
-0.5513916015625,0.7872161865234375,-0.063079833984375
-0.5167388916015625,0.7446746826171875,-0.1679840087890625
-0.3815460205078125,0.7344970703125,0.006317138671875
-0.3818206787109375,0.776641845703125,0.0993499755859375
-0.4543609619140625,0.8519439697265625,0.139068603515625
-0.40777587890625,0.962677001953125,0.094482421875
-0.4339599609375,0.91339111328125,0.0162353515625
-0.5156402587890625,0.840576171875,0.1318359375
-0.515777587890625,0.993743896484375,0.3097381591796875
-0.4710845947265625,0.950714111328125,0.1370391845703125
-0.5519256591796875,0.78472900390625,0.1719512939453125
-0.6834869384765625,0.8442535400390625,0.247314453125
-0.7760009765625,0.919769287109375,0.25946044921875
-0.7851715087890625,0.817291259765625,0.1337890625
-0.778472900390625,0.6236114501953125,0.050811767578125
-0.7364349365234375,0.553741455078125,0.039215087890625
-0.65869140625,0.6112823486328125,0.0675201416015625
-0.6436309814453125,0.586334228515625,0.1038360595703125
-0.7118072509765625,0.621826171875,0.1196746826171875
-0.7763824462890625,0.6681976318359375,0.12542724609375
-0.8579254150390625,0.729034423828125,0.068389892578125
-0.858428955078125,0.7774810791015625,0.0402679443359375
-0.868682861328125,0.78369140625,0.001922607421875
-0.8532562255859375,0.871917724609375,-0.06268310546875
-0.8235931396484375,0.935791015625,-0.01165771484375
-0.79083251953125,0.8284759521484375,-0.0468597412109375
-0.750152587890625,0.85601806640625,-0.020355224609375
-0.7928466796875,0.9587249755859376,-0.1021575927734375
-0.6434783935546875,0.893310546875,-0.1103668212890625
-0.6047821044921875,0.81597900390625,-0.10791015625
-0.5761871337890625,0.7870025634765625,-0.104583740234375
-0.457183837890625,0.766571044921875,0.0012359619140625
-0.4036407470703125,0.724029541015625,0.0587310791015625
-0.3730316162109375,0.7148895263671875,0.0359039306640625
-0.353057861328125,0.7328338623046875,0.0332183837890625
-0.4141845703125,0.8240814208984375,0.039794921875
-0.4496307373046875,0.890350341796875,0.061004638671875
-0.53173828125,0.90692138671875,0.041168212890625
-0.6367340087890625,1.0302886962890625,0.084320068359375
-0.622589111328125,0.9627227783203124,0.0070037841796875
-0.662322998046875,0.782318115234375,-0.002197265625
-0.7865447998046875,0.8282318115234375,0.0581512451171875
-0.7832794189453125,0.87567138671875,0.0374603271484375
-0.7461090087890625,0.744140625,0.00140380859375
-0.7328033447265625,0.608795166015625,0.008941650390625
-0.6656494140625,0.65484619140625,0.0451812744140625
-0.5971832275390625,0.686920166015625,0.0478973388671875
-0.619384765625,0.68365478515625,0.007476806640625
-0.6518402099609375,0.68487548828125,0.0257110595703125
-0.688079833984375,0.712982177734375,0.0463104248046875
-0.80133056640625,0.7975006103515625,0.0797882080078125
-0.8294677734375,0.8068389892578125,0.0953826904296875
-0.87591552734375,0.8347625732421875,0.092010498046875
-0.8924102783203125,0.9635772705078124,0.0360870361328125
-0.8624725341796875,0.98016357421875,0.03009033203125
-0.7635650634765625,0.7592620849609375,0.0017547607421875
-0.795623779296875,0.7599029541015625,-0.0099334716796875
-0.764129638671875,0.9100494384765624,-0.037811279296875
-0.594329833984375,0.8836517333984375,-0.05487060546875
-0.5267333984375,0.7694854736328125,-0.0431365966796875
-0.5402374267578125,0.652435302734375,0.0030059814453125
-0.5355987548828125,0.6502685546875,0.0442047119140625
-0.497528076171875,0.712005615234375,0.1266021728515625
-0.4938507080078125,0.685089111328125,0.0966796875
-0.5431671142578125,0.68896484375,0.0446014404296875
-0.56402587890625,0.7349853515625,0.054351806640625
-0.5827178955078125,0.8386077880859375,0.03363037109375
-0.5753936767578125,0.830291748046875,-0.00738525390625
-0.716888427734375,0.89459228515625,0.062530517578125
-0.6744842529296875,0.918060302734375,0.0087890625
-0.6614837646484375,0.780120849609375,-0.0855255126953125
-0.693389892578125,0.62872314453125,0.0287322998046875
-0.766082763671875,0.7277984619140625,0.0557403564453125
-0.8192901611328125,0.7813720703125,-0.1112213134765625
-0.81622314453125,0.6717987060546875,-0.098968505859375
-0.7803802490234375,0.581787109375,0.0007476806640625
-0.699310302734375,0.625518798828125,0.065704345703125
-0.663543701171875,0.6799774169921875,0.0636444091796875
-0.601531982421875,0.69970703125,0.1094970703125
-0.6587982177734375,0.6876678466796875,0.056060791015625
-0.8332061767578125,0.739227294921875,0.0106048583984375
-0.9203338623046876,0.7779998779296875,0.0356292724609375
-0.9534759521484376,0.7574615478515625,0.045623779296875
-1.02349853515625,0.819610595703125,0.01251220703125
-0.9529876708984376,0.9066925048828124,-0.0785675048828125
-0.823577880859375,0.8567657470703125,-0.0487060546875
-0.7349395751953125,0.7021636962890625,-0.0179901123046875
-0.7877655029296875,0.763916015625,-0.041046142578125
-0.7559967041015625,0.868133544921875,-0.114837646484375
-0.652374267578125,0.7467041015625,-0.233184814453125
-0.67779541015625,0.680206298828125,-0.24652099609375
-0.6548614501953125,0.6958770751953125,-0.2578277587890625
-0.5801239013671875,0.71954345703125,-0.1682891845703125
-0.5343780517578125,0.7153778076171875,-0.1324462890625
-0.4901580810546875,0.7451934814453125,-0.06488037109375
-0.4858245849609375,0.8025054931640625,-0.07696533203125
-0.479461669921875,0.86212158203125,-0.0644073486328125
-0.4841461181640625,0.8238525390625,-0.0340423583984375
-0.5895233154296875,0.9121246337890624,0.04693603515625
-0.5204620361328125,0.96368408203125,0.1600494384765625
-0.549072265625,0.7913818359375,0.1247100830078125
-0.6725921630859375,0.7375030517578125,0.2095947265625
-0.7619476318359375,0.8389739990234375,0.2621917724609375
-0.8186492919921875,0.920440673828125,0.1707763671875
-0.79766845703125,0.765380859375,0.026519775390625
-0.8017578125,0.634429931640625,-0.0553131103515625
-0.7587127685546875,0.6629791259765625,-0.1190948486328125
-0.6484832763671875,0.681396484375,-0.0884857177734375
-0.621246337890625,0.7055206298828125,-0.0567779541015625
-0.6413726806640625,0.728759765625,-0.0874481201171875
-0.659698486328125,0.743377685546875,-0.04791259765625
-0.7373504638671875,0.777191162109375,-0.03424072265625
-0.7646636962890625,0.7955169677734375,-0.008026123046875
-0.7885589599609375,0.835845947265625,-0.003631591796875
-0.86334228515625,0.99224853515625,-0.0182037353515625
-0.741729736328125,0.8944091796875,-0.0323944091796875
-0.7235107421875,0.73681640625,0.0602264404296875
-0.8014068603515625,0.8565521240234375,0.065338134765625
-0.7941436767578125,0.897735595703125,0.01104736328125
-0.7611236572265625,0.832794189453125,-0.0392608642578125
-0.722564697265625,0.7792205810546875,-0.016326904296875
-0.6578369140625,0.777313232421875,0.02099609375
-0.53216552734375,0.79229736328125,0.006591796875
-0.4453125,0.77685546875,-0.0254058837890625
-0.40557861328125,0.750396728515625,-0.0767974853515625
-0.397918701171875,0.725006103515625,-0.07598876953125
-0.45458984375,0.7684173583984375,0.0146484375
-0.4661865234375,0.8290557861328125,0.0413665771484375
-0.5194091796875,0.803619384765625,0.019775390625
-0.6156463623046875,0.9898223876953124,0.0959014892578125
-0.606842041015625,0.979827880859375,-0.0666656494140625
-0.6294097900390625,0.8052215576171875,-0.148712158203125
-0.744384765625,0.7816162109375,-0.0315399169921875
-0.8310699462890625,0.864105224609375,0.056732177734375
-0.8589630126953125,0.8525390625,0.0356597900390625
-0.790679931640625,0.6562042236328125,0.011444091796875
-0.7657012939453125,0.614593505859375,0.019561767578125
-0.6255340576171875,0.6668243408203125,0.0360107421875
-0.5411376953125,0.685546875,0.0086669921875
-0.5038604736328125,0.675994873046875,-0.042999267578125
-0.57196044921875,0.678924560546875,-0.0682220458984375
-0.7388763427734375,0.7529754638671875,0.0067138671875
-0.8584442138671875,0.8164215087890625,0.066619873046875
-0.887054443359375,0.756927490234375,0.05181884765625
-0.9332275390625,0.8239898681640625,-0.004425048828125
-0.879302978515625,0.9438018798828124,-0.0525970458984375
-0.7986907958984375,0.923187255859375,-0.0565948486328125
-0.7241973876953125,0.7363128662109375,-0.0895538330078125
-0.8054962158203125,0.8007659912109375,-0.1172332763671875
-0.7829742431640625,0.9425506591796876,-0.0938568115234375
-0.691650390625,0.9266510009765624,-0.14678955078125
-0.6489410400390625,0.8145904541015625,-0.178314208984375
-0.6253204345703125,0.746795654296875,-0.1299591064453125
-0.5662384033203125,0.7427520751953125,-0.1083221435546875
-0.4649505615234375,0.7315673828125,-0.093231201171875
-0.392303466796875,0.7033233642578125,-0.0757293701171875
-0.4107513427734375,0.7055206298828125,-0.030242919921875
-0.403717041015625,0.7020721435546875,0.0135345458984375
-0.4589996337890625,0.7400665283203125,0.078125
-0.52325439453125,0.7776641845703125,0.1204833984375
-0.6378021240234375,0.9556121826171876,0.159423828125
-0.6772613525390625,1.06317138671875,0.0497283935546875
-0.7542266845703125,0.95050048828125,-0.0846710205078125
-0.8017120361328125,0.761138916015625,-0.0142364501953125
-0.8305206298828125,0.6036224365234375,0.1847686767578125
-0.90020751953125,0.6637115478515625,0.214263916015625
-0.905029296875,0.6866302490234375,0.0740814208984375
-0.8964385986328125,0.71160888671875,-0.0284423828125
-0.8942718505859375,0.8267974853515625,-0.0879058837890625
-0.779052734375,0.7468414306640625,-0.09210205078125
-0.741668701171875,0.65570068359375,-0.0389404296875
-0.6930999755859375,0.65423583984375,0.0331878662109375
-0.6042022705078125,0.673248291015625,0.086883544921875
-0.654510498046875,0.680755615234375,0.0274810791015625
-0.73577880859375,0.739471435546875,-0.0196075439453125
-0.7502593994140625,0.765228271484375,-0.0189666748046875
-0.71905517578125,0.757476806640625,-0.0105743408203125
-0.696136474609375,0.7669525146484375,-0.008026123046875
-0.6934051513671875,0.815277099609375,-0.0637664794921875
-0.6732635498046875,0.8978424072265625,-0.1120452880859375
-0.5799560546875,0.7664794921875,-0.1472015380859375
-0.5478363037109375,0.6977386474609375,-0.0813446044921875
-0.52825927734375,0.66876220703125,-0.1042938232421875
-0.4955902099609375,0.749908447265625,-0.1480865478515625
-0.480072021484375,0.7935943603515625,-0.2907867431640625
-0.5206451416015625,0.7963409423828125,-0.4096527099609375
-0.61968994140625,0.779327392578125,-0.40045166015625
-0.6505126953125,0.7490234375,-0.3505706787109375
-0.65338134765625,0.779205322265625,-0.2990875244140625
-0.6805419921875,0.8561248779296875,-0.3523101806640625
-0.7134552001953125,0.8986968994140625,-0.39111328125
-0.742919921875,0.8698883056640625,-0.349456787109375
-0.73822021484375,0.8205718994140625,-0.2600555419921875
-0.6975860595703125,0.802734375,-0.16571044921875
-0.6683349609375,0.82965087890625,-0.1713714599609375
-0.62811279296875,0.8502197265625,-0.2505035400390625
-0.5701446533203125,0.8653717041015625,-0.2781219482421875
-0.4808349609375,0.8727874755859375,-0.2681732177734375
-0.449493408203125,0.8451080322265625,-0.2203216552734375
-0.4512939453125,0.8516998291015625,-0.2017669677734375
-0.4438323974609375,0.8420562744140625,-0.1922760009765625
-0.46380615234375,0.7584686279296875,-0.1061553955078125
-0.512603759765625,0.7726287841796875,-0.0162811279296875
-0.540924072265625,0.8841705322265625,-0.03106689453125
-0.479217529296875,0.9820709228515624,-0.039764404296875
-0.3413848876953125,0.8749237060546875,-0.0087432861328125
-0.3664093017578125,0.7684478759765625,0.0295562744140625
-0.463653564453125,0.776580810546875,0.085693359375
-0.535980224609375,0.8476104736328125,0.1764068603515625
-0.6074371337890625,0.874176025390625,0.1591339111328125
-0.6554412841796875,0.8466949462890625,0.07073974609375
-0.649017333984375,0.845550537109375,0.0088958740234375
-0.5841827392578125,0.8317718505859375,-0.0037384033203125
-0.579437255859375,0.8184356689453125,0.0583343505859375
-0.618194580078125,0.7904205322265625,0.0679168701171875
-0.7456817626953125,0.7637176513671875,0.0581512451171875
-0.826507568359375,0.743072509765625,0.01519775390625
-0.969329833984375,0.8980560302734375,-0.0150146484375
-1.0347747802734375,1.047760009765625,-0.1285247802734375
-0.8347015380859375,0.7229766845703125,-0.1815032958984375
-0.8477020263671875,0.6961822509765625,-0.1505584716796875
-0.778167724609375,0.89794921875,-0.042572021484375
-0.6667022705078125,1.00994873046875,-0.0537109375
-0.63372802734375,0.9550323486328124,-0.198486328125
-0.669403076171875,0.91351318359375,-0.2101287841796875
-0.673065185546875,0.90777587890625,-0.1751556396484375
-0.616607666015625,0.870269775390625,-0.1271514892578125
-0.5319061279296875,0.828582763671875,-0.105377197265625
-0.4964599609375,0.7945404052734375,-0.0944976806640625
-0.4862518310546875,0.77996826171875,-0.0396728515625
-0.485626220703125,0.8158111572265625,0.0154876708984375
-0.4635162353515625,0.8321380615234375,0.0325775146484375
-0.4537811279296875,0.7972412109375,0.03570556640625
-0.5654754638671875,0.89459228515625,0.10858154296875
-0.49188232421875,0.844024658203125,0.1098175048828125
-0.520721435546875,0.65777587890625,0.07855224609375
-0.6811370849609375,0.7198944091796875,0.165863037109375
-0.73663330078125,0.890228271484375,0.1668701171875
-0.732391357421875,0.898956298828125,0.0680084228515625
-0.740814208984375,0.75335693359375,-0.0045318603515625
-0.788238525390625,0.7004241943359375,-0.043853759765625
-0.76141357421875,0.7277984619140625,-0.061126708984375
-0.7095947265625,0.7049713134765625,0.0280914306640625
-0.737152099609375,0.6768035888671875,0.05029296875
-0.7705535888671875,0.6801910400390625,0.0878448486328125
-0.778839111328125,0.73480224609375,0.0718536376953125
-0.7625274658203125,0.8130035400390625,0.0687103271484375
-0.720062255859375,0.8043670654296875,0.061981201171875
-0.8896026611328125,0.994171142578125,0.064300537109375
-0.8478546142578125,0.9976043701171876,-0.006103515625
-0.7665557861328125,0.75567626953125,0.0421295166015625
-0.7902679443359375,0.7014617919921875,0.1472625732421875
-0.7899627685546875,0.8628387451171875,0.1263427734375
-0.73968505859375,1.008941650390625,0.0277099609375
-0.6791534423828125,0.920135498046875,-0.07916259765625
-0.6485748291015625,0.846221923828125,-0.121551513671875
-0.5221099853515625,0.8170318603515625,-0.026397705078125
-0.39874267578125,0.764984130859375,0.07550048828125
-0.3521881103515625,0.69000244140625,0.117156982421875
-0.377288818359375,0.6701812744140625,0.012237548828125
-0.39044189453125,0.696197509765625,-0.0284881591796875
-0.43890380859375,0.799102783203125,0.00372314453125
-0.4536590576171875,0.8325653076171875,0.0044403076171875
-0.623504638671875,0.9955596923828124,0.0726470947265625
-0.5586700439453125,0.99700927734375,0.003204345703125
-0.6645355224609375,0.945098876953125,-0.1011199951171875
-0.7388763427734375,0.8673858642578125,-0.0243988037109375
-0.809173583984375,0.878814697265625,0.03228759765625
-0.837249755859375,0.8270111083984375,0.020294189453125
-0.8008270263671875,0.667633056640625,0.0283660888671875
-0.7448272705078125,0.6025543212890625,0.0449676513671875
-0.6510467529296875,0.6409759521484375,0.043060302734375
-0.645294189453125,0.6557464599609375,0.0521240234375
-0.715118408203125,0.655792236328125,0.0678863525390625
-0.7774200439453125,0.6982269287109375,-0.0157623291015625
-0.9140625,0.80908203125,-0.03887939453125
-0.940460205078125,0.855255126953125,0.0557403564453125
-0.8305816650390625,0.8402099609375,0.08148193359375
-0.8069915771484375,0.9373626708984376,0.099578857421875
-0.7680816650390625,1.057586669921875,0.14044189453125
-0.6343231201171875,0.9662017822265624,0.093658447265625
-0.7160491943359375,0.83917236328125,-0.0504302978515625
-0.75830078125,0.88421630859375,-0.012664794921875
-0.65655517578125,0.9293670654296876,0.046417236328125
-0.5776824951171875,0.8240966796875,0.0272216796875
-0.5610809326171875,0.7353363037109375,-0.01318359375
-0.48114013671875,0.7010650634765625,0.0386962890625
-0.378662109375,0.6824493408203125,0.0929718017578125
-0.337066650390625,0.6812286376953125,0.10772705078125
-0.366790771484375,0.7000579833984375,0.0445556640625
-0.4512786865234375,0.71563720703125,0.0249176025390625
-0.5777435302734375,0.7771453857421875,0.1384124755859375
-0.6358642578125,0.8631439208984375,0.1804962158203125
-0.707244873046875,0.9534149169921876,-0.027801513671875
-0.7669525146484375,1.0640411376953125,-0.1962738037109375
-0.8143768310546875,1.0498199462890625,-0.1312408447265625
-0.744354248046875,0.7390594482421875,-0.026336669921875
-0.8567657470703125,0.7168426513671875,0.0045623779296875
-0.9087371826171876,0.740570068359375,-0.082427978515625
-0.8716888427734375,0.7054595947265625,-0.0788726806640625
-0.7535552978515625,0.5848388671875,-0.0172576904296875
-0.6735992431640625,0.618896484375,0.0849151611328125
-0.5981903076171875,0.6582489013671875,0.1314239501953125
-0.56011962890625,0.6597137451171875,0.09197998046875
-0.657135009765625,0.6720733642578125,0.0485687255859375
-0.7642364501953125,0.737030029296875,0.080108642578125
-0.886444091796875,0.85162353515625,0.116546630859375
-0.8808135986328125,0.877960205078125,0.084136962890625
-0.8458251953125,0.8779144287109375,0.0482635498046875
-0.8933868408203125,1.05218505859375,-0.0020751953125
-0.7894134521484375,1.0200347900390625,-0.0658721923828125
-0.6528778076171875,0.834869384765625,-0.0932159423828125
-0.7041168212890625,0.821990966796875,-0.0204010009765625
-0.6978607177734375,0.90704345703125,-0.0602264404296875
-0.573455810546875,0.8765869140625,-0.0782928466796875
-0.486419677734375,0.7182464599609375,-0.0182342529296875
-0.50982666015625,0.6427764892578125,0.0056304931640625
-0.4987945556640625,0.6595611572265625,-0.0421142578125
-0.4178009033203125,0.6728973388671875,0.0021514892578125
-0.4152984619140625,0.6609344482421875,0.0175628662109375
-0.45489501953125,0.679656982421875,0.05804443359375
-0.5098724365234375,0.790863037109375,0.08013916015625
-0.5242156982421875,0.9088134765625,0.0491485595703125
-0.5667724609375,0.89251708984375,-0.0125885009765625
-0.7201995849609375,1.012176513671875,0.095977783203125
-0.6965179443359375,1.0592041015625,0.055938720703125
-0.6163330078125,0.86114501953125,-0.03497314453125
-0.74261474609375,0.802459716796875,0.025390625
-0.8218994140625,0.8558197021484375,0.0839996337890625
-0.7816925048828125,0.8236541748046875,0.0984649658203125
-0.69500732421875,0.65087890625,0.0171966552734375
-0.700714111328125,0.6124114990234375,-0.0385284423828125
-0.6053009033203125,0.654632568359375,-0.02532958984375
-0.5086669921875,0.6718902587890625,0.0176849365234375
-0.495025634765625,0.6965179443359375,-0.0082855224609375
-0.5691680908203125,0.785308837890625,-0.009857177734375
-0.6831817626953125,0.8731842041015625,0.0586090087890625
-0.738250732421875,0.8737945556640625,0.155181884765625
-0.793914794921875,0.819610595703125,0.1435699462890625
-0.829010009765625,0.816162109375,0.123138427734375
-0.8331298828125,0.990020751953125,0.0423736572265625
-0.75701904296875,0.957366943359375,-0.0139312744140625
-0.7525787353515625,0.8165435791015625,-0.01788330078125
-0.769317626953125,0.9135894775390624,-0.0070953369140625
-0.7375640869140625,1.0494842529296875,-0.060699462890625
-0.6167144775390625,0.9423980712890624,-0.150054931640625
-0.592620849609375,0.7798004150390625,-0.112060546875
-0.5847625732421875,0.7181396484375,-0.0181884765625
-0.486663818359375,0.7351837158203125,0.001800537109375
-0.3585357666015625,0.726287841796875,0.0006866455078125
-0.2943572998046875,0.693084716796875,0.0088958740234375
-0.280853271484375,0.673309326171875,0.0011444091796875
-0.3325347900390625,0.754486083984375,0.013427734375
-0.389129638671875,0.9029541015625,0.0353851318359375
-0.5050201416015625,0.93475341796875,0.035552978515625
-0.71392822265625,1.0927276611328125,0.141082763671875
-0.701507568359375,1.1692047119140625,0.08050537109375
-0.6892242431640625,1.06121826171875,-0.0968170166015625
-0.7686920166015625,0.83251953125,-0.03515625
-0.839202880859375,0.74774169921875,0.0845489501953125
-0.871246337890625,0.776763916015625,0.1512298583984375
-0.787109375,0.708465576171875,0.061187744140625
-0.709808349609375,0.6621551513671875,0.0101776123046875
-0.62872314453125,0.672882080078125,-0.0194549560546875
-0.5470123291015625,0.660980224609375,0.0212860107421875
-0.513946533203125,0.641937255859375,0.04608154296875
-0.580108642578125,0.6800384521484375,0.04705810546875
-0.70697021484375,0.8196563720703125,0.0471954345703125
-0.7703857421875,0.896148681640625,0.0635528564453125
-0.794708251953125,0.85919189453125,0.0610198974609375
-0.79986572265625,0.8470306396484375,0.1069488525390625
-0.8102874755859375,1.01068115234375,0.13446044921875
-0.720001220703125,0.951507568359375,0.07440185546875
-0.7398529052734375,0.7805633544921875,0.0808258056640625
-0.78240966796875,0.835662841796875,0.1019439697265625
-0.7386932373046875,0.9561767578125,0.050872802734375
-0.6028900146484375,0.897796630859375,-0.014739990234375
-0.545684814453125,0.74462890625,-0.02801513671875
-0.54254150390625,0.6649169921875,0.0111083984375
-0.5081024169921875,0.701080322265625,0.0561676025390625
-0.48187255859375,0.7411956787109375,0.1103668212890625
-0.4620208740234375,0.7381439208984375,0.1466522216796875
-0.505096435546875,0.7482757568359375,0.09747314453125
-0.4922027587890625,0.79595947265625,0.0601043701171875
-0.4284515380859375,0.8278656005859375,0.0091094970703125
-0.4967803955078125,0.7776336669921875,0.0012359619140625
-0.6487884521484375,0.85009765625,0.1446380615234375
-0.6676177978515625,0.967529296875,0.081878662109375
-0.7252044677734375,0.9385833740234376,-0.1017608642578125
-0.7552947998046875,0.762725830078125,-0.080535888671875
-0.801116943359375,0.7366180419921875,0.006439208984375
-0.775482177734375,0.788421630859375,-0.0351409912109375
-0.6195220947265625,0.7151641845703125,-0.100006103515625
-0.5446929931640625,0.6609954833984375,-0.0755157470703125
-0.5122222900390625,0.686553955078125,-0.048980712890625
-0.5140380859375,0.7113800048828125,-0.07513427734375
-0.547332763671875,0.7119598388671875,-0.0681610107421875
-0.6511077880859375,0.7113494873046875,0.0366058349609375
-0.8092193603515625,0.83123779296875,0.0958404541015625
-0.8695220947265625,0.901214599609375,0.014129638671875
-0.901092529296875,0.820220947265625,-0.0449371337890625
-1.005035400390625,0.790252685546875,0.0076751708984375
-1.1024627685546875,0.8697357177734375,0.089019775390625
-0.963897705078125,0.8474273681640625,0.11639404296875
-0.827606201171875,0.680572509765625,-0.027862548828125
-0.7603912353515625,0.736541748046875,-0.053619384765625
-0.7209320068359375,0.9380645751953124,-0.0800933837890625
-0.634765625,0.972015380859375,-0.1665802001953125
-0.5823822021484375,0.8459014892578125,-0.221038818359375
-0.6388397216796875,0.801422119140625,-0.1981353759765625
-0.55364990234375,0.7957000732421875,-0.0934295654296875
-0.4573822021484375,0.7464447021484375,0.009765625
-0.3934783935546875,0.7212371826171875,-0.0191650390625
-0.3634796142578125,0.7409210205078125,0.0083465576171875
-0.39990234375,0.817352294921875,0.0861968994140625
-0.4789581298828125,0.876190185546875,0.1182708740234375
-0.566802978515625,0.819793701171875,0.0978240966796875
-0.737518310546875,0.897491455078125,0.1423797607421875
-0.6439971923828125,0.97344970703125,0.1344757080078125
-0.5961151123046875,0.807647705078125,-0.0189666748046875
-0.68896484375,0.77752685546875,0.06011962890625
-0.7111968994140625,0.853302001953125,0.121307373046875
-0.713653564453125,0.8431396484375,0.110260009765625
-0.65960693359375,0.689544677734375,0.0327301025390625
-0.6538238525390625,0.593658447265625,-0.0256805419921875
-0.632476806640625,0.635955810546875,-0.0881805419921875
-0.59588623046875,0.679351806640625,0.0028076171875
-0.602386474609375,0.6976776123046875,0.0547637939453125
-0.6627197265625,0.724609375,0.1005401611328125
-0.775054931640625,0.7658538818359375,0.102996826171875
-0.8235015869140625,0.802764892578125,0.1206512451171875
-0.8012542724609375,0.78607177734375,0.1131591796875
-0.7724456787109375,0.7741546630859375,0.105743408203125
-0.8282623291015625,0.9347076416015624,0.0590057373046875
-0.8098602294921875,0.96209716796875,-0.008453369140625
-0.779571533203125,0.8292236328125,-0.0300445556640625
-0.82720947265625,0.786712646484375,-0.0040740966796875
-0.787384033203125,0.8562164306640625,-0.0240936279296875
-0.746337890625,0.937042236328125,-0.0563812255859375
-0.6414642333984375,0.8732452392578125,-0.0944061279296875
-0.5908050537109375,0.8047943115234375,-0.1005859375
-0.5043792724609375,0.789947509765625,-0.084014892578125
-0.431732177734375,0.75457763671875,-0.098968505859375
-0.415740966796875,0.7196044921875,-0.0523223876953125
-0.4285736083984375,0.6876220703125,0.0105438232421875
-0.424530029296875,0.682830810546875,0.0835723876953125
-0.46221923828125,0.7336273193359375,0.1144866943359375
-0.50054931640625,0.786590576171875,0.097412109375
-0.538421630859375,0.803253173828125,0.0523681640625
-0.6406707763671875,0.9293212890625,0.106353759765625
-0.6707305908203125,0.9581756591796876,0.08807373046875
-0.741546630859375,0.920135498046875,0.0887908935546875
-0.749053955078125,0.78753662109375,0.065673828125
-0.7465362548828125,0.669586181640625,0.1166229248046875
-0.816131591796875,0.72491455078125,0.1431427001953125
-0.8680419921875,0.7943878173828125,0.1045074462890625
-0.8623504638671875,0.745361328125,0.0328369140625
-0.8368377685546875,0.711212158203125,-0.0118408203125
-0.7093963623046875,0.6982574462890625,-0.01971435546875
-0.6169281005859375,0.7003631591796875,0.0313720703125
-0.5699920654296875,0.72607421875,0.0167236328125
-0.593353271484375,0.76617431640625,-0.022308349609375
-0.6770477294921875,0.7956085205078125,0.0134124755859375
-0.725128173828125,0.78240966796875,0.087554931640625
-0.7057037353515625,0.7733917236328125,0.1177825927734375
-0.678497314453125,0.8096160888671875,0.064453125
-0.6421661376953125,0.8574371337890625,-0.0035552978515625
-0.6402130126953125,0.909149169921875,-0.0626068115234375
-0.5648345947265625,0.8179473876953125,-0.12298583984375
-0.506988525390625,0.6716461181640625,-0.0267333984375
-0.507904052734375,0.6591949462890625,0.0501708984375
-0.50555419921875,0.760284423828125,-0.0421905517578125
-0.5030670166015625,0.831268310546875,-0.128662109375
-0.5544281005859375,0.8491973876953125,-0.12115478515625
-0.63037109375,0.834136962890625,-0.1188507080078125
-0.7006988525390625,0.784759521484375,-0.1318359375
-0.7436065673828125,0.77020263671875,-0.1200408935546875
-0.7427520751953125,0.8252716064453125,-0.1326904296875
-0.7312164306640625,0.8495635986328125,-0.17108154296875
-0.719390869140625,0.8394927978515625,-0.1689910888671875
-0.73736572265625,0.8240966796875,-0.1402435302734375
-0.724517822265625,0.820831298828125,-0.1248931884765625
-0.6718597412109375,0.820709228515625,-0.0830230712890625
-0.65087890625,0.84918212890625,-0.097747802734375
-0.6348419189453125,0.89056396484375,-0.1237335205078125
-0.6262054443359375,0.913818359375,-0.1251678466796875
-0.623291015625,0.901153564453125,-0.1033172607421875
-0.6296234130859375,0.898712158203125,-0.0853424072265625
-0.6118316650390625,0.8930511474609375,-0.09844970703125
-0.593109130859375,0.8316802978515625,-0.1388397216796875
-0.64617919921875,0.86639404296875,-0.1068267822265625
-0.554473876953125,0.8180999755859375,-0.0165252685546875
-0.43072509765625,0.7855377197265625,-0.015899658203125
-0.386260986328125,0.84765625,-0.01416015625
-0.300506591796875,0.895263671875,0.04986572265625
-0.2796783447265625,0.8535919189453125,0.178436279296875
-0.4320068359375,0.814178466796875,0.1787872314453125
-0.48095703125,0.8311767578125,0.21954345703125
-0.50994873046875,0.87176513671875,0.2540435791015625
-0.5647735595703125,0.9105682373046876,0.279449462890625
-0.60662841796875,0.917510986328125,0.2922821044921875
-0.6492462158203125,0.8947601318359375,0.2276458740234375
-0.6763763427734375,0.8800048828125,0.257476806640625
-0.693267822265625,0.8532257080078125,0.2852325439453125
-0.7537841796875,0.8786468505859375,0.277008056640625
-0.8009490966796875,0.8583526611328125,0.265411376953125
-0.813140869140625,0.810333251953125,0.283905029296875
-0.894866943359375,0.868927001953125,0.234039306640625
-0.8752288818359375,0.8953704833984375,0.106231689453125
-0.7623138427734375,0.7537841796875,0.012481689453125
-0.807373046875,0.8167724609375,0.0079498291015625
-0.82342529296875,0.979583740234375,-0.084503173828125
-0.710968017578125,1.03082275390625,-0.1910400390625
-0.650604248046875,0.9614410400390624,-0.26947021484375
-0.6357879638671875,0.9441375732421876,-0.2462615966796875
-0.5269775390625,0.94158935546875,-0.17486572265625
-0.4564208984375,0.9205322265625,-0.12322998046875
-0.4010162353515625,0.874237060546875,-0.0391998291015625
-0.35113525390625,0.847198486328125,0.0787353515625
-0.342376708984375,0.85528564453125,0.083770751953125
-0.3624420166015625,0.849395751953125,0.0589447021484375
-0.390777587890625,0.8234100341796875,0.0475616455078125
-0.476776123046875,0.892578125,0.0755615234375
-0.45831298828125,0.975860595703125,0.0757293701171875
-0.4889373779296875,0.904571533203125,0.0481719970703125
-0.6249847412109375,0.76007080078125,0.1457366943359375
-0.750701904296875,0.7820281982421875,0.26727294921875
-0.780975341796875,0.873046875,0.2132415771484375
-0.7060546875,0.8207244873046875,0.092529296875
-0.657958984375,0.7162628173828125,0.034698486328125
-0.64495849609375,0.683319091796875,-0.021881103515625
-0.5899658203125,0.691253662109375,-0.012603759765625
-0.5850372314453125,0.6974334716796875,0.072357177734375
-0.6123046875,0.728790283203125,0.112548828125
-0.6584014892578125,0.7630615234375,0.1307373046875
-0.7338104248046875,0.8136749267578125,0.163360595703125
-0.7529296875,0.8272247314453125,0.1428985595703125
-0.7827301025390625,0.8105926513671875,0.1367645263671875
-0.8626708984375,0.8978271484375,0.15374755859375
-0.828125,0.97998046875,0.10382080078125
-0.7234039306640625,0.872650146484375,0.0260162353515625
-0.7075958251953125,0.7479095458984375,0.01251220703125
-0.6994476318359375,0.789886474609375,0.0221405029296875
-0.662811279296875,0.926361083984375,0.0193634033203125
-0.6032867431640625,0.9073638916015624,-0.0736846923828125
-0.6078948974609375,0.812469482421875,-0.1036224365234375
-0.6050262451171875,0.7432098388671875,-0.0383758544921875
-0.581756591796875,0.7646636962890625,0.0478973388671875
-0.49835205078125,0.774932861328125,0.0634307861328125
-0.424774169921875,0.74639892578125,0.0402679443359375
-0.4397430419921875,0.749725341796875,-0.012908935546875
-0.417266845703125,0.7946929931640625,0.0294036865234375
-0.3925323486328125,0.8180084228515625,0.023162841796875
-0.48748779296875,0.8158416748046875,0.0545196533203125
-0.6400299072265625,0.968109130859375,0.2077178955078125
-0.660400390625,1.0644378662109375,0.18121337890625
-0.6779327392578125,0.8166961669921875,0.0739593505859375
-0.805908203125,0.7606201171875,0.0932769775390625
-0.8645477294921875,0.74090576171875,0.1744384765625
-0.85284423828125,0.712615966796875,0.204132080078125
-0.7899017333984375,0.684417724609375,0.136199951171875
-0.6738433837890625,0.7191619873046875,0.02679443359375
-0.5673370361328125,0.7359619140625,-0.0488739013671875
-0.4989166259765625,0.7235107421875,-0.062469482421875
-0.50048828125,0.711578369140625,-0.02520751953125
-0.5800628662109375,0.7433319091796875,0.0317230224609375
-0.7044830322265625,0.8094024658203125,0.1064910888671875
-0.791107177734375,0.8217010498046875,0.10675048828125
-0.8333587646484375,0.816925048828125,0.0656585693359375
-0.8509521484375,0.87994384765625,0.029296875
-0.8023529052734375,0.9429168701171876,-0.03753662109375
-0.7629547119140625,1.002471923828125,-0.0551605224609375
-0.60693359375,0.7874603271484375,-0.0529632568359375
-0.623199462890625,0.784149169921875,0.0253143310546875
-0.590087890625,0.8533935546875,0.0130615234375
-0.5294647216796875,0.8617095947265625,-0.0128173828125
-0.5325927734375,0.74530029296875,-0.0322113037109375
-0.5938873291015625,0.7079925537109375,-0.02618408203125
-0.55523681640625,0.71881103515625,-0.0179901123046875
-0.4971160888671875,0.73895263671875,-0.0006866455078125
-0.46234130859375,0.7519683837890625,0.01763916015625
-0.4686126708984375,0.767791748046875,0.070831298828125
-0.4756622314453125,0.786834716796875,0.0854339599609375
-0.500823974609375,0.8719329833984375,0.113006591796875
-0.5335845947265625,0.8879852294921875,0.092681884765625
-0.659820556640625,0.936309814453125,0.144500732421875
-0.66400146484375,0.961212158203125,0.1085205078125
-0.60247802734375,0.8407135009765625,0.0037078857421875
-0.59002685546875,0.7115020751953125,0.0315704345703125
-0.671630859375,0.746002197265625,0.1280364990234375
-0.73736572265625,0.8208465576171875,0.133026123046875
-0.717529296875,0.740997314453125,0.047393798828125
-0.733551025390625,0.66131591796875,0.00848388671875
-0.725555419921875,0.69244384765625,-0.0441741943359375
-0.613983154296875,0.7055511474609375,0.0152587890625
-0.584625244140625,0.721649169921875,0.0420379638671875
-0.5893707275390625,0.76708984375,0.0305023193359375
-0.632293701171875,0.8155975341796875,0.0511627197265625
-0.68304443359375,0.8251800537109375,0.1127471923828125
-0.704498291015625,0.881103515625,0.122894287109375
-0.6626739501953125,0.8724365234375,0.10723876953125
-0.7176513671875,0.946319580078125,0.132904052734375
-0.763946533203125,1.047332763671875,0.117034912109375
-0.762176513671875,0.9501953125,0.109405517578125
-0.7741241455078125,0.7533416748046875,0.1451263427734375
-0.800567626953125,0.8472442626953125,0.1107330322265625
-0.7037506103515625,0.9619598388671876,0.0543060302734375
-0.603424072265625,0.9444580078125,-0.00677490234375
-0.5603790283203125,0.853271484375,-0.051910400390625
-0.5037994384765625,0.8009033203125,-0.0279388427734375
-0.384307861328125,0.7760162353515625,-0.0005035400390625
-0.3340606689453125,0.7203216552734375,0.0181121826171875
-0.3411712646484375,0.677703857421875,0.0217742919921875
-0.3548583984375,0.688018798828125,0.0398101806640625
-0.3793182373046875,0.7092437744140625,0.0579986572265625
-0.443450927734375,0.7867584228515625,0.0938568115234375
-0.492034912109375,0.877716064453125,0.0810394287109375
-0.6598968505859375,1.0093231201171875,0.015289306640625
-0.7357940673828125,1.1680145263671875,0.107025146484375
-0.660675048828125,1.093475341796875,-0.095611572265625
-0.6363983154296875,0.8653411865234375,-0.236083984375
-0.6861419677734375,0.768951416015625,-0.0425567626953125
-0.7684326171875,0.8326416015625,0.1250152587890625
-0.7762451171875,0.8181915283203125,0.1052703857421875
-0.7329864501953125,0.686737060546875,0.0035247802734375
-0.6797637939453125,0.6918487548828125,-0.0601654052734375
-0.5802001953125,0.71356201171875,-0.023040771484375
-0.5445709228515625,0.6797637939453125,0.0378875732421875
-0.5722503662109375,0.698822021484375,0.080841064453125
-0.6431427001953125,0.7836456298828125,0.1132354736328125
-0.727752685546875,0.853240966796875,0.152252197265625
-0.7938079833984375,0.8804931640625,0.1413726806640625
-0.8338470458984375,0.91436767578125,0.1735382080078125
-0.8710174560546875,1.04742431640625,0.208892822265625
-0.74920654296875,1.0893402099609375,0.156768798828125
-0.6958160400390625,0.936279296875,0.1632080078125
-0.7187957763671875,1.0080413818359375,0.2138824462890625
-0.6480560302734375,1.1240081787109375,0.1710357666015625
-0.5217132568359375,1.07928466796875,0.1219940185546875
-0.4581298828125,0.9010467529296876,0.0909271240234375
-0.41278076171875,0.785064697265625,0.1784515380859375
-0.3289947509765625,0.714385986328125,0.2320404052734375
-0.3179473876953125,0.6837005615234375,0.2386627197265625
-0.3693389892578125,0.682342529296875,0.1798095703125
-0.3937530517578125,0.6809539794921875,0.1114044189453125
-0.4017791748046875,0.7360382080078125,0.059844970703125
-0.4470062255859375,0.8492584228515625,-0.01824951171875
-0.5531463623046875,1.0215911865234375,-0.089080810546875
-0.660614013671875,1.0716552734375,-0.14697265625
-0.799041748046875,1.1457366943359375,-0.1314697265625
-0.7815399169921875,1.239471435546875,-0.09625244140625
-0.757659912109375,1.0821685791015625,-0.122833251953125
-0.7257232666015625,0.7380523681640625,-0.0934600830078125
-0.823455810546875,0.7125091552734375,-0.032196044921875
-0.8274383544921875,0.721954345703125,-0.0186004638671875
-0.7269439697265625,0.68145751953125,-0.01611328125
-0.6336212158203125,0.6658172607421875,-0.0205078125
-0.5660247802734375,0.6934356689453125,-0.0059051513671875
-0.53985595703125,0.7029571533203125,0.0083770751953125
-0.5169219970703125,0.6997222900390625,0.074249267578125
-0.5666351318359375,0.7052154541015625,0.1534423828125
-0.6376495361328125,0.7784576416015625,0.2384033203125
-0.7487030029296875,0.91448974609375,0.2693328857421875
-0.7691650390625,0.9615020751953124,0.2023162841796875
-0.8109893798828125,0.9411773681640624,0.164093017578125
-0.860107421875,1.034576416015625,0.2147216796875
-0.825164794921875,1.02178955078125,0.221771240234375
-0.71539306640625,0.8838653564453125,0.1103668212890625
-0.7132110595703125,0.7915496826171875,0.0727996826171875
-0.7181854248046875,0.92376708984375,0.1068267822265625
-0.6507415771484375,1.0536651611328125,0.0612640380859375
-0.5164642333984375,0.9346923828125,-0.0326995849609375
-0.510772705078125,0.785736083984375,-0.0561981201171875
-0.4721221923828125,0.7326202392578125,0.0391387939453125
-0.368682861328125,0.6932373046875,0.0632476806640625
-0.327972412109375,0.651611328125,0.057464599609375
-0.334503173828125,0.6659393310546875,0.0604705810546875
-0.340728759765625,0.6924591064453125,0.0653839111328125
-0.402069091796875,0.8054656982421875,0.0988311767578125
-0.4666900634765625,0.9419097900390624,0.1025390625
-0.5951690673828125,0.990203857421875,0.141571044921875
-0.6776580810546875,1.152069091796875,0.21392822265625
-0.694305419921875,1.0592041015625,0.0462799072265625
-0.6829986572265625,0.8049468994140625,0.0578765869140625
-0.810089111328125,0.8660736083984375,0.1837310791015625
-0.8409423828125,0.8697052001953125,0.2381134033203125
-0.85394287109375,0.7128448486328125,0.152740478515625
-0.8097991943359375,0.6397552490234375,0.070068359375
-0.67864990234375,0.689605712890625,0.0381317138671875
-0.5817413330078125,0.700347900390625,0.0576934814453125
-0.56243896484375,0.679840087890625,0.0835418701171875
-0.5820465087890625,0.7016143798828125,0.1229248046875
-0.5878753662109375,0.7678680419921875,0.1653289794921875
-0.633392333984375,0.82452392578125,0.1690826416015625
-0.6514434814453125,0.82330322265625,0.127044677734375
-0.6789703369140625,0.8770294189453125,0.1182098388671875
-0.7656097412109375,1.065093994140625,0.1079254150390625
-0.7227020263671875,1.021820068359375,0.0329437255859375
-0.70526123046875,0.901885986328125,-0.0486297607421875
-0.7045745849609375,0.77130126953125,0.0010986328125
-0.737548828125,0.858734130859375,0.0383758544921875
-0.6919403076171875,0.9220123291015624,-0.04351806640625
-0.6007537841796875,0.8188018798828125,-0.1181488037109375
-0.589996337890625,0.7335968017578125,-0.081878662109375
-0.5621490478515625,0.734466552734375,-0.052459716796875
-0.4871826171875,0.7265167236328125,-0.0730438232421875
-0.4481964111328125,0.6895904541015625,-0.050567626953125
-0.458709716796875,0.7163238525390625,0.0407562255859375
-0.4470367431640625,0.7543182373046875,0.09429931640625
-0.45635986328125,0.8115234375,0.1002349853515625
-0.4688262939453125,0.83392333984375,0.093719482421875
-0.47979736328125,0.844635009765625,0.148101806640625
-0.5726470947265625,1.0849456787109375,0.2702789306640625
-0.6548614501953125,1.0486297607421875,0.1425628662109375
-0.6925048828125,0.7597808837890625,0.1324615478515625
-0.706817626953125,0.6617279052734375,0.23046875
-0.8468475341796875,0.75531005859375,0.1837921142578125
-0.8820953369140625,0.7642822265625,0.174560546875
-0.81353759765625,0.6992645263671875,0.1511383056640625
-0.71075439453125,0.7677001953125,0.0599212646484375
-0.5914764404296875,0.751007080078125,-0.014923095703125
-0.584869384765625,0.682403564453125,0.1023406982421875
-0.5801544189453125,0.637939453125,0.2320556640625
-0.74493408203125,0.6566314697265625,0.1096954345703125
-0.804473876953125,0.66375732421875,0.108917236328125
-0.848480224609375,0.6717529296875,0.122314453125
-0.84149169921875,0.7221221923828125,0.1393890380859375
-0.796966552734375,0.792572021484375,0.09564208984375
-0.8199005126953125,0.9629974365234376,-0.0068359375
-0.7735748291015625,1.0827178955078125,-0.1111297607421875
-0.69976806640625,1.022918701171875,0.0325469970703125
-0.6590728759765625,0.8715972900390625,0.062347412109375
-0.56512451171875,0.7306976318359375,0.0442352294921875
-0.5246734619140625,0.8016204833984375,0.0028228759765625
-0.41705322265625,0.899444580078125,-0.02294921875
-0.330047607421875,0.807403564453125,-0.0377349853515625
-0.4185333251953125,0.6814727783203125,-0.042938232421875
-0.4973297119140625,0.68682861328125,-0.0189056396484375
-0.4673309326171875,0.7728424072265625,-0.013458251953125
-0.45831298828125,0.7906646728515625,0.0374603271484375
-0.4956207275390625,0.786468505859375,0.10565185546875
-0.5287628173828125,0.8084259033203125,0.14459228515625
-0.4844970703125,0.7212066650390625,0.0837860107421875
-0.5365142822265625,0.6616973876953125,0.0706024169921875
-0.533966064453125,0.6587371826171875,0.0350189208984375
-0.5520782470703125,0.6302337646484375,0.0590667724609375
-0.538116455078125,0.559356689453125,0.1236572265625
-0.5677032470703125,0.507781982421875,0.16607666015625
-0.642974853515625,0.5440521240234375,0.16839599609375
-0.8865814208984375,1.0373687744140625,0.077484130859375
-1.0233917236328125,1.1648406982421875,-0.0732269287109375
-1.690643310546875,1.88909912109375,-0.1696014404296875
-1.18060302734375,1.262725830078125,-0.3037872314453125
-0.8740386962890625,0.7986297607421875,0.0800323486328125
-0.6348114013671875,0.74981689453125,0.401763916015625
-0.432830810546875,0.7798004150390625,0.33197021484375
-0.263153076171875,0.68328857421875,0.135009765625
-0.0653533935546875,0.536041259765625,0.0238037109375
-0.18218994140625,0.558258056640625,-0.04193115234375
-0.2180633544921875,0.5948333740234375,0.1509857177734375
-0.214813232421875,0.6386260986328125,0.2469940185546875
-0.3690338134765625,0.7583465576171875,0.16815185546875
-0.558563232421875,1.0442962646484375,0.09344482421875
-0.7348785400390625,1.3979034423828125,0.0101470947265625
-0.9142303466796876,1.7542266845703125,-0.0195159912109375
-0.7965545654296875,1.4740753173828125,-0.0775604248046875
-0.7738494873046875,0.963287353515625,-0.1278228759765625
-0.7317352294921875,0.7149505615234375,-0.0661468505859375
-0.551300048828125,0.6497955322265625,0.110626220703125
-0.42413330078125,0.521087646484375,0.2516021728515625
-0.4452362060546875,0.4310302734375,0.2275390625
-0.500579833984375,0.476531982421875,0.1353607177734375
-0.5127105712890625,0.5650482177734375,-0.0260467529296875
-0.57061767578125,0.580474853515625,-0.157012939453125
-0.9585723876953124,0.9478302001953124,-0.2198028564453125
-1.2093658447265625,1.3108978271484375,-0.251312255859375
-1.2067108154296875,1.1697845458984375,-0.1650390625
-1.2567138671875,1.2911529541015625,0.1000518798828125
-0.9290618896484376,1.2562103271484375,0.2156219482421875
-0.8515625,1.0184783935546875,0.39398193359375
-0.7579345703125,0.92547607421875,0.294647216796875
-0.522613525390625,0.7959747314453125,0.19342041015625
-0.425872802734375,0.761932373046875,0.143768310546875
-0.2832794189453125,0.6768341064453125,0.060272216796875
-0.225830078125,0.5850982666015625,0.069915771484375
-0.07342529296875,0.516510009765625,0.2059326171875
-0.087188720703125,0.5707550048828125,0.0843505859375
-0.1720733642578125,0.6751251220703125,-0.0040435791015625
-0.350311279296875,0.86279296875,0.1078338623046875
-0.4997711181640625,1.1596527099609375,0.1227264404296875
-0.711029052734375,1.746856689453125,0.07421875
-0.700714111328125,2.0049591064453125,-0.1180877685546875
-1.02301025390625,1.4965667724609375,-0.177093505859375
-1.063232421875,0.9555206298828124,-0.0707550048828125
-0.901641845703125,0.7239837646484375,0.0625
-0.7163238525390625,0.614227294921875,0.2530059814453125
-0.6197967529296875,0.434539794921875,0.2753753662109375
-0.5881195068359375,0.4129486083984375,0.1528778076171875
-0.5800018310546875,0.4935760498046875,-0.0262298583984375
-0.567291259765625,0.5445404052734375,-0.2098541259765625
-0.82318115234375,0.8584442138671875,-0.2674102783203125
-0.946197509765625,1.19989013671875,-0.3161773681640625
-1.154693603515625,1.3424835205078125,-0.3153228759765625
-1.3937835693359375,1.4491424560546875,-0.3782196044921875
-1.146759033203125,1.2385406494140625,-0.021484375
-0.8685302734375,1.09808349609375,0.297119140625
-0.71575927734375,1.09234619140625,0.2942962646484375
-0.4946136474609375,1.020477294921875,0.148162841796875
-0.3356781005859375,0.8292694091796875,0.0423736572265625
-0.290924072265625,0.6425933837890625,-0.033538818359375
-0.235809326171875,0.560333251953125,0.0323638916015625
-0.1304779052734375,0.5728759765625,0.060211181640625
-0.074859619140625,0.612548828125,0.018707275390625
-0.1604156494140625,0.69268798828125,-0.02899169921875
-0.327056884765625,0.9230499267578124,0.0526885986328125
-0.4447479248046875,1.2287750244140625,0.07708740234375
-0.6950836181640625,1.8277435302734373,0.084259033203125
-0.8144378662109375,2.0436553955078125,-0.10675048828125
-1.072296142578125,1.59490966796875,-0.2329864501953125
-1.085296630859375,1.0970458984375,-0.2532501220703125
-0.9363861083984376,0.8557281494140625,-0.11907958984375
-0.751373291015625,0.7226715087890625,0.1037750244140625
-0.6623992919921875,0.56396484375,0.3185272216796875
-0.661773681640625,0.482269287109375,0.26629638671875
-0.666290283203125,0.5782470703125,0.0516510009765625
-0.642486572265625,0.64117431640625,-0.1686248779296875
-0.6088714599609375,0.58673095703125,-0.27239990234375
-0.801422119140625,0.86346435546875,-0.244171142578125
-0.9194793701171876,1.284912109375,-0.1663970947265625
-1.1959686279296875,1.6243743896484375,-0.0421142578125
-1.124237060546875,1.17144775390625,-0.16949462890625
-0.9608917236328124,1.0853271484375,0.3339385986328125
-0.76385498046875,1.1170501708984375,0.49395751953125
-0.70465087890625,1.0578460693359375,0.3069915771484375
-0.61773681640625,1.0562286376953125,0.125244140625
-0.4983978271484375,0.9875335693359376,0.00921630859375
-0.3950958251953125,0.912872314453125,0.0202178955078125
-0.279296875,0.7669525146484375,0.0637969970703125
-0.1734161376953125,0.6380767822265625,0.058807373046875
-0.1046295166015625,0.534881591796875,0.0363922119140625
-0.1771697998046875,0.56121826171875,0.0850677490234375
-0.24127197265625,0.858978271484375,0.1698150634765625
-0.1500396728515625,1.2480010986328125,0.0884246826171875
-0.2959442138671875,1.6411285400390625,-0.1335601806640625
-1.2442474365234375,1.4750823974609375,-0.1956939697265625
-2.053451538085937,0.8573150634765625,0.0178985595703125
-2.038177490234375,0.5854644775390625,0.0428314208984375
-1.240814208984375,0.379913330078125,-0.5205535888671875
-1.0564117431640625,0.05902099609375,-0.66925048828125
-0.8596649169921875,0.064605712890625,-0.741119384765625
-0.5522308349609375,0.2281951904296875,-0.5866851806640625
-0.3978271484375,0.32672119140625,-0.6107635498046875
-0.3048095703125,0.394805908203125,-0.910797119140625
-0.32843017578125,0.3738555908203125,-0.6525421142578125
-0.2094268798828125,0.365020751953125,-0.6149139404296875
-0.193206787109375,0.478179931640625,-1.07196044921875
-0.2204742431640625,0.355133056640625,-1.011322021484375
-0.344268798828125,0.3690185546875,-1.082763671875
-0.23162841796875,0.203857421875,-1.108001708984375
-0.0563201904296875,0.2830352783203125,-1.22955322265625
0.0166015625,0.24713134765625,-1.4094085693359375
-0.0478363037109375,0.0840606689453125,-1.2858734130859375
-0.0189971923828125,-0.0410308837890625,-1.117919921875
0.1051483154296875,-0.0162811279296875,-1.3007354736328125
0.0985565185546875,-0.0283355712890625,-1.3824005126953125
0.02227783203125,-0.134735107421875,-1.2269134521484375
0.0046844482421875,-0.209808349609375,-1.0494537353515625
0.053436279296875,-0.228729248046875,-0.924468994140625
0.0283660888671875,-0.25128173828125,-0.924530029296875
0.020843505859375,-0.32525634765625,-0.8558197021484375
0.020416259765625,-0.314208984375,-0.8715667724609375
0.0455169677734375,-0.262969970703125,-1.0061798095703125
0.044586181640625,-0.19207763671875,-1.0480194091796875
0.107940673828125,-0.2382354736328125,-0.8665924072265625
0.08404541015625,-0.306915283203125,-0.7598876953125
0.0726470947265625,-0.3298187255859375,-0.8842010498046875
0.1027984619140625,-0.3447265625,-0.9171142578125
0.0640411376953125,-0.377288818359375,-0.8162384033203125
0.056671142578125,-0.3850555419921875,-0.803314208984375
-0.017608642578125,-0.3939361572265625,-0.8342132568359375
-0.0184478759765625,-0.36224365234375,-0.9516143798828124
-0.0141143798828125,-0.3892669677734375,-0.8881378173828125
0.0155181884765625,-0.4357452392578125,-0.9187774658203124
