AccelerationX,AccelerationY,AccelerationZ
-0.483184814453125,0.7146148681640625,-0.675933837890625
-0.494354248046875,0.7125396728515625,-0.647003173828125
-0.39984130859375,0.7369537353515625,-0.65753173828125
-0.4052886962890625,0.7044219970703125,-0.5692901611328125
-0.4221343994140625,0.6896209716796875,-0.4794464111328125
-0.4225006103515625,0.6993865966796875,-0.4437103271484375
-0.452911376953125,0.6962432861328125,-0.4942169189453125
-0.46258544921875,0.687530517578125,-0.5295867919921875
-0.51019287109375,0.747161865234375,-0.497100830078125
-0.58892822265625,0.7168121337890625,-0.5098419189453125
-0.7038421630859375,0.6990814208984375,-0.3959197998046875
-0.713165283203125,0.6793670654296875,-0.3369903564453125
-0.8307342529296875,0.673675537109375,-0.383209228515625
-0.74371337890625,0.6089019775390625,-0.2802276611328125
-0.8578643798828125,0.6438140869140625,-0.1237640380859375
-0.876312255859375,0.663970947265625,-0.064849853515625
-0.8040008544921875,0.767181396484375,-0.2289276123046875
-0.8029632568359375,0.83013916015625,-0.252410888671875
-0.812835693359375,0.625579833984375,0.0459442138671875
-0.821685791015625,0.710418701171875,-0.1092071533203125
-0.6904144287109375,0.8108062744140625,-0.0546875
-0.6712188720703125,0.8220672607421875,-0.0173492431640625
-0.7583465576171875,0.68548583984375,0.032379150390625
-0.7413177490234375,0.672607421875,0.0544891357421875
-0.69970703125,0.7168426513671875,0.075836181640625
-0.66314697265625,0.709869384765625,0.10919189453125
-0.6455841064453125,0.70654296875,0.0821380615234375
-0.5668182373046875,0.733367919921875,0.08050537109375
-0.52301025390625,0.7336578369140625,0.095855712890625
-0.5511627197265625,0.7035980224609375,0.1912078857421875
-0.5938720703125,0.669097900390625,0.2734375
-0.67242431640625,0.8073272705078125,0.2384185791015625
-0.629241943359375,0.89678955078125,0.123931884765625
-0.5708465576171875,0.7915496826171875,0.061553955078125
-0.59893798828125,0.7414703369140625,0.071380615234375
-0.6193389892578125,0.7828521728515625,0.03167724609375
-0.681488037109375,0.83050537109375,0.0585479736328125
-0.6220855712890625,0.7396240234375,0.0415802001953125
-0.5925445556640625,0.6938018798828125,0.0711212158203125
-0.6458587646484375,0.6763458251953125,0.0687255859375
-0.68951416015625,0.66510009765625,0.0985260009765625
-0.727569580078125,0.6614532470703125,0.132110595703125
-0.7743377685546875,0.689453125,0.08856201171875
-0.863067626953125,0.6977081298828125,0.0495147705078125
-0.8921661376953125,0.7790069580078125,0.059539794921875
-0.880035400390625,0.84832763671875,0.1167755126953125
-0.8278656005859375,0.8248748779296875,0.1017608642578125
-0.832275390625,0.8721923828125,0.00848388671875
-0.7412109375,0.9842376708984376,-0.058929443359375
-0.60498046875,0.954071044921875,-0.0282135009765625
-0.586181640625,0.842529296875,-0.005126953125
-0.6322021484375,0.8852996826171875,-0.072998046875
-0.5688629150390625,0.9408416748046876,-0.095672607421875
-0.4894256591796875,0.8355712890625,-0.12335205078125
-0.5195770263671875,0.7183990478515625,-0.1133270263671875
-0.56756591796875,0.7166900634765625,-0.067230224609375
-0.5341644287109375,0.7248992919921875,0.0591278076171875
-0.4683685302734375,0.6934051513671875,0.091949462890625
-0.4689178466796875,0.6825408935546875,0.0133056640625
-0.4937896728515625,0.722564697265625,-0.047637939453125
-0.52801513671875,0.796142578125,0.0068206787109375
-0.571807861328125,0.89739990234375,0.0351409912109375
-0.553466796875,0.87689208984375,0.0472869873046875
-0.623687744140625,0.8620147705078125,0.0142669677734375
-0.6968536376953125,0.944000244140625,0.01812744140625
-0.67755126953125,0.97064208984375,-0.0087432861328125
-0.65484619140625,0.7486572265625,-0.042999267578125
-0.7586517333984375,0.6902923583984375,-0.0341796875
-0.8585357666015625,0.757537841796875,-0.0517730712890625
-0.81866455078125,0.7394256591796875,-0.0466766357421875
-0.742706298828125,0.6442718505859375,-0.0457000732421875
-0.70672607421875,0.6329345703125,-0.0914459228515625
-0.6524505615234375,0.6683502197265625,-0.071319580078125
-0.62115478515625,0.6963653564453125,-0.0546722412109375
-0.6169891357421875,0.7582855224609375,-0.0667266845703125
-0.6753387451171875,0.7681121826171875,-0.091339111328125
-0.745635986328125,0.8548736572265625,-0.1157073974609375
-0.7396392822265625,0.98699951171875,-0.1498565673828125
-0.667938232421875,0.9807281494140624,-0.176177978515625
-0.68505859375,0.9733123779296876,-0.1477813720703125
-0.658843994140625,1.0681304931640625,-0.2001190185546875
-0.5420684814453125,1.015716552734375,-0.206756591796875
-0.5509033203125,0.8539581298828125,-0.05828857421875
-0.5859375,0.8337860107421875,0.0074615478515625
-0.4827117919921875,0.8922882080078125,0.0473175048828125
-0.3546295166015625,0.7726593017578125,0.023345947265625
-0.50048828125,0.6678314208984375,-0.0556793212890625
-0.4766693115234375,0.66302490234375,-0.0064697265625
-0.45257568359375,0.62847900390625,0.245758056640625
-0.5417022705078125,0.67633056640625,0.308319091796875
-0.64971923828125,0.77886962890625,0.1162261962890625
-0.7299957275390625,0.764678955078125,0.18548583984375
-0.66595458984375,0.832000732421875,0.2716522216796875
-0.6392822265625,0.7843017578125,0.275787353515625
-0.6900634765625,0.8867034912109375,0.28924560546875
-0.6385040283203125,0.974945068359375,0.17633056640625
-0.5969085693359375,0.689605712890625,0.20758056640625
-0.6591796875,0.6864471435546875,0.2646942138671875
-0.738250732421875,0.7456817626953125,0.150177001953125
-0.786956787109375,0.76544189453125,0.052001953125
-0.66259765625,0.6081695556640625,-0.0410614013671875
-0.586944580078125,0.5864715576171875,0.0847320556640625
-0.6608123779296875,0.629638671875,0.1116943359375
-0.6625518798828125,0.641510009765625,0.12890625
-0.6601409912109375,0.6483154296875,0.086761474609375
-0.7198333740234375,0.739593505859375,0.02130126953125
-0.805755615234375,0.810211181640625,0.0038299560546875
-0.8443756103515625,0.8493804931640625,0.048065185546875
-0.8293304443359375,0.79296875,0.1392059326171875
-0.857330322265625,0.8609161376953125,0.12017822265625
-0.8151702880859375,0.9665374755859376,0.014739990234375
-0.703094482421875,0.8742828369140625,-0.0188446044921875
-0.71002197265625,0.7154541015625,0.036651611328125
-0.7196502685546875,0.8365631103515625,-0.031646728515625
-0.658355712890625,0.9485321044921876,-0.0986785888671875
-0.579833984375,0.826416015625,-0.0828094482421875
-0.55108642578125,0.7271270751953125,-0.0207672119140625
-0.51043701171875,0.7365264892578125,-0.025054931640625
-0.462860107421875,0.725738525390625,0.0016937255859375
-0.4574737548828125,0.682159423828125,0.02484130859375
-0.465789794921875,0.6931915283203125,0.00836181640625
-0.4619140625,0.7518768310546875,-0.00323486328125
-0.5013580322265625,0.7841033935546875,0.0218505859375
-0.5461883544921875,0.8462066650390625,0.0363311767578125
-0.6637115478515625,0.9709014892578124,0.0470123291015625
-0.650848388671875,1.0725250244140625,0.0115814208984375
-0.664581298828125,0.8521575927734375,-0.060302734375
-0.7500457763671875,0.6444854736328125,-0.0227508544921875
-0.82147216796875,0.6914520263671875,0.112396240234375
-0.8125,0.7800750732421875,0.11053466796875
-0.7250213623046875,0.7017822265625,-0.0034942626953125
-0.7338714599609375,0.599395751953125,-0.0576629638671875
-0.70135498046875,0.5667572021484375,0.014923095703125
-0.7271728515625,0.5651092529296875,0.0880889892578125
-0.7331695556640625,0.540313720703125,0.1445770263671875
-0.7401275634765625,0.5751495361328125,0.124725341796875
-0.80804443359375,0.6147003173828125,0.0626220703125
-0.9003143310546875,0.74908447265625,-0.0531768798828125
-0.9229888916015624,0.7895965576171875,-0.0993499755859375
-1.0594329833984375,0.8830718994140625,-0.026123046875
-1.0006561279296875,0.9407196044921876,-0.024078369140625
-0.8185577392578125,0.8412017822265625,-0.0455169677734375
-0.83636474609375,0.747406005859375,-0.0589752197265625
-0.7935943603515625,0.8139495849609375,-0.1221466064453125
-0.66571044921875,0.87530517578125,-0.1181182861328125
-0.523651123046875,0.7972869873046875,-0.0909881591796875
-0.494537353515625,0.7055511474609375,-0.033294677734375
-0.4919891357421875,0.671905517578125,-0.0438079833984375
-0.4547271728515625,0.6547698974609375,-0.0457305908203125
-0.424346923828125,0.6397247314453125,-0.061798095703125
-0.476776123046875,0.6574554443359375,-0.0676422119140625
-0.5032196044921875,0.69830322265625,-0.0680999755859375
-0.562530517578125,0.7612152099609375,-0.0336761474609375
-0.593505859375,0.80413818359375,-0.018829345703125
-0.7256927490234375,0.90643310546875,-0.054595947265625
-0.7474212646484375,1.01959228515625,-0.13323974609375
-0.7514801025390625,0.9510345458984376,-0.2116546630859375
-0.73822021484375,0.7285919189453125,-0.2233123779296875
-0.80096435546875,0.61883544921875,-0.1529083251953125
-0.8887176513671875,0.66314697265625,-0.1111297607421875
-0.91180419921875,0.7034912109375,-0.115692138671875
-0.8277587890625,0.638885498046875,-0.15826416015625
-0.77471923828125,0.608245849609375,-0.1819915771484375
-0.6978302001953125,0.633148193359375,-0.0871429443359375
-0.654876708984375,0.670928955078125,-0.05426025390625
-0.61553955078125,0.6822662353515625,-0.0288238525390625
-0.6002044677734375,0.686004638671875,-0.01470947265625
-0.5904083251953125,0.70513916015625,-0.054443359375
-0.735076904296875,0.7877349853515625,-0.0822601318359375
-0.863006591796875,0.80523681640625,0.06640625
-0.89080810546875,0.7790069580078125,0.097137451171875
-0.8759307861328125,0.9048309326171876,-0.045867919921875
-0.8330230712890625,0.9315032958984376,-0.150634765625
-0.763763427734375,0.7777862548828125,-0.13970947265625
-0.7784423828125,0.6297760009765625,-0.0883026123046875
-0.810455322265625,0.7344512939453125,-0.1603546142578125
-0.68621826171875,0.86004638671875,-0.2201385498046875
-0.52197265625,0.77783203125,-0.24658203125
-0.49591064453125,0.66119384765625,-0.2475433349609375
-0.4674530029296875,0.6074676513671875,-0.245361328125
-0.4462738037109375,0.606414794921875,-0.134124755859375
-0.4643707275390625,0.6299896240234375,-0.0175628662109375
-0.4583282470703125,0.673675537109375,0.0695037841796875
-0.4990997314453125,0.684173583984375,0.065643310546875
-0.6167449951171875,0.802093505859375,0.0115509033203125
-0.692596435546875,0.946136474609375,-0.03668212890625
-0.6837158203125,0.9493865966796876,-0.0646514892578125
-0.822540283203125,0.9738006591796876,-0.0443267822265625
-0.792236328125,0.9561920166015624,-0.0742340087890625
-0.7183990478515625,0.738250732421875,-0.1153564453125
-0.8073883056640625,0.6502838134765625,0.0834197998046875
-0.77044677734375,0.6872406005859375,0.2213134765625
-0.5988311767578125,0.7892608642578125,0.164215087890625
-0.402923583984375,0.8298187255859375,-0.02984619140625
-0.3706207275390625,0.7989959716796875,-0.1109771728515625
-0.4123687744140625,0.740020751953125,-0.0507049560546875
-0.430633544921875,0.70513916015625,0.011077880859375
-0.534454345703125,0.739593505859375,-0.07958984375
-0.6427764892578125,0.734954833984375,-0.2047271728515625
-0.643951416015625,0.7180328369140625,-0.1076507568359375
-0.6683807373046875,0.710662841796875,0.143707275390625
-0.7545928955078125,0.7801666259765625,0.0685882568359375
-0.759918212890625,0.7601470947265625,-0.1280670166015625
-0.9112396240234376,0.8615264892578125,-0.16046142578125
-0.7960662841796875,0.939605712890625,-0.177734375
-0.7029876708984375,0.846160888671875,-0.1155548095703125
-0.765716552734375,0.775390625,-0.1703948974609375
-0.752471923828125,0.8918914794921875,-0.218292236328125
-0.696990966796875,0.9715728759765624,-0.183135986328125
-0.6546478271484375,0.8902435302734375,-0.13037109375
-0.559661865234375,0.6779632568359375,-0.0960693359375
-0.6369476318359375,0.7040557861328125,-0.0838623046875
-0.62762451171875,0.7265167236328125,-0.1020660400390625
-0.55340576171875,0.7475128173828125,-0.0481414794921875
-0.5313568115234375,0.7639923095703125,-0.0253143310546875
-0.4983062744140625,0.7593994140625,-0.04791259765625
-0.5296173095703125,0.787017822265625,-0.028656005859375
-0.516448974609375,0.828155517578125,0.001953125
-0.5367279052734375,0.7332763671875,-0.0145111083984375
-0.6714935302734375,0.771636962890625,-0.0066070556640625
-0.7156524658203125,0.86297607421875,-0.0064544677734375
-0.7068023681640625,0.906829833984375,-0.1013031005859375
-0.730438232421875,0.8176727294921875,-0.1550445556640625
-0.7799224853515625,0.74481201171875,-0.16387939453125
-0.806243896484375,0.7307586669921875,-0.171661376953125
-0.691192626953125,0.6334228515625,-0.114166259765625
-0.5974273681640625,0.6222381591796875,-0.020965576171875
-0.5704345703125,0.7015228271484375,-0.036895751953125
-0.59051513671875,0.7167205810546875,-0.144439697265625
-0.6238250732421875,0.68609619140625,-0.15997314453125
-0.6891326904296875,0.659637451171875,-0.151123046875
-0.752655029296875,0.676605224609375,-0.0975799560546875
-0.8661346435546875,0.7477874755859375,-0.0394439697265625
-0.8566741943359375,0.808868408203125,-0.0044097900390625
-0.829254150390625,0.753692626953125,-0.101043701171875
-0.8941192626953125,0.921630859375,-0.1487579345703125
-0.8407745361328125,1.0086822509765625,-0.189117431640625
-0.818389892578125,0.9192352294921876,-0.2065582275390625
-0.8416290283203125,0.824951171875,-0.180908203125
-0.7754364013671875,0.8948974609375,-0.20452880859375
-0.6878814697265625,0.99176025390625,-0.181732177734375
-0.574920654296875,0.8947906494140625,-0.1665191650390625
-0.5587921142578125,0.7907867431640625,-0.1253662109375
-0.5595703125,0.7688751220703125,-0.098541259765625
-0.460052490234375,0.74664306640625,-0.066375732421875
-0.3699493408203125,0.6909332275390625,-0.05810546875
-0.3428802490234375,0.6607818603515625,-0.0388031005859375
-0.3727264404296875,0.67132568359375,-0.0597381591796875
-0.4802093505859375,0.6987152099609375,-0.13153076171875
-0.60504150390625,0.749114990234375,-0.09796142578125
-0.5611724853515625,0.7480926513671875,0.0469970703125
-0.75091552734375,0.816986083984375,0.05267333984375
-0.99835205078125,1.0008392333984375,0.0025787353515625
-0.8244171142578125,0.854766845703125,-0.021728515625
-0.8792877197265625,0.6208953857421875,-0.0857086181640625
-0.9991455078125,0.5135498046875,-0.0329742431640625
-1.025970458984375,0.5494384765625,0.02972412109375
-1.0457611083984375,0.4712677001953125,0.0304718017578125
-0.91485595703125,0.4391937255859375,0.02392578125
-0.79693603515625,0.481292724609375,-0.0514984130859375
-0.7251129150390625,0.5462646484375,-0.097381591796875
-0.717803955078125,0.538604736328125,0.0057525634765625
-0.7217559814453125,0.5870208740234375,0.0968475341796875
-0.7406463623046875,0.6607208251953125,0.061553955078125
-0.858795166015625,0.6935882568359375,-0.032196044921875
-0.7916717529296875,0.6718292236328125,-0.1420440673828125
-0.8701019287109375,0.813507080078125,-0.1537628173828125
-0.668975830078125,0.7075653076171875,0.03155517578125
-0.7483978271484375,0.68212890625,-0.0644989013671875
-0.743988037109375,0.6370391845703125,-0.041595458984375
-0.7935333251953125,0.777679443359375,-0.0430908203125
-0.883087158203125,0.87530517578125,-0.19232177734375
-0.749664306640625,0.745513916015625,-0.0503387451171875
-0.7249755859375,0.5964202880859375,-0.0278778076171875
-0.6506500244140625,0.56317138671875,-0.085113525390625
-0.58203125,0.5711212158203125,-0.102874755859375
-0.56280517578125,0.5777587890625,-0.1436309814453125
-0.605865478515625,0.668426513671875,-0.293914794921875
-0.6811981201171875,0.7346343994140625,-0.2585601806640625
-0.76800537109375,0.742095947265625,-0.139495849609375
-0.8032073974609375,0.7611083984375,-0.1616668701171875
-0.8267059326171875,0.774566650390625,-0.1653289794921875
-0.884796142578125,0.764129638671875,-0.236602783203125
-0.853485107421875,0.677886962890625,-0.182861328125
-0.802215576171875,0.6482696533203125,-0.22784423828125
-0.704376220703125,0.6862945556640625,-0.295166015625
-0.649688720703125,0.7484130859375,-0.321044921875
-0.616485595703125,0.8025970458984375,-0.334716796875
-0.61285400390625,0.850982666015625,-0.4348297119140625
-0.620086669921875,0.9011688232421876,-0.43798828125
-0.6422271728515625,0.916656494140625,-0.346466064453125
-0.6195220947265625,0.87188720703125,-0.3234405517578125
-0.5814666748046875,0.7750244140625,-0.33447265625
-0.6065216064453125,0.7486572265625,-0.218231201171875
-0.6080322265625,0.8148193359375,-0.0919036865234375
-0.57635498046875,0.9112396240234376,-0.12249755859375
-0.50616455078125,0.8785858154296875,-0.1677093505859375
-0.42425537109375,0.792816162109375,-0.0850067138671875
-0.381134033203125,0.7969207763671875,0.0112457275390625
-0.2706756591796875,0.82098388671875,0.1483001708984375
-0.298309326171875,0.8482818603515625,0.135498046875
-0.445770263671875,0.87103271484375,0.0493011474609375
-0.591278076171875,0.8899078369140625,0.05389404296875
-0.6885833740234375,0.8617401123046875,0.04559326171875
-0.7606658935546875,0.8277587890625,0.0395050048828125
-0.802337646484375,0.8386383056640625,0.0090484619140625
-0.818603515625,0.8088836669921875,0.025360107421875
-0.8160247802734375,0.7644500732421875,-0.0147552490234375
-0.7907867431640625,0.71453857421875,-0.055877685546875
-0.8123321533203125,0.7310943603515625,-0.09100341796875
-0.8403472900390625,0.885284423828125,-0.1749114990234375
-0.8095855712890625,0.8452911376953125,-0.230865478515625
-0.839385986328125,0.701873779296875,-0.20831298828125
-0.8988189697265625,0.8030548095703125,-0.2743682861328125
-0.8215484619140625,0.9521942138671876,-0.2479705810546875
-0.7043914794921875,0.9558563232421876,-0.275177001953125
-0.6334381103515625,0.8665313720703125,-0.2813262939453125
-0.595367431640625,0.8201141357421875,-0.249603271484375
-0.523712158203125,0.824066162109375,-0.1497039794921875
-0.4329986572265625,0.7948150634765625,-0.107391357421875
-0.39208984375,0.755523681640625,-0.1289520263671875
-0.4225921630859375,0.7542266845703125,-0.14727783203125
-0.482330322265625,0.8078155517578125,-0.0955963134765625
-0.5216522216796875,0.8907012939453125,-0.0725555419921875
-0.4955902099609375,0.8756103515625,-0.1356964111328125
-0.4892120361328125,0.7712860107421875,-0.14862060546875
-0.5357818603515625,0.8535308837890625,-0.103607177734375
-0.5582733154296875,0.9536590576171876,-0.1236114501953125
-0.57659912109375,0.8114013671875,-0.09283447265625
-0.69775390625,0.72198486328125,-0.045135498046875
-0.8294219970703125,0.7594146728515625,-0.04443359375
-0.7914276123046875,0.7451629638671875,-0.0758209228515625
-0.69989013671875,0.69927978515625,-0.1611785888671875
-0.6437530517578125,0.6931915283203125,-0.25872802734375
-0.5659637451171875,0.7139892578125,-0.218109130859375
-0.53680419921875,0.7017974853515625,-0.1638641357421875
-0.579925537109375,0.7157440185546875,-0.0913238525390625
-0.6721954345703125,0.7481689453125,-0.0695953369140625
-0.7675933837890625,0.8103485107421875,-0.111846923828125
-0.783905029296875,0.8070068359375,-0.1687164306640625
-0.834197998046875,0.7996978759765625,-0.1883392333984375
-0.882965087890625,0.9458770751953124,-0.259246826171875
-0.76434326171875,0.9805450439453124,-0.2704925537109375
-0.6795654296875,0.8288421630859375,-0.2293701171875
-0.70758056640625,0.8391571044921875,-0.2111053466796875
-0.6891326904296875,0.9383087158203124,-0.2059478759765625
-0.569671630859375,0.8817291259765625,-0.2378387451171875
-0.556793212890625,0.787078857421875,-0.2368011474609375
-0.5454559326171875,0.7581787109375,-0.1751556396484375
-0.50482177734375,0.7867431640625,-0.15521240234375
-0.4492950439453125,0.8089447021484375,-0.101593017578125
-0.392242431640625,0.751617431640625,-0.01995849609375
-0.4121551513671875,0.7494049072265625,-0.06463623046875
-0.4537200927734375,0.829559326171875,-0.156341552734375
-0.482330322265625,0.897674560546875,-0.1499481201171875
-0.5509033203125,0.8521575927734375,-0.1590576171875
-0.667938232421875,0.94793701171875,-0.155029296875
-0.580780029296875,0.8538055419921875,-0.213165283203125
-0.558746337890625,0.7482147216796875,-0.21051025390625
-0.6271820068359375,0.73565673828125,-0.1019134521484375
-0.66217041015625,0.8077850341796875,-0.114166259765625
-0.6593780517578125,0.8007049560546875,-0.1815185546875
-0.64300537109375,0.6711273193359375,-0.1515960693359375
-0.6680145263671875,0.630615234375,-0.100982666015625
-0.61004638671875,0.679931640625,-0.061737060546875
-0.5583953857421875,0.70819091796875,-0.0791015625
-0.564117431640625,0.69903564453125,-0.1133270263671875
-0.631591796875,0.71734619140625,-0.1193084716796875
-0.7175140380859375,0.7755279541015625,-0.145843505859375
-0.7980194091796875,0.832000732421875,-0.16448974609375
-0.813568115234375,0.810882568359375,-0.182708740234375
-0.7924346923828125,0.772369384765625,-0.182098388671875
-0.7956085205078125,0.911224365234375,-0.181793212890625
-0.757110595703125,1.000885009765625,-0.21429443359375
-0.7205352783203125,0.8580169677734375,-0.2849273681640625
-0.7615966796875,0.770965576171875,-0.20477294921875
-0.7320556640625,0.8673248291015625,-0.13311767578125
-0.641510009765625,0.90423583984375,-0.1006011962890625
-0.536834716796875,0.8475494384765625,-0.1304779052734375
-0.489898681640625,0.7563018798828125,-0.1945037841796875
-0.4774169921875,0.732421875,-0.1956939697265625
-0.4924468994140625,0.7641754150390625,-0.0857086181640625
-0.47613525390625,0.749420166015625,-0.0179290771484375
-0.483734130859375,0.7393035888671875,-0.0765228271484375
-0.5051116943359375,0.7264862060546875,-0.1706390380859375
-0.4570159912109375,0.7048187255859375,-0.1721038818359375
-0.4723052978515625,0.7171478271484375,-0.1473541259765625
-0.5556182861328125,0.804840087890625,-0.2186126708984375
-0.6974029541015625,0.9385223388671876,-0.2238006591796875
-0.752777099609375,1.00537109375,-0.293243408203125
-0.69384765625,0.9051971435546876,-0.2900543212890625
-0.6195220947265625,0.6705474853515625,-0.215667724609375
-0.6459503173828125,0.6420745849609375,-0.13140869140625
-0.66937255859375,0.6999969482421875,-0.1317291259765625
-0.669219970703125,0.723480224609375,-0.1345367431640625
-0.580078125,0.72760009765625,-0.152679443359375
-0.5073089599609375,0.7673187255859375,-0.23187255859375
-0.4938507080078125,0.7410430908203125,-0.2353668212890625
-0.5550079345703125,0.692901611328125,-0.17816162109375
-0.655914306640625,0.7120513916015625,-0.1221771240234375
-0.770263671875,0.728240966796875,-0.144378662109375
-0.8548431396484375,0.769317626953125,-0.1362762451171875
-0.81414794921875,0.796722412109375,-0.0951080322265625
-0.776092529296875,0.820770263671875,-0.195037841796875
-0.8039703369140625,0.9471893310546876,-0.2246856689453125
-0.788116455078125,0.9123077392578124,-0.252777099609375
-0.7346343994140625,0.7424468994140625,-0.226348876953125
-0.778106689453125,0.8074798583984375,-0.2067718505859375
-0.727386474609375,0.9650421142578124,-0.1826934814453125
-0.603118896484375,0.9947662353515624,-0.30242919921875
-0.5460968017578125,0.858001708984375,-0.330322265625
-0.55615234375,0.7800750732421875,-0.2936859130859375
-0.49755859375,0.7810211181640625,-0.26953125
-0.4463348388671875,0.7856597900390625,-0.1741943359375
-0.3506622314453125,0.7723846435546875,-0.100067138671875
-0.3138427734375,0.7280731201171875,-0.0887603759765625
-0.3748626708984375,0.7591400146484375,-0.0982818603515625
-0.4244232177734375,0.8727569580078125,-0.0637969970703125
-0.41412353515625,0.8986968994140625,-0.0584869384765625
-0.5811004638671875,0.958160400390625,-0.081756591796875
-0.623443603515625,1.0108642578125,-0.1087799072265625
-0.613311767578125,1.0168304443359375,-0.1874542236328125
-0.5953826904296875,0.7924041748046875,-0.2079315185546875
-0.7341766357421875,0.700653076171875,-0.0647125244140625
-0.8376007080078125,0.7870330810546875,0.00537109375
-0.77911376953125,0.85302734375,-0.0495452880859375
-0.688690185546875,0.7867431640625,-0.152069091796875
-0.61297607421875,0.723052978515625,-0.2683868408203125
-0.5327606201171875,0.696441650390625,-0.2826690673828125
-0.4901580810546875,0.6875152587890625,-0.1610565185546875
-0.4941253662109375,0.689605712890625,-0.0570831298828125
-0.5369720458984375,0.72430419921875,0.01361083984375
-0.6291961669921875,0.823211669921875,-0.035675048828125
-0.6938934326171875,0.910736083984375,-0.1298980712890625
-0.72906494140625,0.8902587890625,-0.2008056640625
-0.860992431640625,0.9506683349609376,-0.1406402587890625
-0.857666015625,0.9358978271484376,-0.132720947265625
-0.767547607421875,0.8233489990234375,-0.1602935791015625
-0.7456512451171875,0.8179931640625,-0.1829376220703125
-0.7269439697265625,0.916290283203125,-0.171478271484375
-0.6524810791015625,0.957733154296875,-0.1439361572265625
-0.56414794921875,0.8671112060546875,-0.169158935546875
-0.49114990234375,0.794769287109375,-0.2314453125
-0.4386444091796875,0.7939910888671875,-0.2197113037109375
-0.3841552734375,0.7793426513671875,-0.1402587890625
-0.3423004150390625,0.7134246826171875,-0.1396942138671875
-0.3491058349609375,0.7059478759765625,-0.1258087158203125
-0.380828857421875,0.77532958984375,-0.1103668212890625
-0.4375152587890625,0.863311767578125,-0.109771728515625
-0.474273681640625,0.8814544677734375,-0.085968017578125
-0.556549072265625,0.8774261474609375,-0.0974884033203125
-0.60833740234375,1.0009765625,-0.0950469970703125
-0.6324310302734375,1.0142974853515625,-0.1297607421875
-0.633544921875,0.9797515869140624,-0.1569061279296875
-0.6246795654296875,0.7799530029296875,-0.105926513671875
-0.735687255859375,0.7162933349609375,-0.0184478759765625
-0.8195037841796875,0.7814483642578125,-0.051849365234375
-0.7677459716796875,0.7642822265625,-0.09332275390625
-0.6865386962890625,0.7105255126953125,-0.152130126953125
-0.5947418212890625,0.7224578857421875,-0.2156524658203125
-0.473236083984375,0.7285003662109375,-0.1808319091796875
-0.400787353515625,0.7037200927734375,-0.1243743896484375
-0.393524169921875,0.6810760498046875,-0.103546142578125
-0.463775634765625,0.7161865234375,-0.1163177490234375
-0.606658935546875,0.824005126953125,-0.08026123046875
-0.7052764892578125,0.9018096923828124,-0.0201416015625
-0.7509613037109375,0.870635986328125,0.0049285888671875
-0.770477294921875,0.8153533935546875,-0.1050872802734375
-0.8212738037109375,0.9630584716796876,-0.160308837890625
-0.772430419921875,1.0943145751953125,-0.2172698974609375
-0.72503662109375,0.9799041748046876,-0.2156219482421875
-0.7235870361328125,0.776214599609375,-0.1228485107421875
-0.7184906005859375,0.8141326904296875,-0.0893707275390625
-0.6805419921875,0.9904632568359376,-0.096282958984375
-0.5576629638671875,0.9261016845703124,-0.125152587890625
-0.5750274658203125,0.789031982421875,-0.18017578125
-0.5426788330078125,0.770599365234375,-0.1328125
-0.4302825927734375,0.7853546142578125,-0.081207275390625
-0.3481597900390625,0.7649993896484375,-0.0651092529296875
-0.31903076171875,0.730560302734375,-0.0370025634765625
-0.3533782958984375,0.7498931884765625,-0.1193084716796875
-0.38336181640625,0.854949951171875,-0.1504669189453125
-0.439178466796875,0.9030609130859376,-0.1754302978515625
-0.5121917724609375,0.88262939453125,-0.25469970703125
-0.625396728515625,0.98516845703125,-0.2769012451171875
-0.5789794921875,0.9593658447265624,-0.3066253662109375
-0.5701446533203125,0.8575897216796875,-0.311431884765625
-0.6584625244140625,0.7655181884765625,-0.269012451171875
-0.7373504638671875,0.7958221435546875,-0.247406005859375
-0.67193603515625,0.81939697265625,-0.2137908935546875
-0.5520172119140625,0.737396240234375,-0.1996612548828125
-0.531219482421875,0.7137603759765625,-0.2218017578125
-0.517913818359375,0.734405517578125,-0.1908416748046875
-0.5344085693359375,0.7501373291015625,-0.1650848388671875
-0.605682373046875,0.744140625,-0.2170257568359375
-0.7269287109375,0.8006744384765625,-0.2391204833984375
-0.8307037353515625,0.9258575439453124,-0.20703125
-0.823699951171875,0.9434814453125,-0.010650634765625
-0.741943359375,0.8912353515625,0.069305419921875
-0.7436676025390625,0.866058349609375,-0.0146026611328125
-0.807220458984375,0.9794158935546876,-0.0590057373046875
-0.6835479736328125,1.125274658203125,-0.139007568359375
-0.64520263671875,0.9248199462890624,-0.20635986328125
-0.66680908203125,0.8156585693359375,-0.18914794921875
-0.61419677734375,1.027801513671875,-0.190093994140625
-0.4929962158203125,1.1619873046875,-0.2109527587890625
-0.4083709716796875,1.022674560546875,-0.2001495361328125
-0.483917236328125,0.8572540283203125,-0.1287384033203125
-0.43914794921875,0.791900634765625,0.0194854736328125
-0.27734375,0.7562103271484375,0.0816650390625
-0.3000030517578125,0.665802001953125,0.0464019775390625
-0.3751220703125,0.6140899658203125,0.13739013671875
-0.3958282470703125,0.6182861328125,0.2442169189453125
-0.558319091796875,0.67706298828125,0.315948486328125
-0.5753326416015625,0.837982177734375,0.2934417724609375
-0.8452911376953125,0.9232940673828124,0.355224609375
-0.837677001953125,1.038848876953125,0.1768035888671875
-0.6728973388671875,0.9157867431640624,0.082122802734375
-0.5396881103515625,0.6452789306640625,-0.06829833984375
-0.7422637939453125,0.799041748046875,-0.1108551025390625
-0.734619140625,0.7975006103515625,-0.143157958984375
-0.774932861328125,0.7791900634765625,-0.046173095703125
-0.7452392578125,0.717926025390625,-0.023590087890625
-0.647308349609375,0.694732666015625,-0.0386199951171875
-0.5370025634765625,0.683685302734375,-0.060089111328125
-0.53314208984375,0.6573638916015625,-0.090087890625
-0.6303558349609375,0.668426513671875,-0.0461883544921875
-0.725372314453125,0.73052978515625,0.0072784423828125
-0.83380126953125,0.7689208984375,0.0740203857421875
-0.8920135498046875,0.811767578125,0.02154541015625
-0.8238067626953125,0.836761474609375,-0.0715789794921875
-0.7358551025390625,0.82672119140625,-0.082794189453125
-0.7711639404296875,0.97412109375,-0.07928466796875
-0.749298095703125,0.9729766845703124,-0.081451416015625
-0.747467041015625,0.8126678466796875,-0.089111328125
-0.8462066650390625,0.8033599853515625,-0.099761962890625
-0.8173370361328125,0.951995849609375,-0.1646728515625
-0.7060546875,1.024261474609375,-0.1923065185546875
-0.5871734619140625,0.955841064453125,-0.19671630859375
-0.5294036865234375,0.8571929931640625,-0.170440673828125
-0.4709625244140625,0.7967376708984375,-0.1217041015625
-0.4059295654296875,0.742706298828125,-0.0762786865234375
-0.3258819580078125,0.671630859375,-0.013641357421875
-0.2987060546875,0.6158905029296875,-0.0092315673828125
-0.337738037109375,0.6407012939453125,-0.0268096923828125
-0.3970794677734375,0.724365234375,-0.028289794921875
-0.4697265625,0.86346435546875,-0.014190673828125
-0.5595703125,0.923919677734375,-0.033538818359375
-0.6654815673828125,0.927093505859375,-0.0760498046875
-0.8321380615234375,1.1022491455078125,-0.0833587646484375
-0.8309783935546875,1.1921844482421875,-0.1474609375
-0.7462310791015625,0.8711090087890625,-0.1571502685546875
-0.8665008544921875,0.733917236328125,-0.0901641845703125
-0.945831298828125,0.752960205078125,-0.0964202880859375
-0.92242431640625,0.7018890380859375,-0.07781982421875
-0.8286590576171875,0.6067352294921875,-0.0925445556640625
-0.7231292724609375,0.660980224609375,-0.1063690185546875
-0.584442138671875,0.751007080078125,-0.0843963623046875
-0.527862548828125,0.728485107421875,-0.115234375
-0.5217437744140625,0.697357177734375,-0.1243743896484375
-0.560333251953125,0.7339019775390625,-0.0732421875
-0.6787872314453125,0.7891082763671875,-0.074188232421875
-0.767608642578125,0.7941741943359375,-0.13348388671875
-0.8054656982421875,0.765899658203125,-0.135101318359375
-0.8592681884765625,0.753936767578125,-0.1365509033203125
-0.8486480712890625,0.7336273193359375,-0.134063720703125
-0.7171173095703125,0.6783905029296875,-0.0671234130859375
-0.7394256591796875,0.6445770263671875,-0.1085968017578125
-0.9033660888671876,0.862274169921875,-0.2267303466796875
-0.8384857177734375,0.8587493896484375,-0.2156982421875
-0.7513275146484375,0.6396331787109375,-0.0922698974609375
-0.7536468505859375,0.507110595703125,-0.101470947265625
-0.7545318603515625,0.4740142822265625,-0.1442718505859375
-0.66351318359375,0.467315673828125,-0.2066497802734375
-0.6401519775390625,0.478363037109375,-0.228759765625
-0.64501953125,0.506683349609375,-0.291168212890625
-0.6915283203125,0.5606689453125,-0.31890869140625
-0.70001220703125,0.645355224609375,-0.2825164794921875
-0.78619384765625,0.6764678955078125,-0.268524169921875
-0.8394317626953125,0.6110687255859375,-0.25811767578125
-0.9136810302734376,0.5318756103515625,-0.2460479736328125
-0.9688568115234376,0.491851806640625,-0.2486419677734375
-0.9637298583984376,0.560272216796875,-0.281585693359375
-0.89349365234375,0.61627197265625,-0.383270263671875
-0.822723388671875,0.69378662109375,-0.4379730224609375
-0.7831573486328125,0.7777862548828125,-0.410980224609375
-0.7822418212890625,0.848297119140625,-0.3874969482421875
-0.7937469482421875,0.874267578125,-0.3524932861328125
-0.7599029541015625,0.779571533203125,-0.314697265625
-0.736968994140625,0.7003021240234375,-0.29119873046875
-0.7443084716796875,0.7816314697265625,-0.26422119140625
-0.649139404296875,0.830474853515625,-0.1756744384765625
-0.537017822265625,0.8461151123046875,-0.135589599609375
-0.46588134765625,0.8016357421875,-0.1756744384765625
-0.46636962890625,0.78375244140625,-0.0979766845703125
-0.4522247314453125,0.7627105712890625,0.0564117431640625
-0.4348907470703125,0.7520751953125,0.1279754638671875
-0.416534423828125,0.755035400390625,0.1412811279296875
-0.427215576171875,0.7864990234375,0.0960693359375
-0.4437103271484375,0.8132781982421875,0.0666656494140625
-0.5080108642578125,0.8528900146484375,0.0659027099609375
-0.6273193359375,0.8748321533203125,0.1000823974609375
-0.7266693115234375,0.8699951171875,0.15985107421875
-0.7970428466796875,0.90594482421875,0.183074951171875
-0.8186492919921875,0.9468841552734376,0.1375885009765625
-0.826934814453125,0.9327850341796876,0.0769195556640625
-0.810943603515625,0.845489501953125,-0.0012664794921875
-0.7885894775390625,0.7581634521484375,-0.0614013671875
-0.7847442626953125,0.763702392578125,-0.07568359375
-0.77392578125,0.793121337890625,-0.0535888671875
-0.80950927734375,0.8176727294921875,-0.0731964111328125
-0.7814483642578125,0.643524169921875,-0.02734375
-0.8995513916015625,0.7392730712890625,-0.0247650146484375
-0.8943023681640625,0.9355621337890624,-0.0674285888671875
-0.79705810546875,0.9941864013671876,-0.201751708984375
-0.7864837646484375,0.9715576171875,-0.3317108154296875
-0.75543212890625,1.008453369140625,-0.4334869384765625
-0.634765625,1.00079345703125,-0.4121856689453125
-0.466644287109375,0.9276275634765624,-0.3502044677734375
-0.37506103515625,0.8055572509765625,-0.2250213623046875
-0.3209991455078125,0.720245361328125,-0.1534576416015625
-0.3615570068359375,0.669921875,-0.096405029296875
-0.4322357177734375,0.7540130615234375,-0.02044677734375
-0.4463653564453125,0.8440399169921875,-0.0114288330078125
-0.5167236328125,0.8531341552734375,-0.0428924560546875
-0.6154937744140625,0.916015625,-0.0396575927734375
-0.6592559814453125,0.9488677978515624,-0.0563201904296875
-0.6398162841796875,0.89837646484375,-0.0798797607421875
-0.652099609375,0.7120513916015625,-0.0269317626953125
-0.81256103515625,0.76507568359375,-0.01458740234375
-0.8490142822265625,0.8853607177734375,-0.0436248779296875
-0.7502288818359375,0.823883056640625,-0.0912017822265625
-0.7356414794921875,0.6839141845703125,-0.1772308349609375
-0.73822021484375,0.64691162109375,-0.2264862060546875
-0.648773193359375,0.6380767822265625,-0.0864105224609375
-0.600921630859375,0.6240386962890625,-0.0341644287109375
-0.6129608154296875,0.658172607421875,-0.0361480712890625
-0.6560821533203125,0.774688720703125,-0.0956573486328125
-0.67022705078125,0.858062744140625,-0.092681884765625
-0.7057952880859375,0.8406524658203125,-0.08709716796875
-0.7568511962890625,0.8155975341796875,-0.0908355712890625
-0.8309326171875,0.8650054931640625,-0.1027679443359375
-0.790069580078125,0.91131591796875,-0.118621826171875
-0.7404327392578125,0.8828582763671875,-0.1433868408203125
-0.78399658203125,0.802703857421875,-0.16656494140625
-0.8349151611328125,0.8945465087890625,-0.20098876953125
-0.7462615966796875,0.94256591796875,-0.2170867919921875
-0.66436767578125,0.8355560302734375,-0.248138427734375
-0.67572021484375,0.7880096435546875,-0.236175537109375
-0.6359100341796875,0.8238067626953125,-0.16668701171875
-0.5346832275390625,0.8595123291015625,-0.136566162109375
-0.409576416015625,0.8218536376953125,-0.1304779052734375
-0.3350677490234375,0.7537384033203125,-0.0870513916015625
-0.324981689453125,0.7362213134765625,-0.0792388916015625
-0.3375396728515625,0.7915802001953125,-0.1061553955078125
-0.3802337646484375,0.8070220947265625,-0.15252685546875
-0.506927490234375,0.779449462890625,-0.1235198974609375
-0.6495361328125,0.8421630859375,-0.0586700439453125
-0.6934356689453125,0.9231719970703124,-0.0917816162109375
-0.64434814453125,0.936553955078125,-0.181854248046875
-0.6823883056640625,0.8663330078125,-0.22454833984375
-0.8097991943359375,0.8557586669921875,-0.24713134765625
-0.8662109375,0.817352294921875,-0.1601104736328125
-0.802978515625,0.7158355712890625,-0.048431396484375
-0.7239990234375,0.68780517578125,-0.0164031982421875
-0.62652587890625,0.7187347412109375,-0.0722503662109375
-0.5500335693359375,0.7302703857421875,-0.1308746337890625
-0.5457305908203125,0.7253570556640625,-0.17755126953125
-0.6360321044921875,0.7595062255859375,-0.156158447265625
-0.716064453125,0.77288818359375,-0.1396484375
-0.7867431640625,0.789398193359375,-0.13165283203125
-0.804290771484375,0.815887451171875,-0.157470703125
-0.8137359619140625,0.859466552734375,-0.21417236328125
-0.8420867919921875,1.0161895751953125,-0.2796783447265625
-0.7829437255859375,1.03790283203125,-0.2745513916015625
-0.672515869140625,0.888397216796875,-0.208740234375
-0.661041259765625,0.8152313232421875,-0.2709197998046875
-0.6123046875,0.8954315185546875,-0.2841796875
-0.5160675048828125,0.9098663330078124,-0.301666259765625
-0.460723876953125,0.774017333984375,-0.3063812255859375
-0.508148193359375,0.7225189208984375,-0.285186767578125
-0.493072509765625,0.7367706298828125,-0.2443695068359375
-0.4633331298828125,0.7580718994140625,-0.1917877197265625
-0.4600677490234375,0.7725677490234375,-0.1798248291015625
-0.448028564453125,0.7860565185546875,-0.1636505126953125
-0.4346771240234375,0.78741455078125,-0.150360107421875
-0.416229248046875,0.8101959228515625,-0.1417388916015625
-0.4074554443359375,0.8249664306640625,-0.1358184814453125
-0.480712890625,0.8447113037109375,-0.0610504150390625
-0.5753326416015625,0.9931640625,0.06719970703125
-0.548126220703125,0.9727020263671876,0.009307861328125
-0.5677947998046875,0.79974365234375,-0.160736083984375
-0.71990966796875,0.8121337890625,-0.1479644775390625
-0.8161468505859375,0.8810882568359375,-0.0517730712890625
-0.8045806884765625,0.8285369873046875,-0.060821533203125
-0.7885284423828125,0.7602691650390625,-0.1514739990234375
-0.757659912109375,0.760986328125,-0.2497711181640625
-0.65380859375,0.746978759765625,-0.2384796142578125
-0.60955810546875,0.7159576416015625,-0.148223876953125
-0.599639892578125,0.722930908203125,-0.07879638671875
-0.6166229248046875,0.753448486328125,-0.0952606201171875
-0.67449951171875,0.84661865234375,-0.1658477783203125
-0.7190399169921875,0.9121856689453124,-0.1937713623046875
-0.71734619140625,0.85540771484375,-0.209136962890625
-0.797332763671875,0.9732818603515624,-0.2216949462890625
-0.7516326904296875,1.066162109375,-0.2223358154296875
-0.6508331298828125,0.928131103515625,-0.2086944580078125
-0.714630126953125,0.8622894287109375,-0.1994781494140625
-0.7404327392578125,0.9589691162109376,-0.2324676513671875
-0.6417083740234375,0.99603271484375,-0.221435546875
-0.55499267578125,0.91192626953125,-0.248199462890625
-0.5457000732421875,0.8409881591796875,-0.268585205078125
-0.4731292724609375,0.847686767578125,-0.2400665283203125
-0.354461669921875,0.80731201171875,-0.1710052490234375
-0.290313720703125,0.73828125,-0.1354522705078125
-0.304931640625,0.7106475830078125,-0.1091461181640625
-0.3200836181640625,0.72998046875,-0.1072540283203125
-0.3645477294921875,0.7777862548828125,-0.1017303466796875
-0.41436767578125,0.8462371826171875,-0.0988922119140625
-0.4890899658203125,0.899871826171875,-0.1114044189453125
-0.5898590087890625,1.128204345703125,-0.1623687744140625
-0.6116943359375,1.172576904296875,-0.2834014892578125
-0.6078338623046875,0.9895477294921876,-0.313262939453125
-0.693359375,0.825653076171875,-0.21124267578125
-0.807403564453125,0.8216552734375,-0.0995025634765625
-0.86572265625,0.8445281982421875,-0.0334625244140625
-0.8169708251953125,0.7462615966796875,-0.1384429931640625
-0.758453369140625,0.691650390625,-0.2108612060546875
-0.671142578125,0.7117462158203125,-0.2412872314453125
-0.5865020751953125,0.73846435546875,-0.176361083984375
-0.54534912109375,0.746856689453125,-0.14056396484375
-0.528228759765625,0.7673187255859375,-0.1308746337890625
-0.55255126953125,0.8360595703125,-0.1399993896484375
-0.621246337890625,0.8547210693359375,-0.1365814208984375
-0.674285888671875,0.8698272705078125,-0.1141357421875
-0.677398681640625,0.89801025390625,-0.04107666015625
-0.7382049560546875,1.04986572265625,0.0023956298828125
-0.70904541015625,1.14959716796875,-0.0534820556640625
-0.6635284423828125,0.917236328125,-0.1063690185546875
-0.768218994140625,0.8033294677734375,-0.066497802734375
-0.7872314453125,0.9604644775390624,0.0286712646484375
-0.6672821044921875,1.1333465576171875,-0.00933837890625
-0.4984283447265625,1.064239501953125,-0.1168365478515625
-0.4481048583984375,0.8767242431640625,-0.1363067626953125
-0.397064208984375,0.758453369140625,-0.011688232421875
-0.3421630859375,0.7086181640625,0.047454833984375
-0.321990966796875,0.70538330078125,0.0335235595703125
-0.349456787109375,0.692138671875,-0.0487823486328125
-0.4070892333984375,0.70184326171875,-0.0980224609375
-0.417144775390625,0.7565460205078125,-0.197113037109375
-0.4638214111328125,0.8722076416015625,-0.30181884765625
-0.54925537109375,1.008514404296875,-0.3847198486328125
-0.7173919677734375,1.0526885986328125,-0.397796630859375
-0.763397216796875,1.062164306640625,-0.251007080078125
-0.672515869140625,1.09075927734375,-0.3576507568359375
-0.6187591552734375,1.0380706787109375,-0.4205169677734375
-0.5994110107421875,0.7685089111328125,-0.3047943115234375
-0.770904541015625,0.71356201171875,-0.237884521484375
-0.80181884765625,0.7328948974609375,-0.181396484375
-0.71307373046875,0.722320556640625,-0.107269287109375
-0.6352996826171875,0.661376953125,-0.0818328857421875
-0.60858154296875,0.6961822509765625,-0.0774383544921875
-0.54705810546875,0.722564697265625,-0.0460968017578125
-0.5320892333984375,0.7399139404296875,-0.0278778076171875
-0.596710205078125,0.764251708984375,-0.039703369140625
-0.670379638671875,0.8034515380859375,-0.0187835693359375
-0.768218994140625,0.871185302734375,-0.02301025390625
-0.78564453125,0.8724517822265625,-0.04266357421875
-0.8094635009765625,0.85089111328125,-0.0586395263671875
-0.8223419189453125,0.908203125,-0.0681304931640625
-0.753753662109375,0.992706298828125,-0.0999298095703125
-0.67242431640625,0.9566497802734376,-0.18353271484375
-0.6883087158203125,0.8083038330078125,-0.1602935791015625
-0.7379608154296875,0.9041900634765624,-0.0968475341796875
-0.6746978759765625,1.0513458251953125,-0.1153411865234375
-0.5543670654296875,0.9781036376953124,-0.1948089599609375
-0.5175018310546875,0.8523406982421875,-0.2176055908203125
-0.5154266357421875,0.856903076171875,-0.168304443359375
-0.4238433837890625,0.83294677734375,-0.1232452392578125
-0.32147216796875,0.7479095458984375,-0.0565948486328125
-0.2952880859375,0.68951416015625,-0.0462493896484375
-0.2945556640625,0.7080230712890625,-0.0439453125
-0.364715576171875,0.748291015625,-0.0161895751953125
-0.44342041015625,0.8341827392578125,0.0162811279296875
-0.48468017578125,0.9358673095703124,-0.0026092529296875
-0.6000823974609375,1.0695343017578125,-0.049072265625
-0.6934967041015625,1.1982421875,-0.113983154296875
-0.72369384765625,1.1324005126953125,-0.21697998046875
-0.7088623046875,0.8311004638671875,-0.1734771728515625
-0.7966156005859375,0.6284332275390625,-0.0206146240234375
-0.914215087890625,0.729522705078125,0.03277587890625
-0.905792236328125,0.7934417724609375,-0.0796051025390625
-0.7062835693359375,0.732879638671875,-0.215362548828125
-0.601898193359375,0.6935272216796875,-0.1894378662109375
-0.622955322265625,0.6502685546875,-0.0417022705078125
-0.5413055419921875,0.6719818115234375,0.122344970703125
-0.4719696044921875,0.69268798828125,0.0538482666015625
-0.5568084716796875,0.7269439697265625,-0.0623779296875
-0.687225341796875,0.73052978515625,-0.02532958984375
-0.7894134521484375,0.7938995361328125,0.052978515625
-0.82769775390625,0.8369293212890625,0.0619964599609375
-0.8842926025390625,0.850982666015625,-0.000274658203125
-0.9409027099609376,1.0272979736328125,-0.0802154541015625
-0.8156585693359375,1.060791015625,-0.1318511962890625
-0.724365234375,0.8712921142578125,-0.1919097900390625
-0.7682647705078125,0.791259765625,-0.2277374267578125
-0.6920166015625,0.8607635498046875,-0.2222900390625
-0.5951995849609375,0.911865234375,-0.24566650390625
-0.5528106689453125,0.8298187255859375,-0.2304229736328125
-0.4844207763671875,0.7630615234375,-0.169342041015625
-0.4093017578125,0.724853515625,-0.1896514892578125
-0.3557586669921875,0.71612548828125,-0.1812896728515625
-0.335662841796875,0.6933746337890625,-0.1183013916015625
-0.379119873046875,0.66912841796875,-0.0629425048828125
-0.4874420166015625,0.619384765625,-0.0843658447265625
-0.5877838134765625,0.6599273681640625,-0.0328369140625
-0.6232757568359375,0.77850341796875,0.070587158203125
-0.65386962890625,0.8748779296875,0.0427398681640625
-0.7968902587890625,0.9323883056640624,-0.08856201171875
-0.97540283203125,1.1951141357421875,-0.1217803955078125
-0.829498291015625,1.06451416015625,-0.244964599609375
-0.6879425048828125,0.6837158203125,-0.21636962890625
-0.727935791015625,0.523345947265625,0.022003173828125
-0.842376708984375,0.6425933837890625,0.0522918701171875
-0.846221923828125,0.7199249267578125,-0.101043701171875
-0.7948150634765625,0.7147064208984375,-0.2383880615234375
-0.7446136474609375,0.7689666748046875,-0.3151092529296875
-0.6507720947265625,0.782806396484375,-0.3280487060546875
-0.542510986328125,0.7440032958984375,-0.27203369140625
-0.5072174072265625,0.7163238525390625,-0.221527099609375
-0.492889404296875,0.726470947265625,-0.1550750732421875
-0.554107666015625,0.7298126220703125,-0.0941009521484375
-0.6322784423828125,0.762237548828125,-0.126922607421875
-0.693817138671875,0.8293914794921875,-0.168914794921875
-0.7213287353515625,0.882965087890625,-0.18707275390625
-0.7143096923828125,0.8908538818359375,-0.2057647705078125
-0.6834564208984375,0.8594512939453125,-0.232635498046875
-0.748291015625,0.9927215576171876,-0.220672607421875
-0.7455596923828125,1.1757659912109375,-0.271453857421875
-0.5761260986328125,1.068267822265625,-0.2960205078125
-0.426300048828125,0.6953582763671875,-0.2758941650390625
-0.514862060546875,0.6197052001953125,-0.177001953125
-0.471771240234375,0.795562744140625,-0.14874267578125
-0.3475799560546875,0.838592529296875,-0.161041259765625
-0.3925628662109375,0.752532958984375,-0.2452850341796875
-0.524658203125,0.7348480224609375,-0.293914794921875
-0.58111572265625,0.79736328125,-0.32696533203125
-0.5543975830078125,0.8665771484375,-0.2842864990234375
-0.5015716552734375,0.806396484375,-0.22998046875
-0.500030517578125,0.737396240234375,-0.2178192138671875
-0.4376068115234375,0.7430572509765625,-0.1439361572265625
-0.3440399169921875,0.789306640625,-0.0238494873046875
-0.355438232421875,0.7798004150390625,0.029144287109375
-0.422760009765625,0.7214813232421875,0.0501708984375
-0.4955291748046875,0.6855621337890625,0.0855560302734375
-0.4860076904296875,0.6908721923828125,0.0422515869140625
-0.444427490234375,0.674163818359375,-0.081451416015625
-0.4443817138671875,0.6245269775390625,-0.0830535888671875
-0.5334625244140625,0.5934295654296875,0.000335693359375
-0.805419921875,0.788970947265625,0.145782470703125
-1.1997833251953125,1.494903564453125,-0.0131378173828125
-1.1828765869140625,1.260162353515625,-0.3739013671875
-1.5850372314453125,1.3305206298828125,-0.5468902587890625
-1.0704803466796875,1.0905914306640625,-0.2318267822265625
-0.78839111328125,0.9766082763671876,0.056427001953125
-0.6676483154296875,0.827484130859375,0.14898681640625
-0.5771636962890625,0.7781219482421875,0.08294677734375
-0.441619873046875,0.790374755859375,0.005950927734375
-0.321807861328125,0.751251220703125,-0.05242919921875
-0.276519775390625,0.704925537109375,-0.0480499267578125
-0.2011871337890625,0.6806182861328125,0.0453948974609375
-0.1646575927734375,0.6678009033203125,0.03448486328125
-0.2113800048828125,0.7388458251953125,-0.031982421875
-0.3787841796875,1.1181640625,-0.0262603759765625
-0.4727325439453125,1.5724334716796875,-0.0109100341796875
-0.533233642578125,1.7946319580078125,-0.02313232421875
-0.7640533447265625,1.325103759765625,-0.16937255859375
-0.902130126953125,1.0079498291015625,-0.2230377197265625
-0.769500732421875,0.9184722900390624,-0.12994384765625
-0.643096923828125,0.8441619873046875,0.0208740234375
-0.648223876953125,0.67877197265625,0.2012786865234375
-0.6763916015625,0.5537872314453125,0.2401580810546875
-0.646209716796875,0.536163330078125,0.0953826904296875
-0.56927490234375,0.5715789794921875,-0.1046295166015625
-0.722808837890625,0.7964324951171875,-0.244384765625
-0.966705322265625,1.27288818359375,-0.398712158203125
-0.990020751953125,1.289886474609375,-0.482574462890625
-1.2813720703125,1.2669830322265625,-0.194244384765625
-0.9813690185546876,1.0107574462890625,0.2473907470703125
-0.9118499755859376,1.1336517333984375,0.2096099853515625
-0.746490478515625,0.999542236328125,0.0944366455078125
-0.6190032958984375,0.8670196533203125,0.2409515380859375
-0.4996490478515625,0.8583526611328125,0.1754150390625
-0.350494384765625,0.7859649658203125,-0.005950927734375
-0.269439697265625,0.696533203125,0.0199127197265625
-0.2307281494140625,0.5732269287109375,0.1094512939453125
-0.1541900634765625,0.5693817138671875,0.100006103515625
-0.168853759765625,0.6682586669921875,0.0549163818359375
-0.1996917724609375,1.0301361083984375,0.04913330078125
-0.2928619384765625,1.488006591796875,-0.0172271728515625
-0.572265625,1.9125823974609373,-0.1399383544921875
-0.930084228515625,1.7136688232421875,-0.3558807373046875
-0.98663330078125,1.29193115234375,-0.3736724853515625
-0.894500732421875,1.0183868408203125,-0.18389892578125
-0.8126220703125,0.8848114013671875,-0.0027313232421875
-0.7540283203125,0.717315673828125,0.155670166015625
-0.7259521484375,0.5580291748046875,0.1824951171875
-0.7129058837890625,0.557342529296875,0.0319366455078125
-0.6417999267578125,0.5648651123046875,-0.1569061279296875
-0.5883331298828125,0.49969482421875,-0.233001708984375
-0.7672576904296875,0.8310394287109375,-0.2450408935546875
-0.8544158935546875,1.19500732421875,-0.386138916015625
-1.0565948486328125,1.38983154296875,-0.457916259765625
-1.2554931640625,1.399658203125,-0.467010498046875
-1.06390380859375,1.140380859375,-0.095916748046875
-0.8637542724609375,1.250335693359375,0.2611236572265625
-0.608154296875,1.1785125732421875,0.179290771484375
-0.4409027099609375,1.0517578125,0.0322723388671875
-0.31793212890625,0.8430023193359375,0.008636474609375
-0.258514404296875,0.6977081298828125,0.110107421875
-0.199981689453125,0.6098175048828125,0.1264801025390625
-0.126190185546875,0.55804443359375,0.1060638427734375
-0.1190948486328125,0.525115966796875,0.05975341796875
-0.290771484375,0.7142486572265625,0.0830078125
-0.3809661865234375,1.1025848388671875,0.0706329345703125
-0.47430419921875,1.5738372802734375,-0.0415802001953125
-0.6595916748046875,2.093170166015625,-0.238800048828125
-0.8135223388671875,1.8502655029296875,-0.5164642333984375
-0.86663818359375,1.3550262451171875,-0.577239990234375
-0.8377532958984375,0.9522247314453124,-0.475189208984375
-0.804901123046875,0.8182220458984375,-0.1910400390625
-0.7582244873046875,0.737396240234375,0.0173187255859375
-0.6711883544921875,0.6700897216796875,0.1774749755859375
-0.633758544921875,0.61328125,0.07659912109375
-0.6225128173828125,0.6234588623046875,-0.18121337890625
-0.523468017578125,0.6040496826171875,-0.329864501953125
-0.617462158203125,0.681488037109375,-0.4536285400390625
-0.8462066650390625,1.0599517822265625,-0.3897247314453125
-0.8597869873046875,1.291473388671875,-0.1325531005859375
-1.096649169921875,1.7745513916015625,-0.1994476318359375
-0.79779052734375,1.550628662109375,-0.2299346923828125
-0.718841552734375,1.1783905029296875,0.1734466552734375
-0.6472625732421875,1.12164306640625,0.359344482421875
-0.36993408203125,1.0815582275390625,0.1816253662109375
-0.201324462890625,0.9345245361328124,0.0275115966796875
-0.2227020263671875,0.716796875,-0.00604248046875
-0.172149658203125,0.6357421875,-0.0319061279296875
-0.1020050048828125,0.527618408203125,-0.03424072265625
-0.22430419921875,0.470367431640625,-0.1300201416015625
-0.5546875,0.4757843017578125,-0.2454833984375
-0.7310791015625,0.6388702392578125,-0.2902069091796875
-0.8581390380859375,0.7557525634765625,-0.3202056884765625
-0.8648681640625,0.70257568359375,-0.4758453369140625
-0.9084320068359376,0.6754913330078125,-0.623138427734375
-0.919586181640625,0.538848876953125,-0.682708740234375
-0.9801025390625,0.50115966796875,-0.874847412109375
-0.6188201904296875,0.3408050537109375,-1.0131072998046875
-0.4329833984375,0.2691650390625,-0.87774658203125
-0.3385772705078125,0.1539154052734375,-0.6866455078125
-0.324615478515625,0.1507415771484375,-0.67181396484375
-0.187408447265625,0.156951904296875,-0.69781494140625
-0.1429290771484375,0.191925048828125,-0.698699951171875
-0.105560302734375,0.1517486572265625,-0.833404541015625
-0.1355133056640625,0.1954345703125,-0.92645263671875
-0.1463165283203125,0.1568603515625,-0.982940673828125
-0.0771026611328125,0.1668243408203125,-1.0888519287109375
-0.1478424072265625,0.2968597412109375,-1.092041015625
-0.23260498046875,0.2708587646484375,-1.42132568359375
-0.1234283447265625,0.1753387451171875,-1.1480255126953125
-0.039794921875,0.0894622802734375,-1.0831146240234375
-0.011474609375,-0.0396575927734375,-1.2385711669921875
0.0717926025390625,-0.030548095703125,-1.1131744384765625
-0.001678466796875,-0.099700927734375,-1.3159332275390625
0.02069091796875,-0.116363525390625,-1.2631072998046875
0.060546875,-0.1572113037109375,-1.224365234375
0.097320556640625,-0.1866607666015625,-1.2446441650390625
0.05987548828125,-0.2231292724609375,-0.972076416015625
0.003173828125,-0.2590179443359375,-0.8025665283203125
