AccelerationX,AccelerationY,AccelerationZ
0.1744232177734375,-0.2511138916015625,-1.1287078857421875
0.198883056640625,-0.2391815185546875,-0.774505615234375
0.1839141845703125,-0.23626708984375,-0.79974365234375
0.1309356689453125,-0.1515350341796875,-0.933990478515625
0.0210723876953125,-0.18634033203125,-0.719329833984375
-0.022705078125,-0.2505645751953125,-0.57574462890625
-0.013336181640625,-0.232696533203125,-0.6585235595703125
-0.14520263671875,-0.161865234375,-0.69073486328125
-0.2602691650390625,-0.2267608642578125,-0.6535797119140625
-0.3223876953125,-0.125762939453125,-0.621124267578125
-0.3701019287109375,-0.190460205078125,-0.864898681640625
-0.4657745361328125,-0.1494293212890625,-0.7984771728515625
-0.53131103515625,-0.0535430908203125,-0.7952880859375
-0.545135498046875,-0.05877685546875,-0.7206268310546875
-0.556549072265625,0.0757598876953125,-0.7973785400390625
-0.5668182373046875,0.1937103271484375,-0.7315216064453125
-0.8329315185546875,0.2782745361328125,-0.6856536865234375
-0.9381866455078124,0.39361572265625,-0.7698516845703125
-0.9154510498046876,0.5244140625,-0.77752685546875
-0.96502685546875,0.6484832763671875,-0.510162353515625
-1.042938232421875,0.72430419921875,-0.370880126953125
-1.1606903076171875,0.7758941650390625,-0.3126373291015625
-1.084381103515625,0.6340179443359375,-0.20733642578125
-1.0717315673828125,0.5116729736328125,-0.2727813720703125
-1.211212158203125,0.64056396484375,-0.2133636474609375
-1.09210205078125,0.5893402099609375,-0.0986785888671875
-0.96368408203125,0.504669189453125,0.0319061279296875
-0.917633056640625,0.4727935791015625,-0.07513427734375
-0.7913665771484375,0.56646728515625,-0.0564117431640625
-0.71728515625,0.6029510498046875,-0.0205230712890625
-0.762298583984375,0.5648956298828125,-0.127410888671875
-0.8727264404296875,0.5850067138671875,-0.0982513427734375
-0.866729736328125,0.6379241943359375,-0.0261688232421875
-0.856170654296875,0.717529296875,-0.0223388671875
-0.897430419921875,0.791595458984375,-0.05718994140625
-0.8684539794921875,0.7609405517578125,-0.125335693359375
-0.9556427001953124,0.78753662109375,-0.202606201171875
-0.9417572021484376,0.782684326171875,-0.2196044921875
-0.80169677734375,0.609161376953125,-0.1311187744140625
-0.882781982421875,0.6390380859375,-0.0252838134765625
-0.9265289306640624,0.7955780029296875,0.0008697509765625
-0.835052490234375,0.811492919921875,-0.0787200927734375
-0.675140380859375,0.5903778076171875,-0.11322021484375
-0.6737213134765625,0.5099639892578125,-0.09027099609375
-0.6285552978515625,0.4982147216796875,-0.04620361328125
-0.548065185546875,0.5152435302734375,-0.0066680908203125
-0.476806640625,0.4763336181640625,0.0401458740234375
-0.5482940673828125,0.5472412109375,0.1228179931640625
-0.5835113525390625,0.626434326171875,0.138458251953125
-0.6636199951171875,0.7400360107421875,0.1156158447265625
-0.742401123046875,0.7771453857421875,0.0465087890625
-0.880035400390625,0.8142547607421875,0.0304718017578125
-1.010528564453125,0.890045166015625,0.11151123046875
-0.8893585205078125,0.63250732421875,0.096466064453125
-1.012908935546875,0.6183319091796875,0.086395263671875
-1.129852294921875,0.7043609619140625,0.024993896484375
-1.0548553466796875,0.6818389892578125,-0.054046630859375
-0.8997955322265625,0.578948974609375,-0.0603179931640625
-0.709320068359375,0.49908447265625,0.0304107666015625
-0.6011199951171875,0.520416259765625,0.138397216796875
-0.6470184326171875,0.49176025390625,0.17962646484375
-0.84576416015625,0.4775390625,0.0911865234375
-1.07965087890625,0.5858154296875,-0.04010009765625
-1.2098846435546875,0.66912841796875,-0.0570068359375
-1.1775360107421875,0.66290283203125,-0.075347900390625
-1.1176910400390625,0.7259063720703125,-0.14447021484375
-1.0488433837890625,0.883575439453125,-0.123992919921875
-0.9615478515625,0.95697021484375,-0.1212158203125
-0.7876129150390625,0.829498291015625,-0.10919189453125
-0.754852294921875,0.7349853515625,-0.0730743408203125
-0.799285888671875,0.7919921875,-0.02874755859375
-0.6554718017578125,0.7502899169921875,-0.035430908203125
-0.565582275390625,0.6364593505859375,-0.0623016357421875
-0.578765869140625,0.572662353515625,-0.029815673828125
-0.557373046875,0.527862548828125,0.0475006103515625
-0.550537109375,0.4989166259765625,0.046234130859375
-0.5506439208984375,0.45794677734375,0.050537109375
-0.667083740234375,0.5446624755859375,0.080474853515625
-0.71044921875,0.641265869140625,0.1295318603515625
-0.6910247802734375,0.6718597412109375,0.128387451171875
-0.749359130859375,0.6634674072265625,0.0345306396484375
-0.852386474609375,0.7037811279296875,0.068939208984375
-0.89703369140625,0.81829833984375,0.0383453369140625
-0.773284912109375,0.70501708984375,-0.075714111328125
-0.8073883056640625,0.59564208984375,-0.0832977294921875
-0.9890899658203124,0.70819091796875,0.00042724609375
-1.04022216796875,0.71795654296875,0.0370941162109375
-1.0020294189453125,0.6133880615234375,0.0255279541015625
-0.9555206298828124,0.5185699462890625,0.0330963134765625
-0.85772705078125,0.517120361328125,0.0693359375
-0.737823486328125,0.5589752197265625,0.086883544921875
-0.7141876220703125,0.58148193359375,0.019805908203125
-0.818878173828125,0.6471405029296875,-0.0026397705078125
-0.9271697998046876,0.7188720703125,0.0850372314453125
-0.9777069091796876,0.7332916259765625,0.1551666259765625
-0.9486541748046876,0.736541748046875,0.0832672119140625
-0.8850555419921875,0.77044677734375,-0.0261077880859375
-0.825653076171875,0.8244781494140625,-0.0923004150390625
-0.7938079833984375,0.8372955322265625,-0.0888671875
-0.7737274169921875,0.7292327880859375,-0.076507568359375
-0.89788818359375,0.787841796875,-0.076629638671875
-0.8878631591796875,0.8491973876953125,-0.1088104248046875
-0.76043701171875,0.7493743896484375,-0.07403564453125
-0.7359771728515625,0.6200408935546875,-0.080718994140625
-0.7657623291015625,0.5917205810546875,-0.0646514892578125
-0.72076416015625,0.626556396484375,-0.03973388671875
-0.627899169921875,0.654754638671875,-0.01214599609375
-0.555938720703125,0.6047821044921875,-0.0309906005859375
-0.5673828125,0.6995849609375,0.070556640625
-0.56658935546875,0.8086395263671875,0.1357574462890625
-0.50677490234375,0.83343505859375,0.108612060546875
-0.45733642578125,0.700836181640625,0.0637359619140625
-0.6297607421875,0.665802001953125,0.1287384033203125
-0.7666168212890625,0.801116943359375,0.22149658203125
-0.635772705078125,0.6952362060546875,0.10906982421875
-0.81964111328125,0.8561859130859375,0.1182403564453125
-0.9555511474609376,0.9226226806640624,0.0760955810546875
-0.9250946044921876,0.7581787109375,0.03106689453125
-0.843597412109375,0.534912109375,0.0445098876953125
-0.81610107421875,0.49945068359375,0.0790557861328125
-0.80950927734375,0.592987060546875,0.11248779296875
-0.779083251953125,0.6953125,0.0894012451171875
-0.7214202880859375,0.6683807373046875,-0.018798828125
-0.8180694580078125,0.70556640625,-0.0062408447265625
-0.899932861328125,0.7708587646484375,0.0900421142578125
-0.859100341796875,0.71148681640625,0.132965087890625
-0.8393707275390625,0.65179443359375,0.10955810546875
-0.9550323486328124,0.8238677978515625,0.0529937744140625
-0.965972900390625,0.946197509765625,-0.019287109375
-0.792266845703125,0.6190338134765625,-0.0833740234375
-0.9553375244140624,0.6921234130859375,-0.056488037109375
-0.935699462890625,0.8219451904296875,-0.00262451171875
-0.7899932861328125,0.7988128662109375,0.0050811767578125
-0.7587432861328125,0.75921630859375,-0.0449676513671875
-0.73626708984375,0.7672576904296875,-0.074371337890625
-0.6619415283203125,0.7737884521484375,-0.03509521484375
-0.551544189453125,0.7265167236328125,0.033172607421875
-0.490203857421875,0.6905975341796875,0.0560760498046875
-0.5026092529296875,0.7333984375,0.0620880126953125
-0.522308349609375,0.79681396484375,0.05682373046875
-0.4456787109375,0.6995086669921875,0.044403076171875
-0.587432861328125,0.6669921875,0.088409423828125
-0.7462921142578125,0.89263916015625,0.2122039794921875
-0.542510986328125,0.67169189453125,0.03387451171875
-0.7840118408203125,0.8164215087890625,0.0526580810546875
-0.854949951171875,0.897430419921875,0.02630615234375
-0.864349365234375,0.8338775634765625,0.0674285888671875
-0.8007659912109375,0.603729248046875,0.055084228515625
-0.789764404296875,0.539703369140625,0.100555419921875
-0.7761383056640625,0.5699920654296875,0.1384124755859375
-0.767852783203125,0.602508544921875,0.134307861328125
-0.8379669189453125,0.569091796875,0.0671539306640625
-0.976043701171875,0.618560791015625,-0.0404815673828125
-1.07861328125,0.7298126220703125,-0.146270751953125
-1.019317626953125,0.7214202880859375,-0.168212890625
-0.96142578125,0.673309326171875,-0.119659423828125
-1.0758209228515625,0.84619140625,-0.06097412109375
-1.011749267578125,0.98748779296875,-0.024444580078125
-0.7921905517578125,0.7536163330078125,-0.048797607421875
-0.883758544921875,0.774139404296875,-0.014495849609375
-0.9210357666015624,0.9114532470703124,0.00067138671875
-0.7444610595703125,0.868804931640625,-0.0307159423828125
-0.6403656005859375,0.7889862060546875,0.0014495849609375
-0.6363067626953125,0.722930908203125,0.0474700927734375
-0.6013946533203125,0.698516845703125,0.09576416015625
-0.490264892578125,0.6102447509765625,0.113983154296875
-0.447052001953125,0.5696258544921875,0.1171722412109375
-0.46368408203125,0.595550537109375,0.114532470703125
-0.5332183837890625,0.68505859375,0.1084136962890625
-0.5709075927734375,0.7629852294921875,0.0796356201171875
-0.5842742919921875,0.735321044921875,0.033050537109375
-0.714752197265625,0.711395263671875,0.101531982421875
-0.9502105712890624,0.9512176513671876,0.2338714599609375
-0.7382354736328125,0.7141571044921875,0.0601043701171875
-0.83343505859375,0.641357421875,-0.033447265625
-1.037872314453125,0.8291015625,-0.101043701171875
-0.9906463623046876,0.7252655029296875,-0.1615447998046875
-0.9041748046875,0.5590972900390625,-0.1267547607421875
-0.7942657470703125,0.524078369140625,0.0108489990234375
-0.7403106689453125,0.5862274169921875,0.1029815673828125
-0.701385498046875,0.6130218505859375,0.1423187255859375
-0.7277374267578125,0.5918121337890625,0.122650146484375
-0.944732666015625,0.6255340576171875,0.041168212890625
-1.095306396484375,0.692138671875,-0.0275726318359375
-1.0839385986328125,0.70758056640625,-0.0911865234375
-0.9867706298828124,0.6840972900390625,-0.1351470947265625
-1.0214996337890625,0.8402099609375,-0.093231201171875
-0.9657745361328124,0.8486328125,-0.133544921875
-0.82879638671875,0.7143096923828125,-0.1527862548828125
-0.860137939453125,0.7519073486328125,-0.0672454833984375
-0.883331298828125,0.86376953125,-0.041015625
-0.784576416015625,0.8451690673828125,-0.133056640625
-0.6663970947265625,0.704742431640625,-0.216094970703125
-0.6869659423828125,0.6912689208984375,-0.216705322265625
-0.7018890380859375,0.7762298583984375,-0.177764892578125
-0.65338134765625,0.799957275390625,-0.121002197265625
-0.6110382080078125,0.7761993408203125,-0.0870819091796875
-0.6198272705078125,0.764892578125,-0.0396881103515625
-0.6672210693359375,0.8372802734375,-0.0027008056640625
-0.527099609375,0.75958251953125,-0.018646240234375
-0.5229339599609375,0.6873779296875,0.015594482421875
-0.5575714111328125,0.72064208984375,0.15521240234375
-0.473388671875,0.5558624267578125,0.197723388671875
-0.6361541748046875,0.68719482421875,0.2930755615234375
-0.7718353271484375,0.8860321044921875,0.2214202880859375
-0.7959747314453125,0.84814453125,0.14208984375
-0.772064208984375,0.6858062744140625,0.08636474609375
-0.8052825927734375,0.644927978515625,0.070770263671875
-0.833740234375,0.6822662353515625,0.1019744873046875
-0.860107421875,0.687225341796875,0.0898284912109375
-0.886962890625,0.6706695556640625,0.0464935302734375
-0.9158935546875,0.7015838623046875,0.013824462890625
-0.9611358642578124,0.786163330078125,0.030792236328125
-0.9446563720703124,0.7054443359375,-0.0085601806640625
-0.9681243896484376,0.637451171875,-0.0109100341796875
-1.06903076171875,0.7991485595703125,-0.0070037841796875
-0.917877197265625,0.766357421875,0.0064849853515625
-0.89422607421875,0.7434234619140625,-0.05169677734375
-0.9792633056640624,0.8603668212890625,-0.0613861083984375
-0.932769775390625,0.8741455078125,-0.0264434814453125
-0.8247833251953125,0.7901153564453125,-0.0306396484375
-0.814453125,0.794830322265625,-0.02947998046875
-0.7862548828125,0.862274169921875,0.0135650634765625
-0.6473541259765625,0.834320068359375,0.0570526123046875
-0.538421630859375,0.7712554931640625,0.052154541015625
-0.523162841796875,0.7761993408203125,0.0272216796875
-0.4987030029296875,0.7770233154296875,0.0098114013671875
-0.4590301513671875,0.7777557373046875,0.0693206787109375
-0.3978118896484375,0.6240386962890625,0.09515380859375
-0.5582427978515625,0.68829345703125,0.0672760009765625
-0.6515045166015625,0.8719635009765625,0.1450347900390625
-0.6055908203125,0.7690277099609375,0.0584259033203125
-0.79132080078125,0.79522705078125,0.127410888671875
-0.9580078125,0.9095458984375,0.1113128662109375
-0.9684906005859376,0.865875244140625,0.012969970703125
-0.8524322509765625,0.6505279541015625,0.001708984375
-0.8226776123046875,0.5836181640625,0.0511474609375
-0.8053436279296875,0.6393280029296875,0.07012939453125
-0.763458251953125,0.6893310546875,0.0434417724609375
-0.7327117919921875,0.6362762451171875,0.0211639404296875
-0.79290771484375,0.6528472900390625,0.0297393798828125
-0.926116943359375,0.741363525390625,0.0563201904296875
-0.9388275146484376,0.6937255859375,0.067718505859375
-0.9216766357421876,0.605926513671875,0.0727386474609375
-1.0767822265625,0.8489227294921875,0.05224609375
-0.944305419921875,0.8003997802734375,-0.0168304443359375
-0.8208465576171875,0.62921142578125,-0.0833282470703125
-0.9383392333984376,0.8047332763671875,-0.0763702392578125
-0.9044952392578124,0.9525299072265624,-0.0485687255859375
-0.7584075927734375,0.8793182373046875,-0.1330718994140625
-0.731201171875,0.7933807373046875,-0.183868408203125
-0.767303466796875,0.8177947998046875,-0.122650146484375
-0.7266387939453125,0.8603057861328125,-0.0296173095703125
-0.6343994140625,0.840057373046875,-0.0670623779296875
-0.5825653076171875,0.78216552734375,-0.091217041015625
-0.6101226806640625,0.75634765625,-0.0242919921875
-0.620086669921875,0.7191009521484375,0.0157470703125
-0.6044921875,0.7406768798828125,-0.0163726806640625
-0.48077392578125,0.661041259765625,-0.043365478515625
-0.3942718505859375,0.4908294677734375,0.0288238525390625
-0.4684600830078125,0.514892578125,0.1593780517578125
-0.6509552001953125,0.8043365478515625,0.241119384765625
-0.6439056396484375,0.8773193359375,0.18798828125
-0.7430267333984375,0.7821197509765625,0.225189208984375
-0.839996337890625,0.697235107421875,0.2956390380859375
-0.8455352783203125,0.738006591796875,0.3126373291015625
-0.75439453125,0.779693603515625,0.253387451171875
-0.7852630615234375,0.754150390625,0.1548919677734375
-0.88079833984375,0.775665283203125,0.167144775390625
-0.88629150390625,0.721435546875,0.1896209716796875
-0.884765625,0.6522674560546875,0.2001190185546875
-0.8786468505859375,0.67681884765625,0.0389251708984375
-0.7711944580078125,0.686676025390625,-0.123779296875
-0.736328125,0.752716064453125,-0.2369232177734375
-0.6718902587890625,0.75537109375,-0.2837677001953125
-0.698699951171875,0.668975830078125,-0.31549072265625
-0.883270263671875,0.710235595703125,-0.3433380126953125
-0.912200927734375,0.75140380859375,-0.3345794677734375
-0.8699798583984375,0.797821044921875,-0.1857452392578125
-0.840667724609375,0.6588134765625,-0.296234130859375
-0.953094482421875,0.706695556640625,-0.3153076171875
-0.973541259765625,0.7738800048828125,-0.1836090087890625
-0.948150634765625,0.84527587890625,-0.1212005615234375
-0.8859100341796875,0.8721771240234375,-0.2033843994140625
-0.81048583984375,0.8615570068359375,-0.2501678466796875
-0.7194061279296875,0.8318023681640625,-0.266021728515625
-0.705474853515625,0.9193878173828124,-0.198486328125
-0.5817413330078125,0.9139862060546876,-0.2116546630859375
-0.582916259765625,0.9242401123046876,-0.33953857421875
-0.448455810546875,0.830780029296875,-0.0894775390625
-0.2628936767578125,0.8249053955078125,0.3289031982421875
-0.28851318359375,0.85272216796875,0.3930816650390625
-0.499420166015625,0.8436737060546875,0.2261810302734375
-0.636199951171875,0.7972259521484375,0.249359130859375
-0.695831298828125,0.718414306640625,0.27508544921875
-0.7699737548828125,0.7024383544921875,0.1650848388671875
-0.7891845703125,0.6952362060546875,0.0463409423828125
-0.7867279052734375,0.68212890625,0.09771728515625
-0.8092193603515625,0.686767578125,0.18768310546875
-0.9139404296875,0.708953857421875,0.1968994140625
-0.9694671630859376,0.6972503662109375,0.155853271484375
-0.973297119140625,0.6823272705078125,0.0810394287109375
-0.9501495361328124,0.6360321044921875,0.007904052734375
-1.006378173828125,0.677734375,-0.0418548583984375
-1.0546112060546875,0.7911224365234375,-0.034423828125
-0.963470458984375,0.6814727783203125,-0.0053863525390625
-1.0361480712890625,0.78448486328125,0.02484130859375
-1.0384521484375,0.9219512939453124,0.013214111328125
-0.92413330078125,0.9362030029296876,-0.042694091796875
-0.837127685546875,0.87579345703125,-0.116851806640625
-0.8090362548828125,0.876678466796875,-0.1207427978515625
-0.6987457275390625,0.8701171875,-0.0708770751953125
-0.529998779296875,0.7919769287109375,-0.036102294921875
-0.428192138671875,0.6506805419921875,-0.036407470703125
-0.4723663330078125,0.68621826171875,-0.005828857421875
-0.4979705810546875,0.824188232421875,0.069580078125
-0.439666748046875,0.8141632080078125,0.0559234619140625
-0.532379150390625,0.7117919921875,0.0417022705078125
-0.72174072265625,0.8130340576171875,0.1680755615234375
-0.6181793212890625,0.7887725830078125,0.180999755859375
-0.5534820556640625,0.6620941162109375,0.04833984375
-0.75543212890625,0.83984375,0.0733795166015625
-0.84613037109375,0.8974609375,0.068572998046875
-0.814239501953125,0.77703857421875,0.00634765625
-0.787933349609375,0.6480560302734375,-0.0194549560546875
-0.803863525390625,0.633544921875,-0.01690673828125
-0.768310546875,0.6498870849609375,0.038787841796875
-0.7459716796875,0.6452178955078125,0.070831298828125
-0.8197021484375,0.700927734375,0.033721923828125
-0.9148406982421876,0.7932281494140625,0.0520172119140625
-0.9613189697265624,0.844268798828125,0.04827880859375
-0.8927001953125,0.6576080322265625,-0.0602264404296875
-1.024627685546875,0.72998046875,-0.0738525390625
-1.02880859375,0.820159912109375,0.0086822509765625
-0.8962554931640625,0.7021636962890625,0.0368194580078125
-0.9903106689453124,0.8265380859375,0.025970458984375
-0.9514617919921876,0.9311370849609376,0.033905029296875
-0.8475189208984375,0.9306488037109376,0.0045928955078125
-0.77484130859375,0.8809967041015625,-0.0153656005859375
-0.7133331298828125,0.8383331298828125,0.002105712890625
-0.62396240234375,0.8035888671875,0.0723419189453125
-0.5054168701171875,0.7349853515625,0.1174774169921875
-0.4218597412109375,0.671722412109375,0.1174774169921875
-0.4435882568359375,0.6975250244140625,0.083343505859375
-0.4654083251953125,0.7645111083984375,0.0671844482421875
-0.4360198974609375,0.7221832275390625,0.054046630859375
-0.52691650390625,0.649810791015625,0.052215576171875
-0.7285003662109375,0.9236297607421876,0.1220855712890625
-0.638519287109375,0.862152099609375,-0.07769775390625
-0.700836181640625,0.7284393310546875,-0.06121826171875
-0.8457489013671875,0.778961181640625,0.0571136474609375
-0.9552459716796876,0.852783203125,0.072784423828125
-0.8862762451171875,0.7181243896484375,0.0450439453125
-0.840484619140625,0.567291259765625,0.0650787353515625
-0.842010498046875,0.5379791259765625,0.0595245361328125
-0.8491058349609375,0.53106689453125,0.0889434814453125
-0.7850189208984375,0.5582275390625,0.1721649169921875
-0.8227691650390625,0.67547607421875,0.055816650390625
-0.9544830322265624,0.7845306396484375,-0.09808349609375
-1.1078948974609375,0.8050537109375,-0.124725341796875
-1.028411865234375,0.69952392578125,0.0790557861328125
-0.9169921875,0.5874786376953125,0.1399383544921875
-1.02923583984375,0.7429656982421875,0.0557098388671875
-1.02850341796875,0.8914947509765625,0.0862884521484375
-0.859344482421875,0.7124481201171875,-0.019012451171875
-0.9082489013671876,0.827545166015625,-0.1192626953125
-0.8311309814453125,0.8798370361328125,-0.1311187744140625
-0.7002105712890625,0.8321685791015625,-0.035980224609375
-0.60687255859375,0.7237396240234375,-0.01885986328125
-0.5740966796875,0.686004638671875,-0.0314788818359375
-0.4866943359375,0.611236572265625,-0.0045928955078125
-0.4184722900390625,0.5571136474609375,0.042022705078125
-0.414398193359375,0.5904693603515625,0.0779266357421875
-0.4516448974609375,0.6576995849609375,0.1339569091796875
-0.5167236328125,0.7449188232421875,0.1394195556640625
-0.6138458251953125,0.8299560546875,0.0903167724609375
-0.6457672119140625,0.773468017578125,0.113494873046875
-0.7823638916015625,0.904144287109375,0.1180877685546875
-0.80303955078125,1.00665283203125,0.0286102294921875
-0.7053070068359375,0.729278564453125,-0.0623931884765625
-0.872039794921875,0.8092498779296875,-0.025054931640625
-0.938690185546875,0.8383331298828125,-0.003173828125
-0.855621337890625,0.6607818603515625,0.05059814453125
-0.80401611328125,0.50604248046875,0.0351715087890625
-0.8123626708984375,0.5469818115234375,0.0908050537109375
-0.7571258544921875,0.639190673828125,0.086395263671875
-0.6774139404296875,0.692901611328125,0.110687255859375
-0.6047515869140625,0.67523193359375,0.023834228515625
-0.7135772705078125,0.7534942626953125,-0.05438232421875
-0.7881622314453125,0.828643798828125,-0.0169830322265625
-0.748321533203125,0.7604827880859375,-0.041839599609375
-0.74176025390625,0.6735687255859375,-0.038726806640625
-0.8713531494140625,0.8342742919921875,-0.0056610107421875
-0.9416351318359376,1.01275634765625,-0.058746337890625
-0.7960662841796875,0.7657928466796875,-0.174835205078125
-0.908935546875,0.802520751953125,-0.105560302734375
-0.87725830078125,0.86865234375,0.0003814697265625
-0.7624664306640625,0.8345489501953125,0.0135498046875
-0.7026519775390625,0.7519378662109375,-0.0301971435546875
-0.727325439453125,0.757171630859375,-0.0384979248046875
-0.640533447265625,0.7640380859375,0.033477783203125
-0.527191162109375,0.7107086181640625,0.0578460693359375
-0.48602294921875,0.7065277099609375,0.0624847412109375
-0.49578857421875,0.7480010986328125,0.0059051513671875
-0.4911956787109375,0.8043060302734375,0.0197601318359375
-0.4398345947265625,0.794219970703125,0.03387451171875
-0.53680419921875,0.7514495849609375,0.03118896484375
-0.6875,0.8392333984375,0.1371307373046875
-0.6062469482421875,0.6759033203125,0.024932861328125
-0.7468719482421875,0.7458648681640625,0.083587646484375
-0.8574371337890625,0.9407196044921876,0.1069488525390625
-0.82403564453125,0.8678741455078125,0.0032958984375
-0.726104736328125,0.617218017578125,-0.0220947265625
-0.719268798828125,0.535430908203125,-0.0008392333984375
-0.6981201171875,0.635345458984375,0.090362548828125
-0.641754150390625,0.67010498046875,0.0731658935546875
-0.684783935546875,0.6524200439453125,0.045684814453125
-0.8498382568359375,0.7761077880859375,0.0278472900390625
-0.97320556640625,0.8688201904296875,0.0021514892578125
-1.01287841796875,0.796234130859375,-0.029937744140625
-0.9665679931640624,0.6410064697265625,0.006072998046875
-1.0521392822265625,0.7815704345703125,0.0892791748046875
-0.9584503173828124,0.8624267578125,0.067047119140625
-0.8156585693359375,0.7270050048828125,-0.0629119873046875
-0.874267578125,0.7665557861328125,-0.0943450927734375
-0.8939056396484375,0.90765380859375,-0.0081024169921875
-0.812347412109375,0.952117919921875,-0.0070648193359375
-0.7520904541015625,0.845001220703125,-0.1091766357421875
-0.7297821044921875,0.821990966796875,-0.095123291015625
-0.6505279541015625,0.8209381103515625,-0.044158935546875
-0.5373077392578125,0.806243896484375,-0.0132293701171875
-0.40234375,0.720550537109375,-0.0089111328125
-0.458404541015625,0.7457122802734375,0.0373992919921875
-0.482940673828125,0.81378173828125,0.0795745849609375
-0.4162445068359375,0.7629241943359375,0.0546875
-0.5246429443359375,0.7144622802734375,-0.0255126953125
-0.6301116943359375,0.8948822021484375,0.0445556640625
-0.5224151611328125,0.788116455078125,-0.0631256103515625
-0.700653076171875,0.783233642578125,0.022430419921875
-0.8424224853515625,0.891571044921875,0.1585540771484375
-0.90283203125,0.8539581298828125,0.108123779296875
-0.9075927734375,0.6478729248046875,0.0023956298828125
-0.9583892822265624,0.5357818603515625,-0.004913330078125
-0.9599609375,0.5214691162109375,0.047149658203125
-0.8855438232421875,0.541046142578125,0.134246826171875
-0.8497161865234375,0.562957763671875,0.10101318359375
-0.9167327880859376,0.7003326416015625,0.0460357666015625
-1.0110931396484375,0.8161468505859375,-0.0245513916015625
-1.022003173828125,0.8338623046875,-0.06781005859375
-0.9305419921875,0.753204345703125,0.0301361083984375
-0.9779052734375,0.89898681640625,0.1727142333984375
-0.9005126953125,0.93304443359375,0.1663665771484375
-0.7290191650390625,0.6259307861328125,0.0569610595703125
-0.9447021484375,0.7795867919921875,0.039215087890625
-0.95501708984375,0.9477386474609376,0.1061248779296875
-0.7717132568359375,0.8657073974609375,0.018402099609375
-0.6607666015625,0.7399139404296875,-0.087249755859375
-0.571533203125,0.6724395751953125,-0.0707244873046875
-0.429534912109375,0.5675506591796875,0.016632080078125
-0.3377838134765625,0.4815521240234375,0.0794830322265625
-0.3180084228515625,0.4521484375,0.15570068359375
-0.3734893798828125,0.5618133544921875,0.1792449951171875
-0.5214080810546875,0.7532958984375,0.0451812744140625
-0.72967529296875,0.9643707275390624,-0.0720977783203125
-0.9163970947265624,1.0501708984375,-0.111602783203125
-1.1008148193359375,1.1256561279296875,-0.1349639892578125
-1.0723419189453125,1.0201873779296875,-0.1967620849609375
-0.8863983154296875,0.6706695556640625,-0.260528564453125
-1.1012420654296875,0.820404052734375,-0.1524200439453125
-0.9816436767578124,0.7441253662109375,-0.0384368896484375
-0.8134918212890625,0.5689697265625,-0.0014801025390625
-0.754669189453125,0.4896240234375,-0.0040130615234375
-0.671600341796875,0.535552978515625,0.04742431640625
-0.6044921875,0.607635498046875,0.0447998046875
-0.587310791015625,0.5929107666015625,0.001434326171875
-0.70025634765625,0.645111083984375,0.057403564453125
-0.8423004150390625,0.753082275390625,0.1654510498046875
-0.9266204833984376,0.81597900390625,0.2050323486328125
-0.9297943115234376,0.788177490234375,0.0644073486328125
-0.9241180419921876,0.800567626953125,-0.023773193359375
-1.0080413818359375,0.9529571533203124,-0.059234619140625
-0.89544677734375,0.758819580078125,-0.0955657958984375
-0.9133453369140624,0.705291748046875,-0.07269287109375
-0.9629058837890624,0.87890625,0.000213623046875
-0.9075164794921876,1.0243682861328125,0.024688720703125
-0.7500152587890625,0.9417724609375,-0.0528564453125
-0.669189453125,0.84320068359375,-0.1167144775390625
-0.6425323486328125,0.813446044921875,-0.1248321533203125
-0.5498809814453125,0.7488250732421875,-0.065948486328125
-0.5028533935546875,0.6800689697265625,0.02825927734375
-0.47772216796875,0.6660919189453125,0.0972442626953125
-0.483612060546875,0.7261962890625,0.064727783203125
-0.42864990234375,0.7717437744140625,0.0325927734375
-0.350921630859375,0.6789703369140625,-0.037628173828125
-0.5710296630859375,0.8486328125,0.0916290283203125
-0.593597412109375,0.8826141357421875,0.16961669921875
-0.5998077392578125,0.7625274658203125,0.0592193603515625
-0.8129119873046875,0.9507904052734376,0.105560302734375
-0.91900634765625,1.0760345458984375,0.041046142578125
-0.8600006103515625,0.9066314697265624,-0.0144500732421875
-0.7801361083984375,0.6555328369140625,0.0210113525390625
-0.808990478515625,0.6320648193359375,0.1014251708984375
-0.7496795654296875,0.6848297119140625,0.1646881103515625
-0.6845703125,0.713592529296875,0.08935546875
-0.7095947265625,0.7376251220703125,-0.0703125
-0.831268310546875,0.8010711669921875,-0.1317291259765625
-0.9594879150390624,0.850555419921875,-0.0475921630859375
-1.0216064453125,0.7252197265625,-0.0314178466796875
-1.1013946533203125,0.726348876953125,0.0286712646484375
-1.0802764892578125,0.8568115234375,0.0851287841796875
-0.9254150390625,0.9207000732421876,0.0169525146484375
-0.781494140625,0.8620452880859375,-0.087677001953125
-0.764129638671875,0.8048553466796875,-0.14398193359375
-0.8352508544921875,0.9911651611328124,-0.0379791259765625
-0.7863006591796875,1.0787353515625,-0.0924072265625
-0.6529541015625,0.97503662109375,-0.18670654296875
-0.623443603515625,0.8385467529296875,-0.2630462646484375
-0.6429290771484375,0.809326171875,-0.152435302734375
-0.5814666748046875,0.75054931640625,-0.0521087646484375
-0.559356689453125,0.7413330078125,-0.004913330078125
-0.4954681396484375,0.718292236328125,0.046783447265625
-0.484710693359375,0.702178955078125,0.030029296875
-0.6226043701171875,0.8404998779296875,0.008880615234375
-0.623779296875,0.97552490234375,0.01153564453125
-0.3035430908203125,0.528900146484375,0.016815185546875
-0.52777099609375,0.3819427490234375,0.2564239501953125
-0.8545074462890625,0.6168365478515625,0.405792236328125
-0.8280181884765625,0.916839599609375,0.3288116455078125
-0.9051513671875,0.7968902587890625,0.2564544677734375
-1.0655364990234375,0.5447998046875,0.4075469970703125
-1.0318756103515625,0.5404510498046875,0.300384521484375
-0.90203857421875,0.5019073486328125,0.0024566650390625
-0.847198486328125,0.48748779296875,0.057403564453125
-0.8685302734375,0.4368133544921875,0.2017974853515625
-0.8952789306640625,0.42144775390625,0.1796112060546875
-0.863555908203125,0.4756011962890625,0.10125732421875
-0.866790771484375,0.604949951171875,-0.07122802734375
-0.8243865966796875,0.763397216796875,-0.1100006103515625
-0.8292236328125,0.9429168701171876,0.1053924560546875
-0.6688995361328125,0.8858489990234375,0.1332244873046875
-0.6396484375,0.8441162109375,0.031982421875
-0.6694488525390625,0.83990478515625,-0.121673583984375
-0.561767578125,0.72894287109375,-0.173248291015625
-0.50128173828125,0.67431640625,-0.21636962890625
-0.52099609375,0.7442779541015625,-0.2513427734375
-0.5958099365234375,0.7555694580078125,-0.329620361328125
-0.79937744140625,0.81475830078125,-0.3941497802734375
-0.9002838134765625,0.8070220947265625,-0.471832275390625
-0.897247314453125,0.7961273193359375,-0.3681488037109375
-0.88153076171875,0.8447723388671875,-0.2147979736328125
-0.919647216796875,0.962066650390625,-0.1932525634765625
-0.835113525390625,0.9693603515625,-0.248748779296875
-0.7744598388671875,0.9698333740234376,-0.287445068359375
-0.731597900390625,0.957122802734375,-0.2451934814453125
-0.6775054931640625,0.9732208251953124,-0.156219482421875
-0.568328857421875,0.9168548583984376,-0.1109771728515625
-0.48968505859375,0.8112640380859375,-0.13897705078125
-0.5129852294921875,0.82415771484375,-0.1345367431640625
-0.45770263671875,0.7750396728515625,-0.0859375
-0.3297576904296875,0.632232666015625,0.0125732421875
-0.4625396728515625,0.6942596435546875,0.126129150390625
-0.4662017822265625,0.7462615966796875,0.2966766357421875
-0.4902496337890625,0.732269287109375,0.3076171875
-0.6498565673828125,0.8729095458984375,0.1775665283203125
-0.6947174072265625,0.805938720703125,0.0338287353515625
-0.68060302734375,0.7435302734375,0.11566162109375
-0.7023162841796875,0.7545166015625,0.229217529296875
-0.7335205078125,0.7931671142578125,0.3116912841796875
-0.788970947265625,0.793304443359375,0.30047607421875
-0.7757720947265625,0.704833984375,0.2180938720703125
-0.809783935546875,0.6809844970703125,0.1242523193359375
-0.8434295654296875,0.676666259765625,0.0943603515625
-0.9189453125,0.7221832275390625,0.1154327392578125
-0.9329681396484376,0.7598114013671875,0.0799560546875
-0.861480712890625,0.76788330078125,0.01666259765625
-0.886199951171875,0.9114227294921876,0.0062713623046875
-0.823333740234375,0.878326416015625,-0.0175628662109375
-0.709442138671875,0.6005706787109375,-0.017822265625
-0.8762359619140625,0.753509521484375,0.064788818359375
-0.9115753173828124,0.9388275146484376,0.107696533203125
-0.8106689453125,0.895294189453125,0.033416748046875
-0.812225341796875,0.843475341796875,-0.073333740234375
-0.8015594482421875,0.845672607421875,-0.073211669921875
-0.7279815673828125,0.8497314453125,-0.0379791259765625
-0.616180419921875,0.8351898193359375,0.0095367431640625
-0.494049072265625,0.7991485595703125,0.011444091796875
-0.419464111328125,0.77813720703125,-0.021453857421875
-0.41436767578125,0.7811737060546875,-0.035675048828125
-0.3566741943359375,0.7852935791015625,-0.013580322265625
-0.4004669189453125,0.749969482421875,-0.009124755859375
-0.598419189453125,0.8921966552734375,0.1886138916015625
-0.608795166015625,0.8520965576171875,0.278472900390625
-0.6513824462890625,0.71038818359375,0.175079345703125
-0.824310302734375,0.836517333984375,0.166290283203125
-0.8753662109375,0.9102630615234376,0.0902099609375
-0.8096160888671875,0.7535247802734375,0.005615234375
-0.7822113037109375,0.6503753662109375,-0.0060577392578125
-0.7725982666015625,0.6943206787109375,0.0227203369140625
-0.7403411865234375,0.6915283203125,0.05755615234375
-0.79705810546875,0.66949462890625,0.0292816162109375
-0.89508056640625,0.6721649169921875,0.0355682373046875
-1.0085296630859375,0.7065277099609375,0.0677642822265625
-1.0811614990234375,0.7210693359375,0.0584716796875
-0.985992431640625,0.6987152099609375,0.0088958740234375
-0.959320068359375,0.78997802734375,-0.0313568115234375
-0.9679107666015624,0.9372100830078124,-0.058349609375
-0.8018646240234375,0.8223419189453125,-0.144287109375
-0.7861328125,0.7371826171875,-0.220611572265625
-0.8667144775390625,0.8774871826171875,-0.116851806640625
-0.7744140625,0.938690185546875,-0.022186279296875
-0.6555023193359375,0.8189697265625,-0.04052734375
-0.656982421875,0.7784271240234375,0.0207061767578125
-0.6344451904296875,0.730133056640625,0.044097900390625
-0.574798583984375,0.6777496337890625,0.0450286865234375
-0.5042266845703125,0.6486663818359375,0.0762176513671875
-0.520721435546875,0.72760009765625,0.096649169921875
-0.523406982421875,0.800262451171875,0.04620361328125
-0.5040130615234375,0.8485870361328125,0.0366668701171875
-0.4968109130859375,0.7356109619140625,0.0255584716796875
-0.6685943603515625,0.8754730224609375,0.162811279296875
-0.5620269775390625,0.709320068359375,0.0455169677734375
-0.6587371826171875,0.7026519775390625,0.024017333984375
-0.85968017578125,0.9112701416015624,0.103912353515625
-0.90533447265625,0.869049072265625,0.011383056640625
-0.9034576416015624,0.682708740234375,-0.0278167724609375
-0.9369964599609376,0.6253662109375,-0.0072021484375
-0.859039306640625,0.65704345703125,0.050140380859375
-0.7155303955078125,0.6550140380859375,0.080169677734375
-0.6949920654296875,0.594757080078125,0.0067138671875
-0.8189544677734375,0.7046051025390625,0.0712432861328125
-0.904693603515625,0.82550048828125,0.1336212158203125
-0.9658355712890624,0.7693939208984375,0.1361846923828125
-1.0438385009765625,0.6221771240234375,0.167449951171875
-1.14752197265625,0.67877197265625,0.0420379638671875
-1.0529022216796875,0.9132843017578124,-0.09051513671875
-0.8025665283203125,0.8284912109375,-0.1845550537109375
-0.7776641845703125,0.81353759765625,-0.2237701416015625
-0.7996673583984375,0.9035797119140624,-0.2393798828125
-0.7312774658203125,0.90557861328125,-0.28009033203125
-0.650146484375,0.8426513671875,-0.226409912109375
-0.6470184326171875,0.7456207275390625,-0.18048095703125
-0.65899658203125,0.777740478515625,-0.152862548828125
-0.5843505859375,0.7521209716796875,-0.17315673828125
-0.550384521484375,0.7313232421875,-0.1504974365234375
-0.538818359375,0.7497406005859375,-0.027374267578125
-0.578948974609375,0.819610595703125,0.035186767578125
-0.5225982666015625,0.9324188232421876,0.092041015625
-0.34771728515625,0.764373779296875,0.0265655517578125
-0.5338897705078125,0.835479736328125,0.0367431640625
-0.5438079833984375,0.735992431640625,0.180145263671875
-0.58416748046875,0.6484375,0.0194091796875
-0.7621002197265625,0.951263427734375,0.0723724365234375
-0.6280975341796875,0.8690032958984375,0.10723876953125
-0.5931549072265625,0.7339019775390625,-0.0070953369140625
-0.6452484130859375,0.72412109375,-0.0782623291015625
-0.6517181396484375,0.7565155029296875,-0.0522613525390625
-0.7014923095703125,0.794586181640625,-0.03289794921875
-0.78619384765625,0.7786102294921875,-0.033294677734375
-0.916229248046875,0.810089111328125,-0.009735107421875
-1.0345611572265625,0.881072998046875,0.0167694091796875
-1.05316162109375,0.859130859375,-0.0040740966796875
-0.9639739990234376,0.763519287109375,-0.0164947509765625
-0.9372711181640624,0.761993408203125,0.0705718994140625
-1.0056304931640625,0.9966888427734376,0.0338134765625
-0.847320556640625,0.823150634765625,-0.1175537109375
-0.8878326416015625,0.74072265625,-0.2334442138671875
-0.9443359375,0.893341064453125,-0.2162017822265625
-0.908477783203125,1.056793212890625,-0.0543975830078125
-0.82232666015625,1.0967864990234375,-0.037353515625
-0.7219390869140625,1.0037841796875,-0.1574249267578125
-0.643157958984375,0.9515228271484376,-0.2774658203125
-0.5383148193359375,0.817352294921875,-0.2611236572265625
-0.492431640625,0.75799560546875,-0.061187744140625
-0.4509735107421875,0.729583740234375,0.000640869140625
-0.440093994140625,0.814605712890625,-0.00909423828125
-0.334381103515625,0.7581634521484375,-0.0282440185546875
-0.3334808349609375,0.6092071533203125,0.003662109375
-0.5885772705078125,0.81964111328125,0.1069793701171875
-0.511810302734375,0.8100738525390625,0.096710205078125
-0.59185791015625,0.722137451171875,0.012969970703125
-0.8157806396484375,0.8960418701171875,0.0824432373046875
-0.9480743408203124,1.0238037109375,0.031463623046875
-0.9347991943359376,0.8009490966796875,0.00250244140625
-0.8973846435546875,0.6398162841796875,0.0579681396484375
-0.8615264892578125,0.6725921630859375,0.1243133544921875
-0.800262451171875,0.725982666015625,0.1244354248046875
-0.7278594970703125,0.6940155029296875,0.0627288818359375
-0.77410888671875,0.690460205078125,-0.0418548583984375
-0.9139556884765624,0.792144775390625,-0.0503082275390625
-0.9930877685546876,0.779937744140625,-0.0205078125
-0.985015869140625,0.669189453125,-0.0553741455078125
-1.040740966796875,0.760650634765625,-0.0617828369140625
-1.0002593994140625,0.9197540283203124,-0.068328857421875
-0.808563232421875,0.780181884765625,-0.11328125
-0.92156982421875,0.838104248046875,-0.1295013427734375
-0.9398956298828124,0.9067230224609376,-0.03741455078125
-0.8972625732421875,0.9578399658203124,-0.01654052734375
-0.809051513671875,0.9045257568359376,-0.0556488037109375
-0.7471771240234375,0.9090576171875,-0.010711669921875
-0.6667633056640625,0.9123077392578124,0.0278167724609375
-0.538330078125,0.823028564453125,0.037933349609375
-0.4554290771484375,0.7289581298828125,0.0490570068359375
-0.4435577392578125,0.7367706298828125,0.0654449462890625
-0.4005889892578125,0.7141265869140625,0.06536865234375
-0.36962890625,0.7419586181640625,0.0602874755859375
-0.3663330078125,0.67108154296875,-0.0165557861328125
-0.5709075927734375,0.898590087890625,0.0194244384765625
-0.5518951416015625,0.8847503662109375,-0.0389556884765625
-0.6116485595703125,0.7781829833984375,-0.10736083984375
-0.884368896484375,0.9416046142578124,-0.0025787353515625
-0.9769439697265624,0.9823455810546876,0.0550537109375
-0.9067535400390624,0.800323486328125,-0.032867431640625
-0.8858795166015625,0.653076171875,-0.008087158203125
-0.903106689453125,0.6431732177734375,0.0213470458984375
-0.82318115234375,0.6850128173828125,0.0681915283203125
-0.738494873046875,0.6764068603515625,0.0599365234375
-0.721343994140625,0.697723388671875,0.04046630859375
-0.803131103515625,0.7684783935546875,-0.012115478515625
-0.8984832763671875,0.792144775390625,-0.0204315185546875
-0.9333648681640624,0.68218994140625,0.022857666015625
-0.9704132080078124,0.6082763671875,0.037841796875
-1.012176513671875,0.7969970703125,0.021575927734375
-0.9464111328125,0.91326904296875,-0.061737060546875
-0.9094085693359376,0.8646087646484375,-0.16485595703125
-0.9339141845703124,0.857879638671875,-0.21026611328125
-0.8938140869140625,0.8740081787109375,-0.1922607421875
-0.74652099609375,0.7913970947265625,-0.11865234375
-0.6822662353515625,0.6862335205078125,-0.11865234375
-0.6862640380859375,0.706634521484375,-0.1390838623046875
-0.6624908447265625,0.7548370361328125,-0.1674041748046875
-0.701934814453125,0.820892333984375,-0.2020721435546875
-0.7388153076171875,0.8983917236328125,-0.1902313232421875
-0.721527099609375,0.9463958740234376,-0.2148284912109375
-0.663421630859375,0.9532928466796876,-0.2103271484375
-0.5028076171875,0.8148956298828125,-0.12158203125
-0.5096588134765625,0.8124237060546875,-0.0234832763671875
-0.4019775390625,0.73370361328125,0.0404815673828125
-0.3323822021484375,0.5975189208984375,0.0254974365234375
-0.4601593017578125,0.6827392578125,0.1983489990234375
-0.6331024169921875,0.8396453857421875,0.2849578857421875
-0.7278900146484375,0.902557373046875,0.145263671875
-0.6873016357421875,0.8404693603515625,0.1107635498046875
-0.69354248046875,0.8185577392578125,0.2451019287109375
-0.738525390625,0.8240814208984375,0.31622314453125
-0.7689361572265625,0.8142852783203125,0.2947998046875
-0.7761688232421875,0.7862091064453125,0.240447998046875
-0.833892822265625,0.8177642822265625,0.1669464111328125
-0.9155426025390624,0.8689117431640625,0.115081787109375
-0.9492950439453124,0.800811767578125,0.10003662109375
-1.01898193359375,0.7282867431640625,0.083740234375
-1.1282196044921875,0.8967437744140625,0.0903167724609375
-0.914276123046875,0.859100341796875,0.081512451171875
-0.8710479736328125,0.8455657958984375,0.022918701171875
-0.9542388916015624,0.975372314453125,-0.0680999755859375
-0.921051025390625,1.0540771484375,-0.0385589599609375
-0.824981689453125,0.9996185302734376,-0.079376220703125
-0.7649383544921875,1.002471923828125,-0.0962677001953125
-0.6728973388671875,1.0048828125,-0.1014251708984375
-0.54754638671875,0.967010498046875,-0.0557708740234375
-0.446044921875,0.85186767578125,-0.0452117919921875
-0.4331207275390625,0.7799072265625,0.029449462890625
-0.3924102783203125,0.7505645751953125,0.0673370361328125
-0.328125,0.7468414306640625,0.0549163818359375
-0.2324371337890625,0.65496826171875,0.0324554443359375
-0.40386962890625,0.835693359375,0.0926513671875
-0.42462158203125,0.8673248291015625,0.029510498046875
-0.601715087890625,0.87078857421875,0.072235107421875
-0.807281494140625,0.9771575927734376,0.211761474609375
-0.9507293701171876,1.091156005859375,0.1904144287109375
-0.91314697265625,0.9241790771484376,0.0700836181640625
-0.85888671875,0.78656005859375,0.09014892578125
-0.829010009765625,0.7251434326171875,0.087646484375
-0.79876708984375,0.734832763671875,0.115234375
-0.718719482421875,0.7087554931640625,0.1529388427734375
-0.7521514892578125,0.730560302734375,0.138763427734375
-0.857147216796875,0.8133544921875,0.080902099609375
-0.939453125,0.827056884765625,0.0245361328125
-0.984405517578125,0.7525177001953125,0.028045654296875
-1.03729248046875,0.779541015625,0.123565673828125
-0.9953765869140624,0.882659912109375,0.16680908203125
-0.897491455078125,0.8463134765625,0.0329742431640625
-0.8086700439453125,0.745330810546875,-0.0913848876953125
-0.8260345458984375,0.8097991943359375,-0.08599853515625
-0.8511962890625,0.9735260009765624,-0.024566650390625
-0.7404327392578125,0.999664306640625,-0.092926025390625
-0.5992889404296875,0.8433990478515625,-0.2144012451171875
-0.5938568115234375,0.735992431640625,-0.2385711669921875
-0.6222381591796875,0.7924346923828125,-0.1769866943359375
-0.5612945556640625,0.7792816162109375,-0.118072509765625
-0.5687713623046875,0.757904052734375,-0.113189697265625
-0.608917236328125,0.740692138671875,-0.0742340087890625
-0.6695098876953125,0.739288330078125,-0.0463714599609375
-0.6786041259765625,0.7722015380859375,0.0495758056640625
-0.5195770263671875,0.6572418212890625,0.0495147705078125
-0.387603759765625,0.4758758544921875,0.044464111328125
-0.549041748046875,0.6896514892578125,0.17333984375
-0.6597900390625,0.9362335205078124,0.17816162109375
-0.669189453125,0.8631591796875,0.16461181640625
-0.7862091064453125,0.7536773681640625,0.30462646484375
-0.8335723876953125,0.710662841796875,0.439727783203125
-0.81585693359375,0.7500457763671875,0.4374847412109375
-0.805816650390625,0.7475128173828125,0.2693023681640625
-0.8369293212890625,0.71826171875,0.1593017578125
-0.831329345703125,0.670013427734375,0.1566162109375
-0.7828369140625,0.6410064697265625,0.1495513916015625
-0.77447509765625,0.7067413330078125,0.119903564453125
-0.8231201171875,0.7633056640625,0.0316925048828125
-0.83306884765625,0.6758880615234375,-0.1113739013671875
-0.8263092041015625,0.625885009765625,-0.1926116943359375
-0.892425537109375,0.6571197509765625,-0.2519378662109375
-0.9690093994140624,0.7039642333984375,-0.4674072265625
-1.0055999755859375,0.70111083984375,-0.5530853271484375
-1.007965087890625,0.70330810546875,-0.396270751953125
-1.0132293701171875,0.7456207275390625,-0.26397705078125
-0.9426422119140624,0.791778564453125,-0.2438201904296875
-0.91204833984375,0.884674072265625,-0.3025360107421875
-0.8646087646484375,0.929718017578125,-0.3899688720703125
-0.785980224609375,0.9273681640625,-0.378997802734375
-0.6708831787109375,0.8251953125,-0.2646942138671875
-0.5960235595703125,0.7881011962890625,-0.09906005859375
-0.59979248046875,0.8477020263671875,-0.026763916015625
-0.436126708984375,0.719451904296875,-0.0611419677734375
-0.442138671875,0.702484130859375,0.05047607421875
-0.4579315185546875,0.625396728515625,0.185943603515625
-0.5868682861328125,0.810882568359375,0.19720458984375
-0.57147216796875,0.8913421630859375,0.1761932373046875
-0.568603515625,0.8208160400390625,0.28277587890625
-0.6504058837890625,0.7628631591796875,0.3340606689453125
-0.7074737548828125,0.7436065673828125,0.269683837890625
-0.723419189453125,0.7725677490234375,0.2042236328125
-0.7933349609375,0.812744140625,0.1573638916015625
-0.833526611328125,0.780487060546875,0.1306304931640625
-0.91058349609375,0.784393310546875,0.1448516845703125
-0.988616943359375,0.7668304443359375,0.1083984375
-0.9693603515625,0.6853179931640625,0.0361175537109375
-0.96429443359375,0.6428375244140625,-0.0040283203125
-1.0574951171875,0.7853851318359375,-0.0467987060546875
-0.91094970703125,0.6586456298828125,-0.032806396484375
-0.8451080322265625,0.5777435302734375,0.0479583740234375
-0.89105224609375,0.7017059326171875,0.0416717529296875
-0.9298095703125,0.849853515625,0.016387939453125
-0.893768310546875,0.8543701171875,-0.0658111572265625
-0.8692169189453125,0.8510589599609375,-0.0988616943359375
-0.8369903564453125,0.9029541015625,-0.0674896240234375
-0.7012176513671875,0.90911865234375,-0.032196044921875
-0.589263916015625,0.8718719482421875,-0.028350830078125
-0.5393829345703125,0.852386474609375,-0.02581787109375
-0.5442657470703125,0.828826904296875,-0.0489044189453125
-0.5448455810546875,0.9122772216796876,0.0220947265625
-0.4137420654296875,0.7725830078125,0.0328826904296875
-0.5449676513671875,0.8160247802734375,0.080322265625
-0.50738525390625,0.77484130859375,0.1012115478515625
-0.474212646484375,0.678558349609375,0.0247650146484375
-0.6140899658203125,0.75750732421875,0.0758514404296875
-0.7165374755859375,0.888885498046875,0.1087646484375
-0.7403564453125,0.852325439453125,0.081878662109375
-0.6895751953125,0.6972198486328125,0.0353240966796875
-0.716064453125,0.688201904296875,0.021514892578125
-0.72052001953125,0.7193145751953125,0.00274658203125
-0.7059326171875,0.743682861328125,-0.02532958984375
-0.7698822021484375,0.7173614501953125,0.0004425048828125
-0.8314056396484375,0.730804443359375,0.038299560546875
-0.91937255859375,0.81719970703125,0.0658721923828125
-0.885284423828125,0.768280029296875,0.04345703125
-0.873504638671875,0.678192138671875,0.0167236328125
-1.0073394775390625,0.8734130859375,0.08489990234375
-0.8975982666015625,0.8263702392578125,0.114593505859375
-0.86651611328125,0.656646728515625,0.0684967041015625
-0.98406982421875,0.8008575439453125,0.0443878173828125
-0.93804931640625,0.911285400390625,0.1051177978515625
-0.926422119140625,0.998077392578125,0.05230712890625
-0.84503173828125,0.9762725830078124,-0.0297393798828125
-0.6887969970703125,0.92681884765625,-0.0245513916015625
-0.5567779541015625,0.890716552734375,0.0069427490234375
-0.487823486328125,0.813720703125,0.0391387939453125
-0.4491424560546875,0.7222442626953125,0.04779052734375
-0.4707489013671875,0.747406005859375,0.076690673828125
-0.4194793701171875,0.717376708984375,0.0532684326171875
-0.4357757568359375,0.6703033447265625,0.0540618896484375
-0.5544586181640625,0.919891357421875,0.1327667236328125
-0.419036865234375,0.809539794921875,-0.0048980712890625
-0.554290771484375,0.63543701171875,-0.0224609375
-0.785369873046875,0.810943603515625,0.1485748291015625
-0.7386474609375,0.910491943359375,0.1887664794921875
-0.7093658447265625,0.825469970703125,0.0679473876953125
-0.805908203125,0.795074462890625,0.01654052734375
-0.87310791015625,0.80206298828125,-0.0175628662109375
-0.8459014892578125,0.7374267578125,0.0947723388671875
-0.8611907958984375,0.63348388671875,0.2187347412109375
-0.939910888671875,0.61865234375,0.2035064697265625
-0.9769439697265624,0.7111968994140625,0.1356964111328125
-0.9694671630859376,0.7565460205078125,0.073089599609375
-0.9976348876953124,0.7206268310546875,0.05950927734375
-0.9779815673828124,0.66851806640625,0.1316375732421875
-1.0645904541015625,0.918853759765625,0.2642059326171875
-0.949310302734375,0.8839874267578125,0.2264404296875
-0.881561279296875,0.7442169189453125,0.12347412109375
-0.95159912109375,0.90765380859375,0.117034912109375
-0.9190216064453124,1.0230255126953125,0.0741424560546875
-0.773834228515625,0.94378662109375,-0.0361785888671875
-0.712371826171875,0.7887420654296875,-0.1396331787109375
-0.681121826171875,0.7595367431640625,-0.1129150390625
-0.5670318603515625,0.7491607666015625,0.0443878173828125
-0.4387054443359375,0.71051025390625,0.0840911865234375
-0.445892333984375,0.7163238525390625,0.05731201171875
-0.448974609375,0.7430267333984375,0.0796966552734375
-0.46636962890625,0.7602081298828125,0.1041259765625
-0.4741668701171875,0.7185211181640625,0.1392974853515625
-0.579803466796875,0.7483367919921875,0.1751861572265625
-0.5880279541015625,0.8423004150390625,0.20184326171875
-0.5701751708984375,0.6788177490234375,0.042938232421875
-0.759429931640625,0.831878662109375,0.1601104736328125
-0.8790283203125,0.89996337890625,0.170806884765625
-0.880462646484375,0.7683563232421875,0.0828399658203125
-0.8149566650390625,0.6345062255859375,0.0222625732421875
-0.8194580078125,0.6637115478515625,0.027679443359375
-0.736480712890625,0.71136474609375,0.0324859619140625
-0.7059478759765625,0.664031982421875,0.0348358154296875
-0.7763671875,0.7056884765625,0.0618743896484375
-0.8472137451171875,0.786163330078125,0.104827880859375
-0.9010009765625,0.8074798583984375,0.132568359375
-0.902435302734375,0.730621337890625,0.0850982666015625
-0.9080657958984376,0.6496429443359375,0.075775146484375
-1.0042724609375,0.879608154296875,0.1019744873046875
-0.8990020751953125,0.8469390869140625,0.0403289794921875
-0.950408935546875,0.794952392578125,-0.0160064697265625
-0.9854736328125,0.855133056640625,0.03887939453125
-0.95379638671875,0.9535980224609376,0.069671630859375
-0.8823089599609375,0.93792724609375,-0.06707763671875
-0.8159027099609375,0.9253082275390624,-0.1011505126953125
-0.7151031494140625,0.9163360595703124,-0.07354736328125
-0.5497589111328125,0.870025634765625,-0.01190185546875
-0.4267120361328125,0.751800537109375,-0.0245361328125
-0.4421539306640625,0.737457275390625,-0.0227813720703125
-0.4403076171875,0.7945098876953125,0.0396270751953125
-0.380706787109375,0.717376708984375,0.0491943359375
-0.5066680908203125,0.729644775390625,0.0428314208984375
-0.523956298828125,0.878509521484375,0.111297607421875
-0.484161376953125,0.706787109375,-0.004058837890625
-0.660919189453125,0.729461669921875,0.1563873291015625
-0.7901611328125,0.9006500244140625,0.2474365234375
-0.801422119140625,0.9029083251953124,0.2562713623046875
-0.757843017578125,0.71533203125,0.16864013671875
-0.7659454345703125,0.6627960205078125,0.1209259033203125
-0.701873779296875,0.6726226806640625,0.1252899169921875
-0.636444091796875,0.655487060546875,0.1611175537109375
-0.63897705078125,0.647216796875,0.1933441162109375
-0.792572021484375,0.8267822265625,0.177520751953125
-0.91302490234375,0.9289093017578124,0.0951995849609375
-0.97918701171875,0.8423004150390625,0.027557373046875
-0.979248046875,0.6710662841796875,0.01580810546875
-1.0457916259765625,0.7248077392578125,0.042755126953125
-0.96624755859375,0.798858642578125,0.09539794921875
-0.8391876220703125,0.70489501953125,0.0347137451171875
-0.8624420166015625,0.7400665283203125,-0.0279998779296875
-0.8745574951171875,0.859832763671875,-0.025726318359375
-0.8238372802734375,0.90948486328125,-0.0153656005859375
-0.7712860107421875,0.80816650390625,-0.083038330078125
-0.7556610107421875,0.76959228515625,-0.1007232666015625
-0.7197113037109375,0.853759765625,-0.074615478515625
-0.609832763671875,0.9045257568359376,-0.006988525390625
-0.498077392578125,0.7966156005859375,0.0096893310546875
-0.5363616943359375,0.80426025390625,0.0088043212890625
-0.555328369140625,0.8813629150390625,0.0082244873046875
-0.4597930908203125,0.8385467529296875,0.0454254150390625
-0.4171600341796875,0.6608734130859375,0.0460662841796875
-0.5596160888671875,0.7802581787109375,0.096099853515625
-0.4696044921875,0.87896728515625,0.0314178466796875
-0.434814453125,0.6934051513671875,-0.0504150390625
-0.7153472900390625,0.8468017578125,0.0622100830078125
-0.8243560791015625,0.9362030029296876,0.0668792724609375
-0.7876434326171875,0.776580810546875,0.0334320068359375
-0.768035888671875,0.62152099609375,0.025299072265625
-0.7919921875,0.598052978515625,0.0687408447265625
-0.7555999755859375,0.6769561767578125,0.151092529296875
-0.7154541015625,0.6577911376953125,0.172882080078125
-0.8865814208984375,0.7004241943359375,0.024810791015625
-1.0320892333984375,0.768035888671875,-0.1250152587890625
-1.0581512451171875,0.7684173583984375,-0.1707000732421875
-1.108306884765625,0.7140350341796875,-0.256927490234375
-1.106964111328125,0.8385009765625,0.0219573974609375
-0.932769775390625,0.9627685546875,0.3374481201171875
-0.7562255859375,0.674468994140625,0.104888916015625
-1.0589141845703125,0.8968048095703125,-0.145416259765625
-1.0778656005859375,1.1304931640625,-0.023193359375
-0.7923583984375,1.037078857421875,0.2276458740234375
-0.638916015625,0.834716796875,0.278411865234375
-0.6237945556640625,0.8184814453125,0.2004241943359375
-0.4457855224609375,0.7396087646484375,0.1359710693359375
-0.29498291015625,0.6321868896484375,0.1669769287109375
-0.22589111328125,0.5118408203125,0.20440673828125
-0.251953125,0.528106689453125,0.1904754638671875
-0.2929534912109375,0.6415252685546875,0.171630859375
-0.4457244873046875,0.8735809326171875,0.103118896484375
-0.58380126953125,1.0298614501953125,-0.01983642578125
-0.781585693359375,1.154266357421875,-0.15106201171875
-1.0245208740234375,1.319488525390625,-0.2428436279296875
-0.8641815185546875,0.98291015625,-0.35247802734375
-1.066070556640625,1.0722808837890625,-0.1971282958984375
-1.1281890869140625,0.9652252197265624,-0.07147216796875
-1.0522308349609375,0.7433624267578125,0.0654754638671875
-0.8586883544921875,0.5160675048828125,0.0762176513671875
-0.731536865234375,0.54583740234375,0.1132965087890625
-0.635284423828125,0.612945556640625,0.06707763671875
-0.643829345703125,0.626617431640625,-0.0289306640625
-0.7534027099609375,0.6556854248046875,-0.1096343994140625
-0.909454345703125,0.711883544921875,-0.0721282958984375
-1.0299835205078125,0.792205810546875,0.0478515625
-0.993194580078125,0.7416534423828125,0.1815185546875
-0.9267425537109376,0.7647552490234375,0.211883544921875
-0.955810546875,0.9675140380859376,0.102935791015625
-0.898101806640625,1.111907958984375,-0.0279388427734375
-0.8012237548828125,0.88092041015625,-0.1327362060546875
-0.95062255859375,0.91693115234375,-0.045684814453125
-0.9381866455078124,1.0293121337890625,0.0625
-0.8910675048828125,1.1580352783203125,0.0433197021484375
-0.706390380859375,0.962188720703125,-0.0923004150390625
-0.63153076171875,0.8275146484375,-0.1223602294921875
-0.55853271484375,0.770263671875,-0.076019287109375
-0.4139556884765625,0.6910858154296875,-0.02294921875
-0.348846435546875,0.64044189453125,0.025482177734375
-0.351531982421875,0.63055419921875,0.0577239990234375
-0.401275634765625,0.7359771728515625,0.0709686279296875
-0.3886566162109375,0.7928466796875,0.05572509765625
-0.412750244140625,0.74676513671875,-0.0003662109375
-0.7002716064453125,1.0369110107421875,0.026031494140625
-0.7083282470703125,1.0866241455078125,-0.030426025390625
-0.7650604248046875,1.0560302734375,-0.1134033203125
-1.0197906494140625,1.1157684326171875,-0.0121002197265625
-1.088287353515625,1.0632476806640625,0.0802154541015625
-0.9145050048828124,0.7808685302734375,-0.024749755859375
-0.80853271484375,0.5813751220703125,-0.1080474853515625
-0.80145263671875,0.5972900390625,-0.1836090087890625
-0.673004150390625,0.647735595703125,-0.1395263671875
-0.5765380859375,0.707763671875,-0.1595306396484375
-0.5288543701171875,0.700408935546875,-0.2698822021484375
-0.641754150390625,0.7900543212890625,-0.31243896484375
-0.7403717041015625,0.883026123046875,-0.119110107421875
-0.756317138671875,0.9053497314453124,0.048370361328125
-0.7895660400390625,0.8747711181640625,0.008392333984375
-0.8779144287109375,1.0164031982421875,0.1738128662109375
-0.845611572265625,1.0124969482421875,0.1022491455078125
-0.73504638671875,0.8673095703125,0.13140869140625
-0.7262725830078125,0.8261260986328125,0.16949462890625
-0.7270965576171875,0.923309326171875,0.1722869873046875
-0.7670745849609375,1.0819549560546875,0.0062255859375
-0.6663818359375,1.042327880859375,-0.1195220947265625
-0.64520263671875,0.9183197021484376,-0.1072540283203125
-0.6602783203125,0.86083984375,-0.1153106689453125
-0.60076904296875,0.8256072998046875,-0.126312255859375
-0.545867919921875,0.76995849609375,-0.13592529296875
-0.5280609130859375,0.750274658203125,-0.125640869140625
-0.49420166015625,0.7274169921875,-0.1218719482421875
-0.451873779296875,0.6920928955078125,-0.0848541259765625
-0.4677581787109375,0.6681671142578125,-0.00018310546875
-0.6074981689453125,0.7587890625,0.0788421630859375
-0.58856201171875,0.9295654296875,0.1867828369140625
-0.5070953369140625,0.7164306640625,0.20330810546875
-0.820587158203125,0.7736053466796875,0.2786712646484375
-0.878814697265625,0.826507568359375,0.292633056640625
-0.8599395751953125,0.8005523681640625,0.3417205810546875
-0.8463134765625,0.695770263671875,0.3184967041015625
-0.86077880859375,0.6594390869140625,0.2207489013671875
-0.8077545166015625,0.596710205078125,0.1293792724609375
-0.69879150390625,0.575836181640625,0.074005126953125
-0.5770263671875,0.5892486572265625,0.0165252685546875
-0.632659912109375,0.699981689453125,-0.0389251708984375
-0.707855224609375,0.8044281005859375,-0.0992279052734375
-0.8411712646484375,0.90032958984375,-0.108734130859375
-0.7983245849609375,0.845428466796875,-0.0019989013671875
-0.7310333251953125,0.7791900634765625,-0.0672607421875
-0.6150054931640625,0.7314300537109375,-0.229248046875
-0.5782928466796875,0.729949951171875,-0.289764404296875
-0.6403045654296875,0.8349456787109375,-0.2834320068359375
-0.6291961669921875,0.8631439208984375,-0.202239990234375
-0.644439697265625,0.81243896484375,-0.180328369140625
-0.7567901611328125,0.751953125,-0.2135009765625
-0.83831787109375,0.68359375,-0.2467498779296875
-0.8861083984375,0.6497955322265625,-0.219024658203125
-0.8982086181640625,0.6096954345703125,-0.1910552978515625
-0.918212890625,0.542388916015625,-0.13916015625
-0.88861083984375,0.524078369140625,-0.1272735595703125
-0.9262847900390624,0.4721832275390625,-0.2478179931640625
-0.961212158203125,0.4797210693359375,-0.35125732421875
-0.8668670654296875,0.4107818603515625,-0.43023681640625
-0.873443603515625,0.4567413330078125,-0.59039306640625
-0.7866668701171875,0.393646240234375,-0.614898681640625
-0.85467529296875,0.4768524169921875,-1.095428466796875
-0.811248779296875,0.3097076416015625,-0.9595794677734376
-0.8115386962890625,0.192047119140625,-1.1036834716796875
-0.687103271484375,0.05926513671875,-0.819427490234375
-0.4626617431640625,-0.235870361328125,-0.625091552734375
0.019866943359375,-0.602325439453125,-0.7544403076171875
-0.071685791015625,-0.6307373046875,-0.837646484375
-0.111236572265625,-0.56304931640625,-0.678009033203125
-0.0569000244140625,-0.513916015625,-0.744903564453125
-0.2273712158203125,-0.53289794921875,-0.689788818359375
-0.2383880615234375,-0.5484771728515625,-0.51019287109375
-0.2779998779296875,-0.618896484375,-0.526123046875
-0.0295867919921875,-0.6256561279296875,-0.550384521484375
-0.0128021240234375,-0.658721923828125,-0.6481475830078125
-0.0142974853515625,-0.6941680908203125,-0.7198944091796875
-0.0579986572265625,-0.7291107177734375,-0.6025238037109375
-0.151153564453125,-0.764190673828125,-0.644866943359375
-0.0522308349609375,-0.7332611083984375,-0.5781097412109375
-0.0759735107421875,-0.7456512451171875,-0.5621337890625
-0.0549774169921875,-0.732025146484375,-0.590484619140625
-0.1107177734375,-0.7318267822265625,-0.580047607421875
-0.1267547607421875,-0.7237091064453125,-0.6378326416015625
-0.097503662109375,-0.7155914306640625,-0.6926727294921875
-0.0710906982421875,-0.716583251953125,-0.670379638671875
-0.090606689453125,-0.701416015625,-0.7031707763671875
-0.1567230224609375,-0.719970703125,-0.5924530029296875
