AccelerationX,AccelerationY,AccelerationZ
0.371185302734375,-0.6033782958984375,-0.7279052734375
0.325714111328125,-0.6021881103515625,-0.7384033203125
0.334259033203125,-0.5879974365234375,-0.73785400390625
0.3509674072265625,-0.579010009765625,-0.7267608642578125
0.3720550537109375,-0.5907745361328125,-0.766326904296875
0.3258514404296875,-0.5601654052734375,-0.7696685791015625
0.3727874755859375,-0.5362091064453125,-0.77490234375
0.347442626953125,-0.5529022216796875,-0.792816162109375
0.34130859375,-0.5394134521484375,-0.8037872314453125
0.2735595703125,-0.61090087890625,-0.699310302734375
0.134033203125,-0.5765838623046875,-0.566741943359375
0.099609375,-0.5685882568359375,-0.4932098388671875
0.1554412841796875,-0.6204986572265625,-0.46331787109375
0.162628173828125,-0.67303466796875,-0.40740966796875
0.0426025390625,-0.8917999267578125,-0.2952423095703125
0.415618896484375,-1.13763427734375,-0.695068359375
0.20855712890625,-0.9872283935546876,-0.54998779296875
0.1318511962890625,-0.945220947265625,-0.3622283935546875
0.021026611328125,-0.8847503662109375,-0.2789459228515625
0.0088043212890625,-0.9014434814453124,-0.22723388671875
0.129974365234375,-0.9394683837890624,-0.303192138671875
0.191558837890625,-1.0291900634765625,-0.3623199462890625
0.1244964599609375,-1.0983734130859375,-0.4653778076171875
0.090667724609375,-1.13482666015625,-0.5089111328125
0.2052154541015625,-1.3889923095703125,-0.61199951171875
0.196624755859375,-1.1592254638671875,-0.5388641357421875
0.2197113037109375,-1.04388427734375,-0.495269775390625
0.142852783203125,-1.273040771484375,-0.3334197998046875
0.1307830810546875,-1.3342742919921875,-0.2201080322265625
0.146728515625,-1.2828826904296875,-0.1767120361328125
0.17559814453125,-1.068603515625,-0.2816314697265625
0.1449432373046875,-0.9400634765625,-0.26226806640625
0.178985595703125,-0.8083343505859375,-0.295440673828125
0.189117431640625,-0.6780548095703125,-0.3247833251953125
0.178619384765625,-0.555206298828125,-0.285675048828125
0.1755523681640625,-0.6215362548828125,-0.30126953125
0.16632080078125,-0.81195068359375,-0.202972412109375
0.17181396484375,-0.817169189453125,-0.203582763671875
0.1637115478515625,-0.861328125,-0.2924652099609375
0.19854736328125,-0.99005126953125,-0.415679931640625
0.19970703125,-0.9693450927734376,-0.5966949462890625
0.23553466796875,-1.111663818359375,-0.71173095703125
0.191070556640625,-1.3278350830078125,-0.5443115234375
0.0801849365234375,-1.19049072265625,-0.36102294921875
-0.1294097900390625,-0.905181884765625,-0.3007659912109375
-0.2055206298828125,-0.6927490234375,-0.25128173828125
-0.162322998046875,-0.711578369140625,-0.2047271728515625
-0.0488433837890625,-0.69219970703125,-0.2974853515625
0.23541259765625,-0.7190399169921875,-0.4804840087890625
0.294921875,-0.77197265625,-0.5993499755859375
0.3097381591796875,-0.9979400634765624,-0.652069091796875
0.207275390625,-1.08929443359375,-0.6161041259765625
0.1788177490234375,-1.2028350830078125,-0.47283935546875
0.1424102783203125,-1.3092498779296875,-0.387451171875
0.1724395751953125,-1.20538330078125,-0.2985992431640625
0.212677001953125,-1.3513946533203125,-0.2032470703125
0.2700653076171875,-1.4055328369140625,-0.2070465087890625
0.220733642578125,-1.266845703125,-0.248687744140625
0.2269287109375,-1.012542724609375,-0.2998809814453125
0.160491943359375,-0.873626708984375,-0.264373779296875
0.242523193359375,-0.79010009765625,-0.23468017578125
0.2685699462890625,-0.6845855712890625,-0.203704833984375
0.265960693359375,-0.5880279541015625,-0.2071685791015625
0.24114990234375,-0.606536865234375,-0.26129150390625
0.264739990234375,-0.731689453125,-0.320770263671875
0.27899169921875,-0.8151702880859375,-0.39971923828125
0.2518768310546875,-0.9552764892578124,-0.4372100830078125
0.0966339111328125,-0.9935302734375,-0.3712158203125
0.0362396240234375,-0.970306396484375,-0.31536865234375
0.0175018310546875,-1.0337982177734375,-0.3033599853515625
0.0363006591796875,-1.076324462890625,-0.3151702880859375
0.063323974609375,-1.0340423583984375,-0.3380126953125
0.092498779296875,-0.88592529296875,-0.36090087890625
0.0829620361328125,-0.76409912109375,-0.326385498046875
0.0736846923828125,-0.8206024169921875,-0.3027191162109375
0.084716796875,-0.8743133544921875,-0.3320159912109375
0.1775360107421875,-0.894012451171875,-0.431121826171875
0.2683258056640625,-0.9055938720703124,-0.506988525390625
0.2741241455078125,-1.0755615234375,-0.589263916015625
0.322265625,-1.303802490234375,-0.61865234375
0.2265167236328125,-1.3196258544921875,-0.617523193359375
0.145263671875,-1.15380859375,-0.499603271484375
0.1183624267578125,-1.13385009765625,-0.341278076171875
0.2065277099609375,-1.219940185546875,-0.30841064453125
0.2275543212890625,-1.1981048583984375,-0.2681732177734375
0.121307373046875,-0.970947265625,-0.2288665771484375
0.1378021240234375,-0.88189697265625,-0.246826171875
0.156890869140625,-0.8595428466796875,-0.2153778076171875
0.2249603271484375,-0.7603302001953125,-0.222564697265625
0.2723236083984375,-0.7217559814453125,-0.1968994140625
0.256927490234375,-0.69683837890625,-0.2137298583984375
0.2858428955078125,-0.802459716796875,-0.2325592041015625
0.3025360107421875,-0.914154052734375,-0.3065948486328125
0.2762603759765625,-1.064208984375,-0.4816741943359375
0.2447052001953125,-1.02496337890625,-0.5016632080078125
0.1424102783203125,-0.817108154296875,-0.539337158203125
0.006011962890625,-0.7609405517578125,-0.456878662109375
-0.0196533203125,-0.8159027099609375,-0.3116455078125
0.009124755859375,-0.8818359375,-0.2078399658203125
0.0308074951171875,-0.943206787109375,-0.2700042724609375
0.0887603759765625,-0.968048095703125,-0.3520050048828125
0.1272430419921875,-0.936492919921875,-0.402435302734375
0.0859222412109375,-0.8627777099609375,-0.408538818359375
0.0268402099609375,-0.813995361328125,-0.4396514892578125
0.0987091064453125,-1.0287628173828125,-0.4380645751953125
0.14068603515625,-1.16522216796875,-0.47479248046875
0.17706298828125,-1.1134185791015625,-0.452728271484375
0.2224578857421875,-1.36480712890625,-0.46142578125
0.1944122314453125,-1.12982177734375,-0.4871673583984375
0.2669677734375,-1.0597381591796875,-0.371063232421875
0.2601318359375,-1.1985931396484375,-0.2739715576171875
0.1937103271484375,-1.1573944091796875,-0.1530914306640625
0.1090850830078125,-0.933868408203125,-0.1512603759765625
0.07855224609375,-0.842620849609375,-0.1804046630859375
0.1078643798828125,-0.7013092041015625,-0.198394775390625
0.2043304443359375,-0.61456298828125,-0.2246246337890625
0.230804443359375,-0.5822601318359375,-0.2209320068359375
0.1630859375,-0.685089111328125,-0.201934814453125
0.1522064208984375,-0.9146575927734376,-0.2165679931640625
0.134735107421875,-1.120330810546875,-0.2891387939453125
0.1636199951171875,-1.3293609619140625,-0.3087921142578125
0.2158966064453125,-1.3127899169921875,-0.26708984375
0.17071533203125,-1.162384033203125,-0.33758544921875
0.0463714599609375,-0.986541748046875,-0.3538818359375
0.046600341796875,-0.9768524169921876,-0.27069091796875
0.1162109375,-0.8842010498046875,-0.204071044921875
0.0895538330078125,-0.7761077880859375,-0.19415283203125
0.0803680419921875,-0.7325439453125,-0.2585906982421875
0.0519561767578125,-0.7374725341796875,-0.294921875
0.0684356689453125,-0.7434234619140625,-0.3191680908203125
0.0691375732421875,-0.8263397216796875,-0.3064422607421875
0.1371002197265625,-1.0852508544921875,-0.347930908203125
0.1777496337890625,-1.1875,-0.3944549560546875
0.17138671875,-1.454254150390625,-0.3961029052734375
0.19012451171875,-1.264068603515625,-0.44097900390625
0.1920166015625,-1.012420654296875,-0.419769287109375
0.22119140625,-1.14990234375,-0.3079071044921875
0.1673431396484375,-1.2079315185546875,-0.2190704345703125
0.0835113525390625,-0.9691925048828124,-0.159454345703125
0.100372314453125,-0.7833404541015625,-0.161407470703125
0.1526336669921875,-0.7509765625,-0.1725006103515625
0.187530517578125,-0.6851348876953125,-0.1869659423828125
0.2237548828125,-0.6455078125,-0.1868743896484375
0.204620361328125,-0.63494873046875,-0.18756103515625
0.22027587890625,-0.7941131591796875,-0.1936187744140625
0.2252349853515625,-1.10906982421875,-0.1935272216796875
0.2309722900390625,-1.2321319580078125,-0.2852935791015625
0.22686767578125,-1.484832763671875,-0.2274017333984375
0.2212371826171875,-1.25323486328125,-0.3677215576171875
0.0324554443359375,-0.9506683349609376,-0.4532623291015625
-0.0399169921875,-0.9592437744140624,-0.1909027099609375
0.00201416015625,-0.946929931640625,-0.03485107421875
0.004180908203125,-0.746185302734375,-0.1290435791015625
0.0728912353515625,-0.6646575927734375,-0.2575836181640625
0.13970947265625,-0.6659393310546875,-0.3229522705078125
0.1490631103515625,-0.7138824462890625,-0.37335205078125
0.131072998046875,-0.7756195068359375,-0.3797149658203125
0.1243896484375,-0.857666015625,-0.3587188720703125
0.204132080078125,-1.1084442138671875,-0.4310302734375
0.2541046142578125,-1.264068603515625,-0.4727630615234375
0.2549896240234375,-1.4471588134765625,-0.450225830078125
0.1689453125,-1.18914794921875,-0.46783447265625
0.1529083251953125,-1.1221160888671875,-0.3373260498046875
0.1700897216796875,-1.2564697265625,-0.219268798828125
0.13409423828125,-1.1696319580078125,-0.10357666015625
0.1045379638671875,-0.89703369140625,-0.082244873046875
0.0685882568359375,-0.7523651123046875,-0.0775909423828125
0.2612152099609375,-0.7042388916015625,-0.212615966796875
0.2413482666015625,-0.6887054443359375,-0.237091064453125
0.2533111572265625,-0.691650390625,-0.2111053466796875
0.22674560546875,-0.728759765625,-0.137054443359375
0.1981658935546875,-0.8773651123046875,-0.09600830078125
0.2766571044921875,-0.9949798583984376,-0.2147369384765625
0.2383575439453125,-1.1665802001953125,-0.2963104248046875
0.203857421875,-1.2454833984375,-0.293609619140625
0.14337158203125,-1.123748779296875,-0.33807373046875
0.0475921630859375,-1.10772705078125,-0.3251495361328125
-0.00439453125,-1.0673065185546875,-0.199005126953125
0.07037353515625,-0.930328369140625,-0.175994873046875
0.037139892578125,-0.75286865234375,-0.225799560546875
0.02777099609375,-0.691741943359375,-0.2214202880859375
0.08978271484375,-0.7636566162109375,-0.2969818115234375
0.103790283203125,-0.8438262939453125,-0.33172607421875
0.1226654052734375,-0.792388916015625,-0.3431549072265625
0.157623291015625,-0.9700927734375,-0.36224365234375
0.2280426025390625,-1.172515869140625,-0.4587249755859375
0.2463836669921875,-1.43804931640625,-0.4796905517578125
0.17828369140625,-1.3978271484375,-0.4434661865234375
0.1085357666015625,-1.0907440185546875,-0.3509368896484375
0.11505126953125,-1.1122894287109375,-0.2253570556640625
0.1340789794921875,-1.207489013671875,-0.181976318359375
0.1815948486328125,-1.102996826171875,-0.1495361328125
0.1810150146484375,-0.8383636474609375,-0.16351318359375
0.1896514892578125,-0.7375335693359375,-0.191986083984375
0.214263916015625,-0.6873626708984375,-0.181304931640625
0.273223876953125,-0.6399078369140625,-0.1755523681640625
0.272369384765625,-0.679473876953125,-0.155487060546875
0.22564697265625,-0.7876434326171875,-0.132476806640625
0.263641357421875,-1.02447509765625,-0.1456451416015625
0.2997283935546875,-1.067138671875,-0.227813720703125
0.249176025390625,-1.28900146484375,-0.271514892578125
0.179840087890625,-1.105010986328125,-0.3086700439453125
0.0281829833984375,-0.93829345703125,-0.300628662109375
0.04229736328125,-1.0160064697265625,-0.2786407470703125
0.0841064453125,-1.0789031982421875,-0.216339111328125
0.0608978271484375,-0.919342041015625,-0.2224884033203125
0.005645751953125,-0.7044525146484375,-0.259368896484375
0.028656005859375,-0.675750732421875,-0.257476806640625
0.0874481201171875,-0.778167724609375,-0.2797088623046875
0.1435699462890625,-0.8731231689453125,-0.3136138916015625
0.150787353515625,-0.909454345703125,-0.350128173828125
0.162994384765625,-1.0737762451171875,-0.363800048828125
0.2259674072265625,-1.1573486328125,-0.49053955078125
0.2500152587890625,-1.2219085693359375,-0.4942474365234375
0.2485198974609375,-1.3242340087890625,-0.4980010986328125
0.195556640625,-1.2637786865234375,-0.4152984619140625
0.136932373046875,-1.239837646484375,-0.2588348388671875
0.1095123291015625,-1.263092041015625,-0.168365478515625
0.0550079345703125,-1.1001129150390625,-0.0992431640625
0.084808349609375,-0.8764495849609375,-0.1115264892578125
0.1233367919921875,-0.79541015625,-0.160858154296875
0.2057037353515625,-0.792694091796875,-0.168182373046875
0.258453369140625,-0.7426605224609375,-0.16888427734375
0.2756195068359375,-0.7210845947265625,-0.1343231201171875
0.2301177978515625,-0.7354278564453125,-0.0637664794921875
0.263092041015625,-0.91168212890625,-0.0826568603515625
0.3628692626953125,-0.9901885986328124,-0.17132568359375
0.289398193359375,-1.1669769287109375,-0.2350006103515625
0.295196533203125,-1.2575531005859375,-0.2402801513671875
0.212371826171875,-1.0357513427734375,-0.31488037109375
0.135101318359375,-0.949005126953125,-0.3727264404296875
0.0867919921875,-1.0341949462890625,-0.1862945556640625
0.0738677978515625,-1.0153961181640625,-0.135833740234375
-0.054779052734375,-0.82098388671875,-0.1601715087890625
-0.0039825439453125,-0.7376861572265625,-0.262237548828125
0.1062774658203125,-0.7519378662109375,-0.3634490966796875
0.1707763671875,-0.8086090087890625,-0.425689697265625
0.2081756591796875,-0.87445068359375,-0.4466552734375
0.1570892333984375,-0.929229736328125,-0.408233642578125
0.1702880859375,-1.09918212890625,-0.4121246337890625
0.222564697265625,-1.1911773681640625,-0.4706878662109375
0.3256378173828125,-1.420623779296875,-0.510955810546875
0.28802490234375,-1.362152099609375,-0.540283203125
0.14190673828125,-1.0919952392578125,-0.3483123779296875
0.078155517578125,-1.1175384521484375,-0.20965576171875
-0.008697509765625,-1.2198486328125,-0.1066436767578125
0.037750244140625,-1.0534820556640625,-0.0595550537109375
0.20166015625,-0.848876953125,-0.1763763427734375
0.25555419921875,-0.7935028076171875,-0.1974639892578125
0.204620361328125,-0.7631683349609375,-0.210052490234375
0.204193115234375,-0.6884002685546875,-0.1840362548828125
0.1804046630859375,-0.67034912109375,-0.1464691162109375
0.2160797119140625,-0.735076904296875,-0.139434814453125
0.2620697021484375,-0.9070892333984376,-0.192230224609375
0.2497100830078125,-0.9707794189453124,-0.2735443115234375
0.20709228515625,-1.143829345703125,-0.31640625
0.1924896240234375,-1.1710662841796875,-0.3515472412109375
0.0900726318359375,-1.04595947265625,-0.4347076416015625
0.041748046875,-1.1169891357421875,-0.390960693359375
0.0095977783203125,-1.1896820068359375,-0.1881866455078125
0.0082550048828125,-0.9640350341796876,-0.162750244140625
-0.0481719970703125,-0.6768951416015625,-0.230010986328125
-0.0541229248046875,-0.6562347412109375,-0.2347869873046875
0.037200927734375,-0.692535400390625,-0.326019287109375
0.0518646240234375,-0.6386566162109375,-0.50164794921875
0.0668792724609375,-0.81365966796875,-0.5668792724609375
0.0270538330078125,-1.003021240234375,-0.523284912109375
0.0179901123046875,-1.2317962646484375,-0.4582977294921875
-0.006256103515625,-1.3885498046875,-0.403594970703125
0.12261962890625,-1.528778076171875,-0.39129638671875
0.29412841796875,-1.4547119140625,-0.5152130126953125
0.00213623046875,-1.0291900634765625,-0.3216552734375
0.0730438232421875,-1.1912384033203125,-0.19915771484375
0.0968780517578125,-1.2228240966796875,-0.1341400146484375
0.135955810546875,-0.9995880126953124,-0.173187255859375
0.1407928466796875,-0.8251190185546875,-0.1669158935546875
0.1283721923828125,-0.654022216796875,-0.1981964111328125
0.2132568359375,-0.56488037109375,-0.2990875244140625
0.2426300048828125,-0.556671142578125,-0.372161865234375
0.178558349609375,-0.582122802734375,-0.3788604736328125
0.2245330810546875,-0.675384521484375,-0.40509033203125
0.1899261474609375,-0.775604248046875,-0.4610443115234375
0.1612396240234375,-0.8208465576171875,-0.5221405029296875
0.184326171875,-0.9432830810546876,-0.5332183837890625
0.153533935546875,-0.9631500244140624,-0.489837646484375
0.047210693359375,-0.85791015625,-0.40191650390625
0.0649261474609375,-1.0263214111328125,-0.3153076171875
0.04754638671875,-1.220458984375,-0.2067718505859375
0.1290740966796875,-1.2188720703125,-0.1813507080078125
0.12103271484375,-1.021881103515625,-0.2592620849609375
0.0294647216796875,-0.789825439453125,-0.24969482421875
0.0154571533203125,-0.71905517578125,-0.2315216064453125
0.0655059814453125,-0.7645263671875,-0.3184661865234375
0.0811309814453125,-0.84246826171875,-0.3571014404296875
0.075836181640625,-0.89697265625,-0.37109375
0.0721588134765625,-1.101531982421875,-0.424102783203125
0.099212646484375,-1.1180572509765625,-0.51141357421875
0.12164306640625,-1.295806884765625,-0.4849395751953125
0.172027587890625,-1.2917938232421875,-0.6019744873046875
0.1508026123046875,-1.3321533203125,-0.4608154296875
0.093658447265625,-1.3905792236328125,-0.242767333984375
0.0501251220703125,-1.3951873779296875,-0.110107421875
0.057159423828125,-1.163482666015625,-0.07568359375
0.092987060546875,-0.981719970703125,-0.147247314453125
0.086883544921875,-0.947967529296875,-0.1789398193359375
0.166229248046875,-0.880157470703125,-0.227020263671875
0.2163848876953125,-0.79034423828125,-0.257110595703125
0.200408935546875,-0.7049560546875,-0.149505615234375
0.1574249267578125,-0.6598663330078125,-0.065643310546875
0.1966094970703125,-0.74334716796875,-0.0941314697265625
0.2198333740234375,-0.72869873046875,-0.250640869140625
0.1138763427734375,-0.9438018798828124,-0.283599853515625
0.1628570556640625,-1.04327392578125,-0.3444366455078125
0.0697021484375,-1.1584014892578125,-0.3827056884765625
-0.0159912109375,-1.3176727294921875,-0.3814697265625
-0.0233001708984375,-1.30645751953125,-0.3160400390625
0.0015106201171875,-1.0617218017578125,-0.2760162353515625
-0.042877197265625,-0.78466796875,-0.247467041015625
-0.0566864013671875,-0.7466583251953125,-0.2372283935546875
-0.0295867919921875,-0.8270111083984375,-0.3052825927734375
-0.001190185546875,-0.8568572998046875,-0.3841705322265625
0.0001220703125,-0.8253021240234375,-0.4001617431640625
0.0625152587890625,-1.034881591796875,-0.401153564453125
0.078643798828125,-1.0384674072265625,-0.497802734375
0.1510772705078125,-1.2965850830078125,-0.53521728515625
0.114959716796875,-1.4314117431640625,-0.5550994873046875
0.0832977294921875,-1.242156982421875,-0.4297332763671875
0.0979461669921875,-1.2545013427734375,-0.2857818603515625
0.006591796875,-1.4101715087890625,-0.1916961669921875
0.1031341552734375,-1.29620361328125,-0.1978302001953125
0.13726806640625,-1.0262603759765625,-0.192169189453125
0.086822509765625,-0.8592987060546875,-0.217315673828125
0.097930908203125,-0.846649169921875,-0.21783447265625
0.1043701171875,-0.7791595458984375,-0.214599609375
0.1009368896484375,-0.7629547119140625,-0.14208984375
0.1128997802734375,-0.713470458984375,-0.0853271484375
0.1177520751953125,-0.724761962890625,-0.115814208984375
0.1197052001953125,-0.7533111572265625,-0.2280120849609375
0.1075439453125,-0.8117523193359375,-0.351715087890625
0.140045166015625,-1.0157928466796875,-0.4149017333984375
0.1258697509765625,-1.1312713623046875,-0.481475830078125
0.0308685302734375,-1.0818328857421875,-0.493377685546875
0.0339508056640625,-1.282623291015625,-0.3499908447265625
-0.0712890625,-1.2299041748046875,-0.21826171875
-0.0771942138671875,-0.9337615966796876,-0.214813232421875
-0.089080810546875,-0.751983642578125,-0.1849517822265625
-0.0903167724609375,-0.7591094970703125,-0.2065277099609375
-0.011627197265625,-0.782196044921875,-0.302276611328125
0.0135498046875,-0.769561767578125,-0.37738037109375
0.0459442138671875,-0.82373046875,-0.4237518310546875
0.1638031005859375,-1.071563720703125,-0.4574127197265625
0.1266632080078125,-1.1849365234375,-0.5240478515625
0.1009521484375,-1.4872894287109375,-0.5721282958984375
-0.1203155517578125,-1.33465576171875,-0.5203094482421875
-0.04278564453125,-1.3795318603515625,-0.453643798828125
-0.186126708984375,-1.54034423828125,-0.25982666015625
-0.0948944091796875,-1.4472198486328125,-0.162139892578125
0.0199127197265625,-1.12701416015625,-0.226959228515625
0.008941650390625,-0.903900146484375,-0.2972259521484375
-0.0322723388671875,-0.7564849853515625,-0.2954864501953125
0.05780029296875,-0.5976104736328125,-0.3287811279296875
-0.0269012451171875,-0.50286865234375,-0.2505645751953125
-0.0177459716796875,-0.371490478515625,-0.17401123046875
0.038299560546875,-0.3308258056640625,-0.2037506103515625
0.09222412109375,-0.4577178955078125,-0.30609130859375
0.1253662109375,-0.650146484375,-0.376434326171875
0.0538177490234375,-1.015655517578125,-0.3032684326171875
0.113555908203125,-1.72607421875,-0.43359375
0.1135406494140625,-1.8585968017578125,-0.452423095703125
-0.066864013671875,-1.4638519287109375,-0.3021697998046875
0.049224853515625,-1.2012481689453125,-0.334014892578125
-0.089752197265625,-0.764892578125,-0.261138916015625
-0.060028076171875,-0.587158203125,-0.1478118896484375
0.0778045654296875,-0.6759033203125,-0.1599273681640625
0.23370361328125,-0.7968902587890625,-0.2084503173828125
0.2953948974609375,-0.7445068359375,-0.37725830078125
0.22650146484375,-0.854705810546875,-0.4639129638671875
0.090484619140625,-1.12078857421875,-0.550750732421875
-0.00653076171875,-1.1412353515625,-0.46435546875
0.3203125,-1.562896728515625,-0.5733489990234375
0.10772705078125,-1.3477783203125,-0.6725921630859375
0.0561981201171875,-1.2343597412109375,-0.611083984375
-0.033843994140625,-1.21307373046875,-0.443389892578125
-0.0382080078125,-1.3535308837890625,-0.2964019775390625
-0.1564483642578125,-1.0931243896484375,-0.197296142578125
-0.138031005859375,-0.8801422119140625,-0.29052734375
-0.0277099609375,-0.733489990234375,-0.3981475830078125
0.1145477294921875,-0.6913909912109375,-0.3878021240234375
0.1334228515625,-0.5393524169921875,-0.331451416015625
0.1142120361328125,-0.4473114013671875,-0.244415283203125
0.1369781494140625,-0.433013916015625,-0.243896484375
0.1671295166015625,-0.582305908203125,-0.2886199951171875
0.2226104736328125,-0.7942962646484375,-0.4016265869140625
0.24560546875,-1.1439971923828125,-0.4208831787109375
0.2294464111328125,-1.27410888671875,-0.4216156005859375
0.07574462890625,-1.3370208740234375,-0.41461181640625
-0.050048828125,-1.48626708984375,-0.3145751953125
-0.0521087646484375,-1.23187255859375,-0.249298095703125
-0.09576416015625,-0.8259124755859375,-0.24078369140625
-0.0941009521484375,-0.669189453125,-0.248321533203125
0.0238800048828125,-0.704559326171875,-0.2645416259765625
0.1490478515625,-0.777435302734375,-0.3685150146484375
0.277191162109375,-0.7684173583984375,-0.4811248779296875
0.2149658203125,-0.8723907470703125,-0.4225921630859375
0.2320404052734375,-1.061279296875,-0.439544677734375
0.195037841796875,-1.22515869140625,-0.482818603515625
0.234100341796875,-1.4450836181640625,-0.47625732421875
0.1933441162109375,-1.1725311279296875,-0.584381103515625
0.0804901123046875,-1.078948974609375,-0.5201416015625
0.1130523681640625,-1.16046142578125,-0.3906097412109375
0.114410400390625,-1.2707366943359375,-0.27069091796875
0.0527191162109375,-1.1187591552734375,-0.24505615234375
0.0085601806640625,-0.9496307373046876,-0.2623748779296875
0.00762939453125,-0.757720947265625,-0.2649078369140625
0.109771728515625,-0.5757904052734375,-0.31878662109375
0.2306060791015625,-0.502899169921875,-0.33770751953125
0.24261474609375,-0.4870758056640625,-0.2593231201171875
0.205291748046875,-0.5410308837890625,-0.248046875
0.299041748046875,-0.7775726318359375,-0.3072052001953125
0.353851318359375,-0.8552703857421875,-0.45611572265625
0.37042236328125,-1.0782012939453125,-0.4968719482421875
0.22796630859375,-1.1097259521484375,-0.4211273193359375
0.2042083740234375,-1.2034912109375,-0.4155120849609375
0.054840087890625,-1.323150634765625,-0.43878173828125
0.0236663818359375,-1.3058929443359375,-0.3443145751953125
-0.0090179443359375,-0.975982666015625,-0.2235565185546875
-0.0237884521484375,-0.6753692626953125,-0.1443634033203125
0.0414581298828125,-0.630340576171875,-0.1285858154296875
0.106964111328125,-0.6559295654296875,-0.166534423828125
0.25787353515625,-0.7175140380859375,-0.208709716796875
0.396820068359375,-0.785430908203125,-0.3047332763671875
0.3885040283203125,-0.8883056640625,-0.36138916015625
0.3659515380859375,-1.1270294189453125,-0.4198455810546875
0.3864593505859375,-1.4392852783203125,-0.5081939697265625
0.4203948974609375,-1.5683441162109375,-0.5928955078125
0.253570556640625,-1.1979827880859375,-0.3549957275390625
0.0626068115234375,-0.936279296875,-0.3219757080078125
-0.0546722412109375,-1.09771728515625,-0.1487884521484375
-0.0570068359375,-1.1195220947265625,-0.0705718994140625
0.0086822509765625,-1.0405731201171875,-0.089019775390625
0.0686798095703125,-0.843719482421875,-0.2223968505859375
0.1692047119140625,-0.757843017578125,-0.3634033203125
0.2394256591796875,-0.641571044921875,-0.417877197265625
0.2827301025390625,-0.504791259765625,-0.3178253173828125
0.3113861083984375,-0.44500732421875,-0.3417205810546875
0.3160858154296875,-0.573944091796875,-0.1927032470703125
0.188751220703125,-0.82501220703125,-0.3224639892578125
0.2140350341796875,-1.0670166015625,-0.449798583984375
0.207916259765625,-1.2634429931640625,-0.4087677001953125
0.2530670166015625,-1.3490753173828125,-0.3860015869140625
-0.09136962890625,-1.21844482421875,-0.21612548828125
-0.139801025390625,-1.3064422607421875,0.07574462890625
-0.3284759521484375,-1.067108154296875,0.217010498046875
0.059814453125,-0.801239013671875,-0.0341033935546875
0.2287445068359375,-0.7024383544921875,-0.19232177734375
0.203643798828125,-0.7560577392578125,-0.2794036865234375
0.2308502197265625,-0.8131866455078125,-0.2645416259765625
0.172027587890625,-0.9556884765625,-0.2676544189453125
0.1443023681640625,-1.010162353515625,-0.2908477783203125
0.14556884765625,-1.23114013671875,-0.2892303466796875
0.2113189697265625,-1.2007598876953125,-0.393341064453125
0.284271240234375,-1.387542724609375,-0.4782562255859375
0.2215423583984375,-1.2120208740234375,-0.5018157958984375
0.0635528564453125,-0.979644775390625,-0.3139801025390625
0.073089599609375,-1.1312103271484375,-0.261993408203125
0.0530853271484375,-1.2705078125,-0.1925506591796875
0.06866455078125,-1.1311492919921875,-0.179840087890625
0.1145782470703125,-0.9984588623046876,-0.2724456787109375
0.1854248046875,-0.975738525390625,-0.287017822265625
0.2161712646484375,-0.8632049560546875,-0.280120849609375
0.2297821044921875,-0.8147735595703125,-0.216766357421875
0.17291259765625,-0.77435302734375,-0.16241455078125
0.1912384033203125,-0.8544769287109375,-0.16046142578125
0.23492431640625,-1.01141357421875,-0.1653900146484375
0.22723388671875,-1.003204345703125,-0.1881866455078125
0.261260986328125,-1.2500457763671875,-0.1566009521484375
0.2137908935546875,-1.127960205078125,-0.183837890625
0.16387939453125,-1.01495361328125,-0.29754638671875
0.11737060546875,-1.117095947265625,-0.2965850830078125
0.0589599609375,-1.1544036865234375,-0.186431884765625
0.0337371826171875,-0.9692535400390624,-0.1348876953125
-0.003326416015625,-0.7693328857421875,-0.1637115478515625
0.0822906494140625,-0.760528564453125,-0.2352447509765625
0.1433258056640625,-0.8128662109375,-0.27545166015625
0.1973724365234375,-0.917572021484375,-0.2653350830078125
0.234405517578125,-0.9750213623046876,-0.272216796875
0.246124267578125,-1.222320556640625,-0.3425445556640625
0.236358642578125,-1.2717132568359375,-0.44183349609375
0.266998291015625,-1.2471923828125,-0.4987335205078125
0.2703857421875,-1.1352691650390625,-0.5909881591796875
0.1670989990234375,-1.1083221435546875,-0.437896728515625
0.1387176513671875,-1.1653900146484375,-0.2546844482421875
0.156890869140625,-1.32110595703125,-0.1910552978515625
0.1092681884765625,-1.3083343505859375,-0.1859130859375
0.02825927734375,-1.0458221435546875,-0.17413330078125
0.098602294921875,-0.907073974609375,-0.2391357421875
0.10992431640625,-0.848297119140625,-0.22991943359375
0.1668853759765625,-0.7815093994140625,-0.1962738037109375
0.2793426513671875,-0.7975311279296875,-0.169403076171875
0.2425079345703125,-0.754974365234375,-0.1172027587890625
0.27105712890625,-0.806884765625,-0.0953216552734375
0.2880096435546875,-0.8534393310546875,-0.0902557373046875
0.2749176025390625,-0.8650665283203125,-0.17218017578125
0.339935302734375,-1.2099609375,-0.2767791748046875
0.32122802734375,-1.1061553955078125,-0.4022674560546875
0.193939208984375,-1.149017333984375,-0.4487762451171875
0.047943115234375,-1.1800994873046875,-0.1768035888671875
0.0093231201171875,-1.0602569580078125,0.004425048828125
-0.006011962890625,-0.8779144287109375,-0.043792724609375
-0.02880859375,-0.760589599609375,-0.1555938720703125
0.0182342529296875,-0.697723388671875,-0.2952728271484375
0.1121673583984375,-0.6464996337890625,-0.4009857177734375
0.1785430908203125,-0.794708251953125,-0.46246337890625
0.2012176513671875,-0.9633636474609376,-0.44061279296875
0.200592041015625,-1.038726806640625,-0.4937744140625
0.130706787109375,-1.2678985595703125,-0.475250244140625
0.1588897705078125,-1.7196044921875,-0.4260101318359375
0.1873626708984375,-1.3625335693359375,-0.401153564453125
0.20745849609375,-1.100830078125,-0.4194183349609375
0.150634765625,-1.1431427001953125,-0.2291107177734375
0.1013031005859375,-1.0717620849609375,-0.09088134765625
0.0898590087890625,-0.9202117919921876,-0.1033172607421875
0.1035614013671875,-0.82806396484375,-0.135498046875
0.19403076171875,-0.7797088623046875,-0.196807861328125
0.25701904296875,-0.74920654296875,-0.234710693359375
0.269439697265625,-0.7493438720703125,-0.1894683837890625
0.271148681640625,-0.8298187255859375,-0.1013641357421875
0.2609710693359375,-0.9683380126953124,-0.0617828369140625
0.2730865478515625,-1.0979766845703125,-0.0636749267578125
0.2235870361328125,-1.0617218017578125,-0.1500091552734375
0.2316131591796875,-1.303070068359375,-0.1443939208984375
0.2520294189453125,-1.18963623046875,-0.2321929931640625
0.234130859375,-1.098876953125,-0.332550048828125
0.142822265625,-1.055419921875,-0.2824859619140625
0.0133209228515625,-0.8975677490234375,-0.1722869873046875
-0.004669189453125,-0.65625,-0.12066650390625
-0.045135498046875,-0.6008758544921875,-0.1388092041015625
0.0765228271484375,-0.6817779541015625,-0.212890625
0.1585845947265625,-0.7971954345703125,-0.2816314697265625
0.22637939453125,-1.0037994384765625,-0.3292083740234375
0.1863861083984375,-1.02899169921875,-0.3953857421875
0.2452239990234375,-1.2386932373046875,-0.542510986328125
0.22674560546875,-1.200164794921875,-0.60498046875
0.2797698974609375,-1.3090362548828125,-0.5897979736328125
0.190887451171875,-1.2129058837890625,-0.42645263671875
0.1877288818359375,-1.409942626953125,-0.27117919921875
0.1181182861328125,-1.3587493896484375,-0.1536712646484375
0.067901611328125,-1.2284393310546875,-0.0784912109375
0.0209503173828125,-0.9349212646484376,-0.089569091796875
0.1166534423828125,-0.828826904296875,-0.17449951171875
0.265533447265625,-0.8621673583984375,-0.236663818359375
0.2936859130859375,-0.8353271484375,-0.20440673828125
0.2769012451171875,-0.72918701171875,-0.12200927734375
0.24053955078125,-0.6917724609375,-0.066131591796875
0.2451629638671875,-0.82208251953125,-0.0546875
0.309600830078125,-0.9170379638671876,-0.1063079833984375
0.28765869140625,-0.947021484375,-0.2048492431640625
0.2559661865234375,-1.2735137939453125,-0.139129638671875
0.2523193359375,-1.2122955322265625,-0.1754913330078125
0.2079925537109375,-1.1204376220703125,-0.2928009033203125
0.1582183837890625,-1.0723876953125,-0.2420806884765625
0.166534423828125,-1.038360595703125,-0.242645263671875
-0.028289794921875,-0.8726959228515625,-0.199737548828125
0.0252685546875,-0.63983154296875,-0.3529510498046875
0.156768798828125,-0.7893829345703125,-0.3801116943359375
-0.00787353515625,-0.8104095458984375,-0.3016510009765625
0.19573974609375,-0.9001922607421875,-0.2843475341796875
0.264556884765625,-1.0070037841796875,-0.355743408203125
0.3184661865234375,-1.198089599609375,-0.39483642578125
0.232666015625,-1.2381591796875,-0.47955322265625
0.1921234130859375,-1.2916259765625,-0.4999847412109375
0.153717041015625,-1.2596282958984375,-0.525054931640625
0.11566162109375,-1.0800628662109375,-0.3426361083984375
0.183837890625,-1.2051544189453125,-0.2794036865234375
0.2536163330078125,-1.4317474365234375,-0.2417144775390625
0.142120361328125,-1.219757080078125,-0.1413116455078125
0.132293701171875,-0.8565521240234375,-0.178802490234375
0.104766845703125,-0.75201416015625,-0.109954833984375
-0.0038909912109375,-0.69140625,-0.1206207275390625
0.2185821533203125,-0.622314453125,-0.0862579345703125
0.355804443359375,-0.728271484375,-0.0810394287109375
0.34576416015625,-0.9543304443359376,-0.04766845703125
0.25634765625,-1.1305694580078125,-0.01385498046875
0.2022705078125,-1.006500244140625,-0.1530914306640625
0.2257232666015625,-1.2428131103515625,-0.14422607421875
0.38812255859375,-1.087249755859375,-0.3211822509765625
0.313262939453125,-1.0465850830078125,-0.473968505859375
0.12176513671875,-1.05322265625,-0.40814208984375
0.126861572265625,-1.057159423828125,-0.31011962890625
0.001953125,-0.8080902099609375,-0.2048187255859375
0.0283203125,-0.656890869140625,-0.19073486328125
0.000518798828125,-0.6622314453125,-0.1554412841796875
0.036102294921875,-0.743499755859375,-0.132568359375
0.208648681640625,-0.9063720703125,-0.188507080078125
0.3502197265625,-0.9802093505859376,-0.2856597900390625
0.3942413330078125,-1.10675048828125,-0.351837158203125
0.36883544921875,-1.177642822265625,-0.4568634033203125
0.3289642333984375,-1.2830352783203125,-0.534149169921875
0.2734832763671875,-1.41546630859375,-0.509063720703125
0.174896240234375,-1.2163543701171875,-0.3272857666015625
0.0960235595703125,-1.1166229248046875,-0.2506866455078125
0.164154052734375,-1.1963043212890625,-0.223388671875
0.182769775390625,-1.1101531982421875,-0.23236083984375
0.2094879150390625,-0.8545684814453125,-0.2674102783203125
0.157257080078125,-0.69793701171875,-0.1761016845703125
-0.0172119140625,-0.6366119384765625,-0.1259918212890625
0.120452880859375,-0.6398773193359375,-0.1506805419921875
0.29632568359375,-0.7277679443359375,-0.1393585205078125
0.34088134765625,-0.876556396484375,-0.13116455078125
0.260162353515625,-1.07244873046875,-0.0803375244140625
0.1966705322265625,-1.2016143798828125,-0.02978515625
0.220703125,-1.2415618896484375,-0.0433349609375
0.2608795166015625,-1.30291748046875,-0.100616455078125
0.2176971435546875,-1.0806427001953125,-0.26666259765625
0.145721435546875,-0.9055938720703124,-0.3822021484375
0.1372528076171875,-0.993377685546875,-0.2894744873046875
0.090118408203125,-0.9607391357421876,-0.1216278076171875
-0.0325775146484375,-0.7372283935546875,-0.1011962890625
-0.0755157470703125,-0.59527587890625,-0.15557861328125
0.0517120361328125,-0.6103363037109375,-0.23126220703125
0.2556304931640625,-0.76763916015625,-0.21807861328125
0.2164154052734375,-0.9024658203125,-0.2885589599609375
0.2266082763671875,-1.0038299560546875,-0.3507080078125
0.2487030029296875,-1.193206787109375,-0.40557861328125
0.2888641357421875,-1.2684783935546875,-0.5341949462890625
0.1816558837890625,-1.263336181640625,-0.4832916259765625
0.1150970458984375,-1.2742919921875,-0.4485931396484375
0.05792236328125,-1.18719482421875,-0.3111572265625
0.0734100341796875,-1.055206298828125,-0.20452880859375
0.17730712890625,-1.1369476318359375,-0.2391510009765625
0.2304534912109375,-1.159423828125,-0.2401885986328125
0.2221527099609375,-0.9080047607421876,-0.2386932373046875
0.1793365478515625,-0.7628936767578125,-0.2521514892578125
0.148101806640625,-0.7193756103515625,-0.2217254638671875
0.171051025390625,-0.7336883544921875,-0.147430419921875
0.22857666015625,-0.770416259765625,-0.09429931640625
0.235687255859375,-0.8961334228515625,-0.0852508544921875
0.23663330078125,-1.094390869140625,-0.109344482421875
0.2345123291015625,-1.0948333740234375,-0.156982421875
0.1724395751953125,-1.0179595947265625,-0.1909942626953125
0.149169921875,-1.19647216796875,-0.1832122802734375
0.1893463134765625,-1.03887939453125,-0.3004608154296875
0.1558685302734375,-0.91888427734375,-0.358123779296875
0.1171722412109375,-1.0489501953125,-0.2838287353515625
0.0826873779296875,-1.0834808349609375,-0.2222747802734375
0.019439697265625,-0.88299560546875,-0.1845245361328125
-0.0119171142578125,-0.6508941650390625,-0.1656036376953125
0.077667236328125,-0.621002197265625,-0.1738128662109375
0.1085357666015625,-0.7355194091796875,-0.22491455078125
0.153076171875,-0.858673095703125,-0.3292999267578125
0.1396484375,-0.9781494140625,-0.403228759765625
0.1625823974609375,-1.1121673583984375,-0.44378662109375
0.1713409423828125,-1.2152862548828125,-0.5108642578125
0.09625244140625,-1.2743682861328125,-0.4025421142578125
0.0283355712890625,-1.3454437255859375,-0.396270751953125
-0.0467529296875,-1.2235260009765625,-0.305267333984375
0.1349639892578125,-1.162628173828125,-0.290496826171875
0.28271484375,-1.251068115234375,-0.366729736328125
0.22845458984375,-1.2593994140625,-0.32977294921875
0.16253662109375,-1.012664794921875,-0.2031097412109375
0.22998046875,-0.8355255126953125,-0.171600341796875
0.0292205810546875,-0.783233642578125,-0.1351318359375
0.0785675048828125,-0.7849273681640625,-0.120819091796875
0.0930023193359375,-0.758880615234375,-0.091033935546875
0.163177490234375,-0.7529754638671875,-0.1079254150390625
0.2637481689453125,-0.9101715087890624,-0.1247711181640625
0.31536865234375,-0.990264892578125,-0.1468353271484375
0.2529296875,-0.9440765380859376,-0.247528076171875
0.206878662109375,-1.1700592041015625,-0.2747955322265625
0.23834228515625,-1.094696044921875,-0.3583984375
0.115631103515625,-0.8964996337890625,-0.4320526123046875
0.05706787109375,-1.0187225341796875,-0.33905029296875
0.0250701904296875,-1.12054443359375,-0.240936279296875
-0.040191650390625,-0.89434814453125,-0.198333740234375
-0.008514404296875,-0.7130889892578125,-0.238494873046875
0.027587890625,-0.70428466796875,-0.2540435791015625
0.1214599609375,-0.8137359619140625,-0.2954559326171875
0.2365570068359375,-0.901275634765625,-0.3349456787109375
0.2434844970703125,-0.8781585693359375,-0.3800506591796875
0.235137939453125,-1.0647125244140625,-0.41607666015625
0.2160491943359375,-1.23602294921875,-0.4914093017578125
0.1676025390625,-1.4170684814453125,-0.502105712890625
0.0948028564453125,-1.535858154296875,-0.42462158203125
0.0052947998046875,-1.111907958984375,-0.2597198486328125
0.065643310546875,-1.0642852783203125,-0.2090911865234375
0.1017303466796875,-1.1192169189453125,-0.194549560546875
0.1753997802734375,-1.0825347900390625,-0.21563720703125
0.19976806640625,-0.9235076904296876,-0.2654876708984375
0.116912841796875,-0.7959747314453125,-0.2511444091796875
0.1172332763671875,-0.744384765625,-0.2253265380859375
0.157196044921875,-0.6893157958984375,-0.1437530517578125
0.1702728271484375,-0.691741943359375,-0.099334716796875
0.1717376708984375,-0.78057861328125,-0.1227569580078125
0.1260528564453125,-0.8771514892578125,-0.1583251953125
0.1881561279296875,-1.0686492919921875,-0.194091796875
0.225189208984375,-1.131866455078125,-0.281768798828125
0.1312103271484375,-1.3448638916015625,-0.2174530029296875
0.1546173095703125,-1.25616455078125,-0.2797698974609375
-0.043548583984375,-0.996978759765625,-0.27056884765625
-0.116241455078125,-1.03057861328125,-0.1606903076171875
0.2234039306640625,-1.09820556640625,-0.3731689453125
0.004608154296875,-0.801361083984375,-0.2287750244140625
-0.0003814697265625,-0.6345672607421875,-0.22412109375
0.0445556640625,-0.610198974609375,-0.1939849853515625
0.1337890625,-0.7140350341796875,-0.2200164794921875
0.0850677490234375,-0.8167877197265625,-0.2860565185546875
0.049560546875,-0.8405609130859375,-0.2429351806640625
0.148529052734375,-0.9893341064453124,-0.3846282958984375
0.161956787109375,-1.1581878662109375,-0.4904937744140625
0.0600433349609375,-1.199188232421875,-0.4087066650390625
0.1120452880859375,-1.4714202880859375,-0.4900970458984375
0.068878173828125,-1.415130615234375,-0.445648193359375
-0.0142974853515625,-1.106353759765625,-0.2528076171875
0.1851959228515625,-1.2296905517578125,-0.3363189697265625
0.2264862060546875,-1.320953369140625,-0.3509063720703125
0.0754547119140625,-1.08526611328125,-0.2092742919921875
0.0865325927734375,-0.875701904296875,-0.1339111328125
0.121246337890625,-0.7776031494140625,-0.151611328125
0.2024383544921875,-0.777313232421875,-0.1627960205078125
0.2386016845703125,-0.842071533203125,-0.214141845703125
0.214630126953125,-0.9390411376953124,-0.2090911865234375
0.2311859130859375,-0.8972930908203125,-0.251312255859375
0.3131256103515625,-0.991607666015625,-0.4485931396484375
0.2394561767578125,-0.78466796875,-0.63458251953125
0.131317138671875,-0.730804443359375,-0.5770416259765625
0.0795440673828125,-0.71484375,-0.5591278076171875
-0.008819580078125,-0.647613525390625,-0.5296630859375
-0.0271453857421875,-0.7268524169921875,-0.4834442138671875
-0.02197265625,-0.815582275390625,-0.419342041015625
-0.025115966796875,-0.8559417724609375,-0.395751953125
0.0025177001953125,-0.78082275390625,-0.346923828125
0.0094451904296875,-0.6785736083984375,-0.288177490234375
-0.0485992431640625,-0.71893310546875,-0.3967742919921875
0.0658721923828125,-0.7940826416015625,-0.5578460693359375
0.10003662109375,-0.8146820068359375,-0.595245361328125
0.107696533203125,-0.837158203125,-0.587677001953125
0.1443328857421875,-1.1135101318359375,-0.652069091796875
0.0445709228515625,-1.0926055908203125,-0.6488800048828125
0.046356201171875,-1.1320037841796875,-0.5372772216796875
0.0103912353515625,-1.15972900390625,-0.545928955078125
0.2401580810546875,-1.1917266845703125,-0.627197265625
0.189544677734375,-1.1890411376953125,-0.5589141845703125
0.2012481689453125,-1.2537078857421875,-0.4840850830078125
0.153656005859375,-1.18017578125,-0.422760009765625
0.0770111083984375,-0.94549560546875,-0.342132568359375
0.1195068359375,-0.8155364990234375,-0.316436767578125
0.2181854248046875,-0.79010009765625,-0.31658935546875
0.2083892822265625,-0.8039398193359375,-0.3005523681640625
0.2079315185546875,-0.7984771728515625,-0.333648681640625
0.127960205078125,-0.8097381591796875,-0.378662109375
0.0601043701171875,-0.7510986328125,-0.4735107421875
0.240692138671875,-0.8249969482421875,-0.599365234375
0.306610107421875,-0.888946533203125,-0.5844879150390625
0.17938232421875,-0.882537841796875,-0.5935516357421875
-0.040771484375,-0.6608123779296875,-0.5437774658203125
0.0023956298828125,-0.69647216796875,-0.3978271484375
0.080413818359375,-0.913055419921875,-0.4768524169921875
-0.0560150146484375,-0.9091796875,-0.5754852294921875
-0.043792724609375,-0.804901123046875,-0.44403076171875
-0.00958251953125,-0.7091827392578125,-0.40936279296875
0.0095977783203125,-0.608642578125,-0.494873046875
0.027313232421875,-0.6323089599609375,-0.578765869140625
-0.036376953125,-0.6591339111328125,-0.545257568359375
-0.0153961181640625,-0.675079345703125,-0.5632476806640625
0.0829620361328125,-0.8476409912109375,-0.7366180419921875
0.047576904296875,-0.9151458740234376,-0.8836212158203125
0.0348968505859375,-0.9841766357421876,-0.8333282470703125
0.0446319580078125,-0.9615478515625,-0.8618927001953125
0.05645751953125,-0.9024505615234376,-0.7847137451171875
0.1687774658203125,-0.9878082275390624,-0.7414703369140625
0.2054595947265625,-1.09735107421875,-0.759246826171875
0.1598663330078125,-1.084564208984375,-0.67095947265625
0.14556884765625,-0.8978424072265625,-0.5338287353515625
0.12127685546875,-0.7002410888671875,-0.4294281005859375
0.11328125,-0.608428955078125,-0.4008941650390625
0.1448516845703125,-0.60137939453125,-0.421295166015625
0.0915069580078125,-0.5912017822265625,-0.376922607421875
0.0838470458984375,-0.63287353515625,-0.3517303466796875
0.1434173583984375,-0.7615203857421875,-0.3757171630859375
0.122802734375,-0.879852294921875,-0.4217376708984375
0.16314697265625,-0.943267822265625,-0.4892578125
0.1446380615234375,-1.0533447265625,-0.5106353759765625
0.034912109375,-1.018890380859375,-0.5187835693359375
-0.006591796875,-0.9057159423828124,-0.517822265625
-0.011962890625,-1.1368865966796875,-0.3084564208984375
0.0573272705078125,-1.225830078125,-0.2882232666015625
-0.009918212890625,-0.9588165283203124,-0.3614044189453125
-0.1118011474609375,-0.6798095703125,-0.303009033203125
-0.0066070556640625,-0.6323089599609375,-0.323638916015625
0.016937255859375,-0.7057647705078125,-0.38043212890625
0.051605224609375,-0.8342742919921875,-0.4122314453125
0.0143280029296875,-0.8217010498046875,-0.46600341796875
0.1126861572265625,-0.995452880859375,-0.5114898681640625
0.1015625,-1.08880615234375,-0.5352020263671875
0.1481781005859375,-1.1469268798828125,-0.5469970703125
0.1804656982421875,-1.45306396484375,-0.5282745361328125
0.1614532470703125,-1.2522735595703125,-0.479400634765625
0.14849853515625,-0.9650726318359376,-0.371673583984375
0.22174072265625,-1.1505889892578125,-0.290618896484375
0.312744140625,-1.222137451171875,-0.3319549560546875
0.2617340087890625,-1.0429229736328125,-0.3227996826171875
0.256805419921875,-0.8411407470703125,-0.2236480712890625
0.2120208740234375,-0.7558441162109375,-0.1825103759765625
0.2281494140625,-0.6903076171875,-0.1951904296875
0.25921630859375,-0.6938018798828125,-0.2480316162109375
0.299560546875,-0.734771728515625,-0.28173828125
0.2950592041015625,-0.7648468017578125,-0.3237152099609375
0.42413330078125,-0.825897216796875,-0.3896942138671875
0.3009490966796875,-0.8939666748046875,-0.483978271484375
0.1949005126953125,-1.0735626220703125,-0.482513427734375
0.0738525390625,-1.0651397705078125,-0.490753173828125
-0.0365447998046875,-0.8542327880859375,-0.3910064697265625
-0.0198822021484375,-0.99041748046875,-0.21453857421875
-0.003509521484375,-1.18603515625,-0.1722259521484375
-0.022857666015625,-1.1826324462890625,-0.2534332275390625
-0.095794677734375,-1.11334228515625,-0.3875579833984375
0.0401458740234375,-0.85687255859375,-0.4302978515625
0.07183837890625,-0.7811279296875,-0.27734375
-0.171844482421875,-0.76910400390625,-0.375762939453125
-0.0081939697265625,-0.5691680908203125,-0.4842987060546875
0.002716064453125,-0.5184326171875,-0.3866424560546875
0.1746368408203125,-0.555755615234375,-0.302886962890625
0.1231689453125,-0.73321533203125,-0.22705078125
0.0068206787109375,-0.834197998046875,-0.2810821533203125
0.2304534912109375,-0.9699554443359376,-0.2122344970703125
0.4383087158203125,-1.1376800537109375,-0.1657562255859375
0.64739990234375,-1.26373291015625,-0.1284637451171875
0.3494720458984375,-1.1827850341796875,0.0154266357421875
0.4281158447265625,-1.07476806640625,0.018890380859375
0.3170623779296875,-0.91558837890625,-0.0423126220703125
0.3658599853515625,-0.8399810791015625,-0.1002655029296875
0.3495025634765625,-0.79052734375,-0.0675506591796875
0.23529052734375,-0.769775390625,-0.000396728515625
0.20263671875,-0.833038330078125,0.006378173828125
0.2686767578125,-0.7400054931640625,0.0176849365234375
0.0438079833984375,-0.8568572998046875,0.0446319580078125
0.0374603271484375,-0.9337005615234376,0.0792083740234375
0.0516815185546875,-0.914154052734375,0.04296875
0.0775146484375,-0.874542236328125,0.0677337646484375
0.0680084228515625,-1.0904998779296875,0.06939697265625
0.0995635986328125,-1.1986846923828125,0.0264129638671875
0.2709503173828125,-1.378753662109375,0.0844879150390625
0.2290496826171875,-1.3940277099609375,-0.09796142578125
-0.07476806640625,-1.1735382080078125,-0.1950531005859375
0.149932861328125,-0.8903961181640625,-0.1417999267578125
-0.1321563720703125,-1.2388763427734375,0.0598907470703125
0.1076812744140625,-1.144439697265625,-0.3717041015625
0.286895751953125,-0.9882659912109376,-0.068267822265625
0.30352783203125,-0.9476470947265624,-0.27703857421875
0.302093505859375,-0.9971466064453124,-0.5782318115234375
0.0410308837890625,-1.0114288330078125,-0.0537567138671875
0.182647705078125,-0.8612060546875,-0.7630462646484375
-0.0080718994140625,-0.7058868408203125,-0.5682830810546875
0.0774383544921875,-0.68621826171875,-0.60675048828125
0.116424560546875,-0.8042755126953125,-0.713714599609375
0.0902557373046875,-0.8068084716796875,-0.636566162109375
0.150390625,-0.69708251953125,-0.756103515625
0.2126007080078125,-0.6696929931640625,-0.7371826171875
0.1780242919921875,-0.768646240234375,-0.670806884765625
0.179962158203125,-0.7041778564453125,-0.6757354736328125
0.2081146240234375,-0.7222747802734375,-0.63861083984375
0.223663330078125,-0.7542266845703125,-0.68023681640625
0.2680206298828125,-0.7459869384765625,-0.6649017333984375
0.2171478271484375,-0.71246337890625,-0.696197509765625
0.2151641845703125,-0.707855224609375,-0.6627349853515625
0.2772064208984375,-0.7088470458984375,-0.6836700439453125
0.3107452392578125,-0.6862945556640625,-0.53155517578125
0.2141876220703125,-0.6712646484375,-0.6580657958984375
0.2130126953125,-0.71697998046875,-0.6770782470703125
0.1791839599609375,-0.724822998046875,-0.65478515625
0.253753662109375,-0.7036285400390625,-0.6870269775390625
