AccelerationX,AccelerationY,AccelerationZ
0.0450897216796875,-0.0747222900390625,-0.9795379638671876
0.066741943359375,-0.088623046875,-0.9152069091796876
0.0522613525390625,-0.1048736572265625,-0.893524169921875
0.0300445556640625,-0.17584228515625,-0.9910888671875
0.1785430908203125,-0.1829986572265625,-0.9153594970703124
0.2486724853515625,-0.148712158203125,-0.8855438232421875
0.3737945556640625,-0.235198974609375,-1.045196533203125
0.2618865966796875,-0.2433929443359375,-1.00701904296875
0.327728271484375,-0.194122314453125,-0.908660888671875
0.2403564453125,-0.169219970703125,-0.8879852294921875
0.3187713623046875,-0.1753997802734375,-0.857452392578125
0.38348388671875,-0.207000732421875,-0.83453369140625
0.498565673828125,-0.111297607421875,-1.0557708740234375
0.4492034912109375,-0.127716064453125,-0.8449554443359375
0.4753265380859375,-0.138946533203125,-0.760467529296875
0.4186859130859375,-0.07666015625,-0.77197265625
0.315765380859375,-0.0260467529296875,-0.8744659423828125
0.3678131103515625,-0.0099334716796875,-0.921966552734375
0.3391876220703125,-0.0064239501953125,-0.888671875
0.2474365234375,0.01226806640625,-0.82861328125
0.1474151611328125,-0.0171356201171875,-0.8370208740234375
0.131439208984375,-0.0507049560546875,-0.9925994873046876
0.093719482421875,-0.0272674560546875,-0.93310546875
0.0872344970703125,0.018798828125,-0.9396514892578124
0.0530853271484375,-0.0535430908203125,-1.0970306396484375
0.025726318359375,-0.0603485107421875,-1.1037139892578125
0.0067596435546875,-0.0130157470703125,-1.0683441162109375
-0.078125,0.064605712890625,-1.117523193359375
-0.1094818115234375,0.0368194580078125,-1.1516571044921875
-0.0762939453125,-0.0077667236328125,-1.13629150390625
-0.06085205078125,-0.0819244384765625,-1.146270751953125
0.006561279296875,-0.1142578125,-1.1198577880859375
0.0182952880859375,-0.0479736328125,-1.02716064453125
-0.002471923828125,-0.1472320556640625,-1.00433349609375
-0.0108184814453125,-0.0413970947265625,-1.03070068359375
0.042144775390625,0.1516571044921875,-1.3099822998046875
0.0609893798828125,0.1915435791015625,-1.373931884765625
0.096405029296875,0.05047607421875,-1.0547637939453125
0.0400390625,0.0020599365234375,-0.9334259033203124
0.0409393310546875,0.077728271484375,-0.98736572265625
0.146270751953125,0.2724609375,-1.105560302734375
0.1779327392578125,0.3556060791015625,-1.178070068359375
0.2144622802734375,0.2133331298828125,-1.115081787109375
0.2466278076171875,0.136474609375,-1.0399932861328125
0.2219085693359375,0.192138671875,-1.0138397216796875
0.1932220458984375,0.2254486083984375,-1.0191802978515625
0.1620941162109375,0.2554931640625,-1.0029144287109375
0.1284027099609375,0.2566375732421875,-0.9553375244140624
0.0868682861328125,0.2411651611328125,-0.901611328125
0.0426483154296875,0.230712890625,-0.84808349609375
0.00537109375,0.239715576171875,-0.823638916015625
-0.005157470703125,0.23870849609375,-0.8019561767578125
0.0585784912109375,0.1965789794921875,-0.81610107421875
0.013153076171875,0.2630615234375,-0.848907470703125
-0.01080322265625,0.184967041015625,-0.9490966796875
-0.0242767333984375,0.14422607421875,-0.9978179931640624
-0.011199951171875,0.111572265625,-1.1316986083984375
-0.0115509033203125,0.2260894775390625,-1.371978759765625
0.1773223876953125,0.1596832275390625,-1.23614501953125
0.1694183349609375,0.0829315185546875,-1.16339111328125
0.1644744873046875,-0.061767578125,-1.1390533447265625
0.2024993896484375,-0.1108856201171875,-0.9183349609375
0.151611328125,-0.0371551513671875,-0.946533203125
0.095306396484375,0.12774658203125,-1.0705718994140625
0.06158447265625,0.171173095703125,-1.1072998046875
0.0615081787109375,0.096710205078125,-0.9695587158203124
-0.008453369140625,-0.00225830078125,-0.989288330078125
-0.104583740234375,-0.0386505126953125,-1.056915283203125
-0.0267486572265625,-0.0209197998046875,-1.085357666015625
-0.019927978515625,0.0709991455078125,-0.9920501708984376
0.0616302490234375,-0.0399322509765625,-1.027130126953125
0.0786895751953125,0.0904998779296875,-0.9444122314453124
0.138275146484375,0.08551025390625,-0.9563140869140624
0.1527557373046875,0.1489410400390625,-0.9499664306640624
0.19256591796875,0.1657562255859375,-0.9120330810546876
0.1209259033203125,0.1790618896484375,-0.9452667236328124
0.16241455078125,0.116973876953125,-0.9178009033203124
0.1199493408203125,0.1725006103515625,-0.9746856689453124
0.1082305908203125,0.167083740234375,-1.045745849609375
0.1119384765625,0.2823944091796875,-1.2374420166015625
0.097900390625,0.214263916015625,-1.14141845703125
0.050445556640625,0.124847412109375,-1.1093902587890625
0.0589141845703125,0.002349853515625,-0.9900360107421876
0.097625732421875,-0.0204010009765625,-0.9330596923828124
0.15185546875,0.1529083251953125,-1.14239501953125
0.2226104736328125,0.2383270263671875,-1.1564788818359375
0.1750335693359375,0.209716796875,-1.1251068115234375
0.071014404296875,0.202239990234375,-1.068206787109375
0.030364990234375,0.2225494384765625,-1.010528564453125
0.1011810302734375,0.13665771484375,-0.938751220703125
0.1182861328125,0.1063385009765625,-0.870758056640625
0.13128662109375,0.0682220458984375,-0.849212646484375
0.0734710693359375,0.0869903564453125,-0.8942718505859375
0.018646240234375,0.1241912841796875,-0.950042724609375
-0.00213623046875,0.133514404296875,-0.9437103271484376
-0.0079498291015625,0.10003662109375,-0.9075775146484376
-0.066802978515625,0.0666961669921875,-0.864593505859375
-0.09326171875,0.131622314453125,-0.9175872802734376
-0.0464630126953125,0.1195526123046875,-0.8804473876953125
0.0281524658203125,0.009765625,-0.8115386962890625
-0.00103759765625,-0.023834228515625,-0.8495025634765625
-0.0008697509765625,0.0428924560546875,-1.0323333740234375
0.046051025390625,0.11846923828125,-1.0485687255859375
0.134613037109375,0.4146270751953125,-1.4788818359375
0.22344970703125,0.3541259765625,-1.3599700927734375
0.126251220703125,0.06591796875,-0.89105224609375
0.0532073974609375,-0.110626220703125,-0.9100341796875
0.061920166015625,-0.0137176513671875,-1.101318359375
0.071380615234375,0.13067626953125,-1.1055145263671875
0.0438690185546875,0.1886138916015625,-1.0652618408203125
0.065460205078125,0.2041778564453125,-0.99395751953125
0.05560302734375,0.19329833984375,-0.944091796875
0.047637939453125,0.152679443359375,-0.90472412109375
0.043548583984375,0.1513214111328125,-0.88018798828125
0.033660888671875,0.166748046875,-0.8836517333984375
0.0383758544921875,0.19769287109375,-0.927459716796875
0.0696258544921875,0.2105865478515625,-0.96490478515625
0.100433349609375,0.197906494140625,-0.983734130859375
0.0958404541015625,0.167388916015625,-0.9813079833984376
0.0621795654296875,0.1295166015625,-0.9635009765625
0.0320892333984375,0.1192779541015625,-0.97625732421875
-0.0106201171875,0.12353515625,-0.9764862060546876
0.0065155029296875,0.135406494140625,-0.9791107177734376
0.0212249755859375,0.1450042724609375,-1.033660888671875
0.0525665283203125,0.112823486328125,-1.0317535400390625
0.0417938232421875,0.0973968505859375,-1.116607666015625
0.0797882080078125,0.1312103271484375,-1.219329833984375
0.097259521484375,0.0834808349609375,-1.0930938720703125
0.078277587890625,0.080474853515625,-1.0545501708984375
0.0760498046875,0.1363372802734375,-1.0411529541015625
0.0694732666015625,0.118377685546875,-0.948486328125
0.0385589599609375,0.0849456787109375,-0.913330078125
0.0421600341796875,0.17864990234375,-1.073516845703125
0.051422119140625,0.272674560546875,-1.1830291748046875
0.0902099609375,0.2174530029296875,-1.1070404052734375
0.0704193115234375,0.218902587890625,-1.02117919921875
0.044281005859375,0.2098388671875,-0.97406005859375
0.032684326171875,0.22796630859375,-0.96649169921875
0.0250244140625,0.2210540771484375,-0.9530487060546876
0.028106689453125,0.2390289306640625,-0.9626617431640624
0.042877197265625,0.2343597412109375,-0.951812744140625
0.0912017822265625,0.2278289794921875,-0.95538330078125
0.1405029296875,0.18707275390625,-0.9064483642578124
0.1150665283203125,0.1714630126953125,-0.9481353759765624
0.17486572265625,0.17071533203125,-1.0086212158203125
0.2533111572265625,0.1329345703125,-1.0081329345703125
0.287261962890625,0.1044769287109375,-1.0581207275390625
0.331787109375,0.064422607421875,-1.0702362060546875
0.3458404541015625,0.0927581787109375,-1.081817626953125
0.329681396484375,0.1272430419921875,-1.1280670166015625
0.3306121826171875,0.163360595703125,-1.1021728515625
0.353851318359375,0.20855712890625,-1.1471099853515625
0.4098052978515625,0.259246826171875,-1.142486572265625
0.4149627685546875,0.217132568359375,-0.95556640625
0.42669677734375,0.1427154541015625,-0.8256988525390625
0.4117279052734375,0.1430206298828125,-0.9276885986328124
0.3394317626953125,0.1241912841796875,-1.052154541015625
0.25811767578125,0.0320587158203125,-0.9588470458984376
0.22430419921875,-0.0293731689453125,-0.9017791748046876
0.2049407958984375,-0.0270538330078125,-0.950592041015625
0.21539306640625,-0.0066375732421875,-1.0239410400390625
0.2281341552734375,-0.0192718505859375,-1.086273193359375
0.2261199951171875,-0.0678558349609375,-1.0693511962890625
0.19903564453125,-0.094146728515625,-1.095245361328125
0.1451568603515625,-0.12078857421875,-1.1066436767578125
0.090423583984375,-0.13934326171875,-1.1021270751953125
0.052001953125,-0.132904052734375,-1.109527587890625
0.0272216796875,-0.1608123779296875,-1.0645904541015625
0.0225982666015625,-0.1509246826171875,-1.090667724609375
0.082244873046875,-0.0255889892578125,-1.34619140625
0.0587921142578125,-0.06488037109375,-1.3824005126953125
0.06781005859375,-0.1376190185546875,-1.2772369384765625
0.080718994140625,-0.0770263671875,-1.1369781494140625
0.116546630859375,-0.0117950439453125,-1.0165252685546875
0.1464385986328125,0.071197509765625,-1.0755767822265625
0.1568603515625,0.188629150390625,-1.1702423095703125
0.1903533935546875,0.2819366455078125,-1.228759765625
0.2116851806640625,0.3148345947265625,-1.2226409912109375
0.2080078125,0.310455322265625,-1.117584228515625
0.1883087158203125,0.2863922119140625,-1.0079193115234375
0.146087646484375,0.273956298828125,-0.975189208984375
0.114013671875,0.2579803466796875,-0.97613525390625
0.1098785400390625,0.228271484375,-0.8936614990234375
0.098419189453125,0.19818115234375,-0.8486785888671875
0.07672119140625,0.162567138671875,-0.791046142578125
0.056884765625,0.13616943359375,-0.7462921142578125
0.023345947265625,0.114105224609375,-0.7140655517578125
-0.023468017578125,0.1125030517578125,-0.8116455078125
-0.012664794921875,0.12152099609375,-0.86248779296875
0.0310516357421875,0.1132659912109375,-0.8975067138671875
0.0331268310546875,0.1284332275390625,-0.9962921142578124
0.0678863525390625,0.0997161865234375,-1.06646728515625
0.131317138671875,0.168304443359375,-1.1693115234375
0.16595458984375,0.1999969482421875,-1.1749420166015625
0.198974609375,0.317535400390625,-1.3845367431640625
0.28131103515625,0.3804168701171875,-1.4174957275390625
0.298980712890625,0.251007080078125,-1.122650146484375
0.204681396484375,0.1356964111328125,-0.918182373046875
0.174713134765625,0.0161285400390625,-0.8594970703125
0.160797119140625,0.0462188720703125,-1.0177764892578125
0.1587677001953125,0.098724365234375,-1.118408203125
0.0823211669921875,0.0488433837890625,-1.0546722412109375
0.0252685546875,-0.012237548828125,-0.991851806640625
-0.024688720703125,-0.0358734130859375,-0.9494781494140624
-0.009490966796875,-0.00421142578125,-0.899566650390625
-0.000213623046875,0.0520477294921875,-0.933349609375
0.0346527099609375,0.09088134765625,-1.005584716796875
0.0619049072265625,0.084228515625,-0.9944305419921876
0.0592041015625,0.053314208984375,-0.942779541015625
0.0469207763671875,0.0496673583984375,-0.956573486328125
0.0396728515625,0.04290771484375,-0.9709014892578124
0.060760498046875,0.07965087890625,-1.0322418212890625
0.0950469970703125,0.11376953125,-0.9846954345703124
0.08551025390625,0.143707275390625,-0.964630126953125
0.0189666748046875,0.184417724609375,-1.04534912109375
-0.00537109375,0.159271240234375,-1.1247406005859375
0.01959228515625,0.1764678955078125,-1.281494140625
-0.009063720703125,0.1128692626953125,-1.477081298828125
-0.0465087890625,0.0830078125,-1.503631591796875
0.010650634765625,0.0949249267578125,-1.254638671875
0.0532989501953125,0.070159912109375,-1.021728515625
0.0696868896484375,0.1649017333984375,-1.0326080322265625
0.096771240234375,0.2068634033203125,-0.9867095947265624
0.054168701171875,0.1851806640625,-0.96429443359375
-0.0119781494140625,0.1651763916015625,-0.973236083984375
0.016937255859375,0.1610107421875,-0.96807861328125
0.0356597900390625,0.2143707275390625,-1.0009613037109375
0.0709075927734375,0.2256317138671875,-0.9500732421875
0.069091796875,0.23284912109375,-0.9015350341796876
0.0649871826171875,0.225250244140625,-0.8772735595703125
0.06103515625,0.19708251953125,-0.8226165771484375
0.0074005126953125,0.14825439453125,-0.785308837890625
-0.0445404052734375,0.11773681640625,-0.7553253173828125
-0.0780029296875,0.10772705078125,-0.757354736328125
-0.0826416015625,0.150848388671875,-0.82708740234375
-0.04083251953125,0.1160888671875,-0.8585052490234375
-0.0412445068359375,0.1220550537109375,-1.0416717529296875
-0.0315399169921875,0.13275146484375,-1.221588134765625
-0.006195068359375,0.1386871337890625,-1.2647857666015625
0.0569915771484375,0.29278564453125,-1.559844970703125
0.03955078125,0.2977447509765625,-1.535400390625
0.066741943359375,-0.0069122314453125,-0.9357147216796876
0.0731658935546875,-0.1539459228515625,-0.6939849853515625
0.078521728515625,-0.1100921630859375,-0.8489227294921875
0.1476898193359375,0.11553955078125,-1.1453857421875
0.179718017578125,0.205230712890625,-1.21868896484375
0.0980682373046875,0.14508056640625,-1.0548858642578125
0.063323974609375,0.117431640625,-0.895599365234375
0.047454833984375,0.1083831787109375,-0.847900390625
0.0260772705078125,0.1476287841796875,-0.8659210205078125
0.017608642578125,0.171356201171875,-0.9178619384765624
0.040191650390625,0.1589202880859375,-0.9659576416015624
0.0359039306640625,0.12835693359375,-0.9650421142578124
0.023681640625,0.119476318359375,-0.981109619140625
0.0540008544921875,0.0851287841796875,-0.985870361328125
-0.00958251953125,0.0971221923828125,-1.0234222412109375
-0.0023651123046875,0.0791015625,-0.976715087890625
0.0360260009765625,0.1125640869140625,-0.968505859375
0.029632568359375,0.1427459716796875,-1.0646514892578125
0.00885009765625,0.1891937255859375,-1.2522125244140625
0.027862548828125,0.1910858154296875,-1.2460479736328125
0.03375244140625,0.1277008056640625,-1.1373138427734375
0.07275390625,0.2055511474609375,-1.2024688720703125
0.118896484375,0.167694091796875,-1.1059417724609375
0.072784423828125,0.084808349609375,-0.9308013916015624
0.073699951171875,0.0938568115234375,-0.92889404296875
0.0927581787109375,0.24481201171875,-1.1036224365234375
0.0947113037109375,0.3129119873046875,-1.2109222412109375
0.128570556640625,0.2547760009765625,-1.132965087890625
0.0897674560546875,0.2063140869140625,-0.984130859375
0.0517730712890625,0.2123260498046875,-0.9039306640625
0.0486602783203125,0.25653076171875,-0.884246826171875
0.05633544921875,0.274658203125,-0.8553619384765625
0.05316162109375,0.270660400390625,-0.822418212890625
0.0470733642578125,0.271453857421875,-0.8383636474609375
0.047454833984375,0.2770538330078125,-0.8834381103515625
0.068878173828125,0.254608154296875,-0.9176025390625
0.11822509765625,0.25238037109375,-0.96258544921875
0.1994476318359375,0.23455810546875,-1.0046844482421875
0.3167724609375,0.0684661865234375,-1.197296142578125
0.3995819091796875,-0.0410308837890625,-1.1370697021484375
0.3411712646484375,0.009765625,-1.224517822265625
0.332763671875,0.1548919677734375,-1.260101318359375
0.30279541015625,0.130828857421875,-1.0341339111328125
0.21380615234375,0.125396728515625,-0.8732452392578125
0.1567840576171875,0.1567840576171875,-0.8590087890625
0.185302734375,0.1502227783203125,-0.8704681396484375
0.1915740966796875,0.1903076171875,-0.9995880126953124
0.1714630126953125,0.25250244140625,-1.055633544921875
0.1807403564453125,0.229583740234375,-1.0032196044921875
0.14874267578125,0.189697265625,-0.980743408203125
0.1361541748046875,0.1807098388671875,-0.9696502685546876
0.1541595458984375,0.18450927734375,-0.9710540771484376
0.18182373046875,0.218109130859375,-1.0281219482421875
0.213897705078125,0.201904296875,-1.0278778076171875
0.2104034423828125,0.1589202880859375,-1.04486083984375
0.203582763671875,0.13330078125,-1.0400848388671875
0.19818115234375,0.1082611083984375,-1.001983642578125
0.133544921875,0.099578857421875,-0.99517822265625
0.091796875,0.0861968994140625,-1.012542724609375
0.0761566162109375,0.0984649658203125,-0.999359130859375
0.0524139404296875,0.0798492431640625,-0.9478302001953124
-0.0116424560546875,0.0435638427734375,-0.9865570068359376
-0.017333984375,0.0340423583984375,-1.0232696533203125
-0.0122222900390625,0.0549774169921875,-1.073455810546875
0.00384521484375,0.099212646484375,-1.205810546875
0.014617919921875,0.03607177734375,-1.14019775390625
-0.0092010498046875,0.0001373291015625,-1.0287628173828125
-0.0114593505859375,0.1172637939453125,-1.113372802734375
0.037628173828125,0.1959228515625,-1.13702392578125
0.0841827392578125,0.1441650390625,-0.9938507080078124
0.0738067626953125,0.190673828125,-1.0677032470703125
0.10064697265625,0.2478485107421875,-1.1138763427734375
0.141204833984375,0.2529754638671875,-1.04022216796875
0.1566314697265625,0.2208251953125,-0.9714508056640624
0.1501922607421875,0.2298736572265625,-0.9681243896484376
0.13671875,0.252960205078125,-1.0155792236328125
0.1359100341796875,0.2895050048828125,-0.912750244140625
0.2068328857421875,0.2844085693359375,-0.8287506103515625
0.154876708984375,0.2800750732421875,-0.835845947265625
0.0365447998046875,0.2291717529296875,-0.8837127685546875
0.0803375244140625,0.20379638671875,-0.9444732666015624
0.1568145751953125,0.20501708984375,-0.9514923095703124
0.096771240234375,0.2937774658203125,-0.9515838623046876
0.0911102294921875,0.2595367431640625,-0.9670562744140624
0.0588531494140625,0.207672119140625,-1.11151123046875
0.1464691162109375,0.338531494140625,-1.25213623046875
0.2366485595703125,0.4147186279296875,-1.3387451171875
0.2272796630859375,0.1813812255859375,-1.077117919921875
0.16571044921875,0.0621795654296875,-0.9208526611328124
0.1537017822265625,-0.0285797119140625,-0.8090057373046875
0.1502685546875,0.028594970703125,-0.8281097412109375
0.1764373779296875,0.1945037841796875,-1.0420989990234375
0.2020416259765625,0.314910888671875,-1.115997314453125
0.2371826171875,0.2454833984375,-1.0008697509765625
0.19183349609375,0.1562347412109375,-0.8918914794921875
0.118377685546875,0.156707763671875,-0.8834381103515625
0.088775634765625,0.232635498046875,-0.9094390869140624
0.1111297607421875,0.2762603759765625,-0.896087646484375
0.1367950439453125,0.30609130859375,-0.8742218017578125
0.1565399169921875,0.2719268798828125,-0.8713531494140625
0.140533447265625,0.2288360595703125,-0.931304931640625
0.1332244873046875,0.1891632080078125,-0.9492645263671876
0.145233154296875,0.1671142578125,-0.9434814453125
0.146514892578125,0.1851806640625,-0.9498291015625
0.1596527099609375,0.2125396728515625,-0.9868621826171876
0.162933349609375,0.2391510009765625,-1.0644378662109375
0.2028656005859375,0.2417755126953125,-1.124664306640625
0.2494049072265625,0.369354248046875,-1.27850341796875
0.1959991455078125,0.3018798828125,-1.12225341796875
0.2299652099609375,0.2896881103515625,-1.0512542724609375
0.1518707275390625,0.164337158203125,-0.86279296875
0.154052734375,0.2194976806640625,-0.7917327880859375
0.193023681640625,0.411376953125,-0.73211669921875
0.1811065673828125,0.5592041015625,-1.001861572265625
0.2606201171875,0.48211669921875,-0.9213104248046876
0.23883056640625,0.3801422119140625,-0.87872314453125
0.2751922607421875,0.310089111328125,-0.8075103759765625
0.1944427490234375,0.37213134765625,-0.9039154052734376
0.2092132568359375,0.379119873046875,-0.924468994140625
0.21435546875,0.2918701171875,-0.9651947021484376
0.2088470458984375,0.2539520263671875,-0.9239349365234376
0.1619415283203125,0.3413848876953125,-0.9062347412109376
0.1648101806640625,0.2310943603515625,-0.955047607421875
0.140472412109375,0.1811981201171875,-0.9929046630859376
0.1717529296875,0.1547393798828125,-0.9670257568359376
0.1992340087890625,0.153472900390625,-0.9814910888671876
0.1923370361328125,0.153778076171875,-1.0186004638671875
0.2212066650390625,0.128570556640625,-1.011932373046875
0.2161712646484375,0.1553497314453125,-1.0242767333984375
0.24822998046875,0.3116912841796875,-1.2882537841796875
0.2481842041015625,0.2938079833984375,-1.1698150634765625
0.204071044921875,0.2198638916015625,-1.076141357421875
0.1062469482421875,0.195037841796875,-1.04473876953125
0.138427734375,0.0661773681640625,-0.7983551025390625
0.1064453125,0.0925140380859375,-0.7633514404296875
0.107513427734375,0.2346343994140625,-0.97784423828125
0.17681884765625,0.3856353759765625,-1.07733154296875
0.2109527587890625,0.376129150390625,-0.919036865234375
0.19720458984375,0.260650634765625,-0.8246917724609375
0.1151580810546875,0.1841583251953125,-0.8472137451171875
0.075103759765625,0.1526336669921875,-0.859649658203125
0.087921142578125,0.19061279296875,-0.8848724365234375
0.123565673828125,0.227569580078125,-0.9113616943359376
0.15240478515625,0.20672607421875,-0.9185943603515624
0.165557861328125,0.1483001708984375,-0.932403564453125
0.1187591552734375,0.0893707275390625,-0.9817047119140624
0.099456787109375,0.0699462890625,-0.9993133544921876
0.1335906982421875,0.0657196044921875,-1.0099334716796875
0.149261474609375,0.050140380859375,-1.0341339111328125
0.1497039794921875,0.02044677734375,-1.052001953125
0.2107391357421875,0.037994384765625,-1.134735107421875
0.2381744384765625,0.31488037109375,-1.376556396484375
0.205841064453125,0.457275390625,-1.2296600341796875
0.228302001953125,0.2449951171875,-1.090850830078125
0.2406463623046875,0.1783599853515625,-0.9031524658203124
0.1346435546875,0.2129364013671875,-0.745880126953125
0.0982208251953125,0.2818603515625,-0.790557861328125
0.0847625732421875,0.376007080078125,-1.0390625
0.145904541015625,0.278167724609375,-1.118377685546875
0.1336517333984375,0.3034820556640625,-0.965087890625
0.0982818603515625,0.3471221923828125,-0.8563232421875
0.087890625,0.34222412109375,-0.8870086669921875
0.107025146484375,0.3083038330078125,-0.965850830078125
0.1272430419921875,0.2053680419921875,-0.949188232421875
0.1100616455078125,0.13031005859375,-0.9514923095703124
0.09503173828125,0.145751953125,-0.9504547119140624
0.1133880615234375,0.1222991943359375,-0.9620819091796876
0.1749725341796875,0.1064910888671875,-1.0053253173828125
0.18365478515625,0.1064300537109375,-1.0370941162109375
0.175445556640625,0.0770111083984375,-1.011566162109375
0.179473876953125,0.0716094970703125,-0.9821319580078124
0.20489501953125,0.079742431640625,-1.0018310546875
0.2474365234375,0.089447021484375,-1.00299072265625
0.27618408203125,0.0911865234375,-0.9874725341796876
0.2672119140625,0.1121826171875,-1.1231536865234375
0.28057861328125,0.1120452880859375,-1.2213897705078125
0.2618865966796875,0.0391693115234375,-1.0263671875
0.1674041748046875,-0.0023040771484375,-0.8570709228515625
0.1054840087890625,-0.026397705078125,-0.8818359375
0.1102752685546875,-0.05133056640625,-0.9805755615234376
0.0995025634765625,-0.006927490234375,-1.03564453125
0.09698486328125,0.0190582275390625,-1.006591796875
0.1045379638671875,0.05255126953125,-0.9829864501953124
0.1389923095703125,0.06658935546875,-0.9527130126953124
0.1302490234375,0.0378570556640625,-0.95587158203125
0.172119140625,-0.0081024169921875,-0.9836883544921876
0.19940185546875,-0.0511474609375,-1.0294952392578125
0.233795166015625,-0.04559326171875,-1.0092010498046875
0.2379150390625,-0.0486297607421875,-0.98675537109375
0.2370758056640625,-0.057159423828125,-0.9777679443359376
0.225494384765625,-0.064544677734375,-0.9713134765625
0.2238311767578125,-0.0597991943359375,-0.986358642578125
0.23614501953125,-0.035125732421875,-0.9772186279296876
0.221832275390625,-0.0155029296875,-0.9912261962890624
0.208770751953125,-0.0096588134765625,-1.0041351318359375
0.1966094970703125,-0.0187530517578125,-0.9878997802734376
0.1645965576171875,-0.017181396484375,-0.9697113037109376
0.114013671875,-0.0296173095703125,-0.9847259521484376
0.1010894775390625,-0.01873779296875,-1.00726318359375
0.08941650390625,-0.05133056640625,-1.0105743408203125
0.059051513671875,-0.0958709716796875,-0.9772491455078124
0.0294952392578125,-0.113525390625,-0.9455413818359376
0.0529327392578125,-0.0642547607421875,-1.0138092041015625
0.09686279296875,-0.024993896484375,-1.1363677978515625
0.14288330078125,-0.0429534912109375,-1.1717376708984375
0.149200439453125,-0.10302734375,-1.052032470703125
0.1312255859375,-0.0802001953125,-0.9927978515625
0.11767578125,-0.02960205078125,-1.0042724609375
0.128509521484375,0.0021209716796875,-1.0303497314453125
0.15142822265625,0.0028228759765625,-1.0200042724609375
0.145263671875,0.0258331298828125,-1.057952880859375
0.16326904296875,0.0409698486328125,-1.0897064208984375
0.1764984130859375,0.03009033203125,-1.0975341796875
0.1760101318359375,0.0093994140625,-1.059112548828125
0.168609619140625,0.0120697021484375,-1.0373077392578125
0.1683502197265625,0.0470428466796875,-1.04522705078125
0.1444854736328125,0.04437255859375,-0.9891204833984376
0.12322998046875,0.0212860107421875,-0.9674224853515624
0.1195068359375,0.0062103271484375,-0.9107666015625
0.109466552734375,0.01055908203125,-0.8929290771484375
0.1125640869140625,0.01544189453125,-0.9062957763671876
0.1167449951171875,0.0219879150390625,-0.91424560546875
0.111419677734375,0.0355682373046875,-0.9225311279296876
0.0973663330078125,0.02935791015625,-0.93121337890625
0.0745697021484375,0.0355377197265625,-0.9857330322265624
0.0905609130859375,0.0566864013671875,-1.0237884521484375
0.179931640625,0.195709228515625,-1.2707672119140625
0.213592529296875,0.1201324462890625,-1.103912353515625
0.1787109375,0.04248046875,-0.91412353515625
0.163055419921875,-0.0651397705078125,-0.7848968505859375
0.1853790283203125,-0.134521484375,-0.81561279296875
0.22991943359375,0.0300445556640625,-1.1739044189453125
0.275299072265625,0.1398162841796875,-1.139739990234375
0.2534942626953125,0.132659912109375,-0.97149658203125
0.1794586181640625,0.0983428955078125,-0.9327239990234376
0.1649627685546875,0.1163330078125,-0.939239501953125
0.2014312744140625,0.1686553955078125,-0.935882568359375
0.239013671875,0.1823272705078125,-0.932708740234375
0.2789154052734375,0.1632080078125,-0.9465179443359376
0.320892333984375,0.1368408203125,-0.973602294921875
0.338897705078125,0.132293701171875,-1.02886962890625
0.2723846435546875,0.0645904541015625,-1.0172576904296875
0.1858367919921875,-0.0262451171875,-1.0118408203125
0.1337127685546875,-0.0512542724609375,-1.0569915771484375
0.1631622314453125,-0.00213623046875,-1.08770751953125
0.180511474609375,0.0004119873046875,-1.03643798828125
0.1487579345703125,0.011993408203125,-1.0832366943359375
0.1654052734375,0.017578125,-1.119598388671875
0.2126312255859375,0.1635284423828125,-1.3509063720703125
0.2320404052734375,0.1215362548828125,-1.2261199951171875
0.2219390869140625,0.0980682373046875,-1.1061553955078125
0.1506195068359375,0.0623931884765625,-1.0531768798828125
0.097869873046875,-0.0007476806640625,-1.00732421875
0.1490325927734375,0.1729736328125,-1.1228790283203125
0.1599273681640625,0.2854461669921875,-1.1668701171875
0.1692657470703125,0.256195068359375,-1.11376953125
0.1363983154296875,0.2151336669921875,-1.03936767578125
0.1278228759765625,0.19561767578125,-0.9456024169921876
0.1188201904296875,0.2306365966796875,-0.930084228515625
0.117279052734375,0.2359619140625,-0.857086181640625
0.10943603515625,0.2267913818359375,-0.777313232421875
0.096435546875,0.1891937255859375,-0.74871826171875
0.0866546630859375,0.1551361083984375,-0.781158447265625
0.092529296875,0.0851593017578125,-0.739349365234375
0.0764007568359375,0.0659332275390625,-0.8072509765625
0.0662841796875,0.1378631591796875,-0.907073974609375
0.0928802490234375,0.1397857666015625,-0.9803466796875
0.1706695556640625,0.1778717041015625,-1.056884765625
0.207275390625,0.1936798095703125,-1.1055145263671875
0.136016845703125,0.2541961669921875,-1.387847900390625
0.17236328125,0.327728271484375,-1.41802978515625
0.24029541015625,0.1247406005859375,-1.1435546875
0.221343994140625,-0.0097503662109375,-0.9393310546875
0.1917266845703125,-0.10009765625,-0.909332275390625
0.21282958984375,-0.040985107421875,-1.129364013671875
0.2438507080078125,0.1063079833984375,-1.178558349609375
0.213958740234375,0.1524810791015625,-0.993316650390625
0.1361541748046875,0.113372802734375,-0.8798980712890625
0.0988922119140625,0.099395751953125,-0.8761444091796875
0.0843963623046875,0.1431884765625,-0.8860626220703125
0.1363983154296875,0.1667022705078125,-0.8664703369140625
0.140472412109375,0.143341064453125,-0.9000091552734375
0.13153076171875,0.1005706787109375,-0.9577789306640624
0.1433563232421875,0.06561279296875,-0.9559326171875
0.1526947021484375,0.0286712646484375,-0.958465576171875
0.161346435546875,0.0633392333984375,-0.9690704345703124
0.1444854736328125,0.0539093017578125,-0.982574462890625
0.1543426513671875,0.0717010498046875,-1.045135498046875
0.1909332275390625,0.133453369140625,-1.172027587890625
0.223114013671875,0.1860198974609375,-1.283203125
0.2333526611328125,0.1014556884765625,-1.1655120849609375
0.1948089599609375,0.1421966552734375,-1.1725311279296875
0.142974853515625,0.1263275146484375,-1.0469970703125
0.1381378173828125,0.122406005859375,-0.926849365234375
0.0756988525390625,0.220001220703125,-1.0737457275390625
0.093292236328125,0.2841033935546875,-1.1724090576171875
0.105377197265625,0.3020782470703125,-1.1628875732421875
0.14544677734375,0.29400634765625,-1.0396575927734375
0.1491241455078125,0.2667388916015625,-0.931488037109375
0.0944061279296875,0.26812744140625,-0.937896728515625
0.0569000244140625,0.2837066650390625,-0.9524078369140624
0.0529327392578125,0.3000946044921875,-0.9640045166015624
0.062164306640625,0.3492431640625,-0.956390380859375
0.0628204345703125,0.3240203857421875,-0.906036376953125
0.066192626953125,0.280548095703125,-0.89007568359375
0.0810546875,0.3132171630859375,-0.9665374755859376
0.14288330078125,0.3547821044921875,-1.0655517578125
0.2372589111328125,0.364532470703125,-1.1007232666015625
0.3000946044921875,0.3976898193359375,-1.137603759765625
0.3457489013671875,0.3714599609375,-1.03863525390625
0.40386962890625,0.20703125,-0.874053955078125
0.416229248046875,0.129913330078125,-0.9389495849609376
0.422943115234375,0.078765869140625,-1.0823822021484375
0.41864013671875,0.0966796875,-1.1128082275390625
0.4105224609375,0.110321044921875,-1.0489959716796875
0.3871612548828125,0.080352783203125,-0.957000732421875
0.373504638671875,0.068634033203125,-1.01171875
0.4070892333984375,0.106964111328125,-1.0199737548828125
0.4212646484375,0.17352294921875,-1.0194244384765625
0.4162750244140625,0.192291259765625,-0.97247314453125
0.4144287109375,0.1701507568359375,-0.9612884521484376
0.4470367431640625,0.165283203125,-1.009490966796875
0.4696807861328125,0.0914154052734375,-1.0502777099609375
0.4228057861328125,0.02667236328125,-1.051513671875
0.3912353515625,-0.0131988525390625,-1.0220794677734375
0.320159912109375,-0.0534210205078125,-1.041046142578125
0.229644775390625,-0.0742950439453125,-1.085693359375
0.1405487060546875,-0.1222381591796875,-1.0800933837890625
0.126129150390625,-0.158355712890625,-1.0209197998046875
0.0767669677734375,-0.1631317138671875,-0.988616943359375
0.0801849365234375,-0.1237945556640625,-1.0688934326171875
0.104949951171875,-0.0830841064453125,-1.16156005859375
0.1181640625,-0.11370849609375,-1.07293701171875
0.097015380859375,-0.0995941162109375,-1.0543975830078125
0.095489501953125,0.012420654296875,-1.1236572265625
0.128265380859375,0.0636749267578125,-1.064697265625
0.12603759765625,0.0542755126953125,-0.9473114013671876
0.1239471435546875,0.06787109375,-0.991455078125
0.143798828125,0.154510498046875,-1.1238250732421875
0.1654052734375,0.185272216796875,-1.175567626953125
0.1820220947265625,0.1232147216796875,-1.0901336669921875
0.1782684326171875,0.0793914794921875,-1.006622314453125
0.1662750244140625,0.1269683837890625,-1.0135040283203125
0.1620635986328125,0.1733551025390625,-1.003662109375
0.160125732421875,0.1687469482421875,-0.95111083984375
0.146087646484375,0.143096923828125,-0.9237823486328124
0.1251220703125,0.130340576171875,-0.913330078125
0.108489990234375,0.0979766845703125,-0.8761749267578125
0.089935302734375,0.12664794921875,-0.92401123046875
0.0643157958984375,0.13897705078125,-0.9844970703125
0.0527496337890625,0.138519287109375,-1.1439208984375
0.0632781982421875,0.26483154296875,-1.3278350830078125
0.1140594482421875,0.133026123046875,-1.0164337158203125
0.06298828125,-0.0081024169921875,-0.911468505859375
0.03289794921875,-0.0424346923828125,-0.8844757080078125
0.09857177734375,-0.1294708251953125,-0.853515625
0.10565185546875,0.0459136962890625,-1.072601318359375
0.1721038818359375,0.15625,-1.195068359375
0.1594696044921875,0.099456787109375,-1.04888916015625
0.106536865234375,0.00518798828125,-0.9173736572265624
0.0697479248046875,0.0273590087890625,-0.9169921875
0.0829010009765625,0.087554931640625,-0.9270477294921876
0.125946044921875,0.125518798828125,-0.9303741455078124
0.1267547607421875,0.122802734375,-0.9492645263671876
0.118743896484375,0.0898895263671875,-0.9613189697265624
0.10931396484375,0.058135986328125,-0.9458465576171876
0.100341796875,0.0399169921875,-0.937042236328125
0.108123779296875,0.0255889892578125,-0.9536285400390624
0.12310791015625,0.0157012939453125,-1.03759765625
0.136322021484375,0.088348388671875,-0.9936981201171876
0.14898681640625,0.134429931640625,-1.0905303955078125
0.1335601806640625,0.1868438720703125,-1.2132110595703125
0.070953369140625,0.2751312255859375,-1.15692138671875
0.086822509765625,0.291534423828125,-1.025482177734375
0.0994110107421875,0.293792724609375,-1.0245819091796875
0.08807373046875,0.2138214111328125,-0.865447998046875
0.08929443359375,0.270111083984375,-0.8825225830078125
0.0777435302734375,0.2803497314453125,-1.053192138671875
0.04638671875,0.3031005859375,-1.02679443359375
0.11590576171875,0.2535858154296875,-0.9753265380859376
0.1021728515625,0.2380828857421875,-0.9015960693359376
0.131195068359375,0.301483154296875,-0.906463623046875
0.137908935546875,0.2355499267578125,-0.961517333984375
0.10333251953125,0.171478271484375,-0.9834747314453124
0.119537353515625,0.21356201171875,-0.9576263427734376
0.1464385986328125,0.070831298828125,-1.004302978515625
0.1800079345703125,0.0884857177734375,-1.000396728515625
0.1403961181640625,0.0503082275390625,-1.00341796875
0.1503143310546875,0.0806121826171875,-0.9685211181640624
0.1750030517578125,0.05303955078125,-0.9716796875
0.2030487060546875,0.071319580078125,-1.018890380859375
0.226409912109375,0.068145751953125,-1.0185546875
0.2353668212890625,0.0710296630859375,-1.14202880859375
0.257843017578125,0.1942596435546875,-1.457977294921875
0.29522705078125,0.114837646484375,-1.0563201904296875
0.23974609375,0.007904052734375,-0.9173126220703124
0.1674346923828125,-0.1087646484375,-0.9133148193359376
0.1697998046875,-0.1389007568359375,-0.9320068359375
0.182525634765625,0.0395660400390625,-1.1165771484375
0.1798858642578125,0.2214508056640625,-1.207244873046875
0.182830810546875,0.2550201416015625,-1.133056640625
0.1511688232421875,0.15350341796875,-0.9884490966796876
0.1094207763671875,0.0731353759765625,-0.9268951416015624
0.074066162109375,0.051239013671875,-0.9072113037109376
0.0500640869140625,0.00701904296875,-0.876068115234375
0.01617431640625,0.0716400146484375,-0.8700103759765625
0.070037841796875,0.1397247314453125,-0.838592529296875
0.0975341796875,0.1272735595703125,-0.8490753173828125
0.07342529296875,0.0704498291015625,-0.85467529296875
0.055908203125,0.0431060791015625,-0.885467529296875
0.0883941650390625,-0.007476806640625,-0.92791748046875
0.1746826171875,-0.0642547607421875,-1.0225830078125
0.323944091796875,-0.128448486328125,-1.0131378173828125
0.40130615234375,-0.235748291015625,-1.0787353515625
0.3461761474609375,-0.254364013671875,-1.144866943359375
0.3038787841796875,-0.2897186279296875,-1.1389617919921875
0.28033447265625,-0.159759521484375,-1.3422088623046875
0.2633209228515625,-0.0587310791015625,-1.2368927001953125
0.3073272705078125,-0.0958251953125,-1.0984649658203125
0.2625885009765625,-0.0150146484375,-1.0622100830078125
0.23284912109375,-0.032196044921875,-0.91943359375
0.2181549072265625,0.0552825927734375,-0.9727935791015624
0.2376556396484375,0.1429443359375,-1.062255859375
0.2623291015625,0.1365814208984375,-1.0493011474609375
0.289886474609375,0.1477203369140625,-1.0183258056640625
0.3442840576171875,0.1110687255859375,-1.0180206298828125
0.4166717529296875,0.0940399169921875,-0.9744720458984376
0.3665008544921875,0.129058837890625,-0.9636688232421876
0.341888427734375,0.1455230712890625,-0.8962249755859375
0.3254852294921875,0.1486968994140625,-0.886383056640625
0.2144927978515625,0.1174163818359375,-0.9558258056640624
0.1637115478515625,0.050079345703125,-0.960052490234375
0.1112213134765625,0.0772857666015625,-0.951416015625
0.0826263427734375,0.0948486328125,-0.9465789794921876
0.0777587890625,0.077850341796875,-0.9156341552734376
0.060821533203125,0.1165008544921875,-0.94342041015625
0.0617828369140625,0.131744384765625,-0.962860107421875
0.0720672607421875,0.132568359375,-0.952301025390625
0.048828125,0.16064453125,-1.0067901611328125
0.061737060546875,0.23028564453125,-1.201171875
0.132843017578125,0.2466583251953125,-1.2519378662109375
0.1626434326171875,0.189605712890625,-1.1244049072265625
0.0867462158203125,0.1619873046875,-0.993255615234375
0.054534912109375,0.061920166015625,-0.9145050048828124
0.0802459716796875,0.0192108154296875,-0.921539306640625
0.13873291015625,0.1523590087890625,-1.081756591796875
0.1343536376953125,0.2445068359375,-1.1593017578125
0.105010986328125,0.1409149169921875,-1.062286376953125
0.09478759765625,0.0677490234375,-0.9796905517578124
0.078521728515625,0.0214385986328125,-0.926483154296875
0.0507049560546875,0.0426483154296875,-0.9114532470703124
0.0688629150390625,0.0550079345703125,-0.95367431640625
0.1291351318359375,0.0779876708984375,-0.9704132080078124
0.150634765625,0.0669403076171875,-0.96051025390625
0.136199951171875,0.0459747314453125,-0.960357666015625
0.113861083984375,0.027740478515625,-0.942169189453125
0.1107177734375,0.0337982177734375,-0.96563720703125
0.109466552734375,0.053741455078125,-0.977691650390625
0.123870849609375,0.0872955322265625,-1.0063934326171875
0.1687164306640625,0.1297760009765625,-1.0251312255859375
0.1788177490234375,0.1587371826171875,-1.0137176513671875
0.1931304931640625,0.1166229248046875,-1.018890380859375
0.20367431640625,0.134307861328125,-1.0282440185546875
0.251617431640625,0.1719207763671875,-1.02227783203125
0.2564239501953125,0.1988372802734375,-0.962310791015625
0.295196533203125,0.2108154296875,-0.917510986328125
0.3248443603515625,0.2088775634765625,-0.8957672119140625
0.329254150390625,0.2001495361328125,-0.8752593994140625
0.30157470703125,0.1925201416015625,-0.9056243896484376
0.32867431640625,0.2115020751953125,-0.966552734375
0.3089752197265625,0.18585205078125,-1.01300048828125
0.288360595703125,0.090087890625,-1.0317840576171875
0.3266448974609375,0.02618408203125,-1.0223541259765625
0.3658447265625,0.028289794921875,-1.0052947998046875
0.3781585693359375,0.054595947265625,-1.022430419921875
0.3661041259765625,0.066162109375,-1.02862548828125
0.3384552001953125,0.0753326416015625,-1.0126495361328125
0.32391357421875,0.089263916015625,-1.0079498291015625
0.3009796142578125,0.0975494384765625,-0.9846649169921876
0.2746734619140625,0.0881500244140625,-0.965362548828125
0.2506866455078125,0.09552001953125,-0.967071533203125
0.2547607421875,0.1460418701171875,-1.0386199951171875
0.2588653564453125,0.14776611328125,-1.007965087890625
0.2570343017578125,0.103729248046875,-0.94573974609375
0.2399139404296875,0.1035003662109375,-1.0195159912109375
0.2459259033203125,0.1132965087890625,-1.0980224609375
0.2614288330078125,0.081756591796875,-1.0640869140625
0.2040557861328125,0.064849853515625,-0.9913482666015624
0.1461029052734375,0.0691070556640625,-0.9537353515625
0.143707275390625,0.0926055908203125,-0.908294677734375
0.1422576904296875,0.0982208251953125,-0.8676910400390625
0.1154937744140625,0.1072235107421875,-0.913787841796875
0.0951385498046875,0.136993408203125,-0.98895263671875
0.13641357421875,0.163330078125,-0.981597900390625
0.1494598388671875,0.0945281982421875,-0.9586181640625
0.162017822265625,0.0673065185546875,-0.94012451171875
0.1362152099609375,0.0387420654296875,-0.9521636962890624
0.1540679931640625,0.0579071044921875,-0.9864349365234376
0.1810760498046875,0.088836669921875,-1.0243377685546875
0.1825103759765625,0.09356689453125,-1.0410308837890625
0.1744232177734375,0.06854248046875,-1.02569580078125
0.1434173583984375,0.0438079833984375,-1.0168304443359375
0.1220855712890625,0.0405120849609375,-1.025146484375
0.1180267333984375,0.0361175537109375,-1.005279541015625
0.120269775390625,0.035919189453125,-0.9938507080078124
0.1204986572265625,0.035064697265625,-0.9805755615234376
0.1272430419921875,0.0307159423828125,-0.966217041015625
0.143524169921875,0.0402679443359375,-0.983306884765625
0.1764068603515625,0.124114990234375,-1.14764404296875
0.19268798828125,0.1352386474609375,-1.1743316650390625
0.21319580078125,-0.0098876953125,-0.9662628173828124
0.2104644775390625,-0.0032958984375,-0.8851470947265625
0.2369537353515625,0.071441650390625,-0.850433349609375
0.285247802734375,0.1570281982421875,-0.963470458984375
0.3191680908203125,0.2706146240234375,-1.2393341064453125
0.3904876708984375,0.1768798828125,-1.204742431640625
0.4145965576171875,0.06396484375,-1.0806427001953125
0.3193359375,0.0959625244140625,-0.9816131591796876
0.1976776123046875,0.2102203369140625,-0.914093017578125
0.1466217041015625,0.2725830078125,-0.9229278564453124
0.1268463134765625,0.24517822265625,-0.942413330078125
0.087860107421875,0.2267913818359375,-0.9462127685546876
0.1106414794921875,0.2435302734375,-0.9234619140625
0.132843017578125,0.2797393798828125,-0.895721435546875
0.16326904296875,0.2579193115234375,-0.8294677734375
0.149444580078125,0.2093505859375,-0.81988525390625
0.109588623046875,0.12371826171875,-0.8441314697265625
0.107452392578125,0.1357269287109375,-0.9227294921875
0.153656005859375,0.12579345703125,-0.944000244140625
0.1993560791015625,0.14398193359375,-1.0102081298828125
0.204315185546875,0.13763427734375,-1.0443267822265625
0.21142578125,0.1013946533203125,-1.0443572998046875
0.2448272705078125,0.06805419921875,-1.10455322265625
0.2783355712890625,0.0795745849609375,-1.140106201171875
0.34539794921875,0.1240997314453125,-1.2896881103515625
0.39105224609375,0.267333984375,-1.6371917724609375
0.35137939453125,0.090423583984375,-1.1406707763671875
0.2076416015625,0.0174407958984375,-1.020172119140625
0.165008544921875,-0.0273284912109375,-0.957427978515625
0.1816253662109375,-0.0237274169921875,-0.9192047119140624
0.1328582763671875,0.09112548828125,-0.939117431640625
0.1629791259765625,0.0884246826171875,-0.9227142333984376
0.1171112060546875,0.103759765625,-0.9785003662109376
0.082427978515625,0.0540924072265625,-0.9716033935546876
0.059478759765625,0.0257720947265625,-0.9561004638671876
0.0580596923828125,0.025726318359375,-0.94677734375
0.0894622802734375,0.0485687255859375,-0.97088623046875
0.1283416748046875,0.149749755859375,-1.0480499267578125
0.1447296142578125,0.1951446533203125,-1.0186767578125
0.1417236328125,0.1566314697265625,-0.94903564453125
0.1167449951171875,0.1020965576171875,-0.8615264892578125
0.06707763671875,0.0858917236328125,-0.87188720703125
0.045501708984375,0.11090087890625,-0.8990478515625
0.049835205078125,0.117919921875,-0.8964385986328125
0.0656280517578125,0.1163330078125,-0.9627532958984376
0.0792999267578125,0.1259307861328125,-1.0395355224609375
0.1637420654296875,0.16864013671875,-1.2084808349609375
0.1573333740234375,0.19696044921875,-1.3160247802734375
0.2207183837890625,0.125,-1.2305145263671875
0.2044830322265625,0.110565185546875,-1.1030426025390625
0.1289825439453125,-0.0036773681640625,-0.9470367431640624
0.11138916015625,-0.012603759765625,-0.9591522216796876
0.148040771484375,0.1043701171875,-1.0420074462890625
0.138580322265625,0.1479339599609375,-1.112640380859375
0.1282196044921875,0.13433837890625,-1.10955810546875
0.130126953125,0.152191162109375,-1.0727081298828125
0.1091766357421875,0.2465667724609375,-0.9819183349609376
0.1098175048828125,0.2227935791015625,-0.8657379150390625
0.048919677734375,0.1846466064453125,-0.8540191650390625
0.0354766845703125,0.1686553955078125,-0.850250244140625
0.0521087646484375,0.167633056640625,-0.8087158203125
0.0596466064453125,0.152313232421875,-0.8121490478515625
0.0747528076171875,0.132293701171875,-0.852386474609375
0.076263427734375,0.1136474609375,-0.85296630859375
0.073394775390625,0.1168060302734375,-0.8889312744140625
0.0829010009765625,0.112548828125,-0.965911865234375
0.1451568603515625,0.1033477783203125,-0.9640960693359376
0.17462158203125,0.1653289794921875,-1.0341949462890625
0.1697845458984375,0.1971893310546875,-1.1962738037109375
0.244476318359375,0.3268585205078125,-1.50372314453125
0.3453369140625,0.2289276123046875,-1.34051513671875
0.3484954833984375,0.0472564697265625,-1.083648681640625
0.220611572265625,-0.0821533203125,-0.8645477294921875
0.13995361328125,-0.063720703125,-0.9152679443359376
0.156402587890625,0.1299285888671875,-1.0744781494140625
0.2279052734375,0.237152099609375,-1.131683349609375
0.230224609375,0.1685791015625,-1.0002899169921875
0.1534423828125,0.1041107177734375,-0.8674468994140625
0.062774658203125,0.0827178955078125,-0.864715576171875
0.0251312255859375,0.1237335205078125,-0.9503631591796876
0.0810699462890625,0.15838623046875,-1.0021209716796875
0.1308746337890625,0.136993408203125,-0.9523773193359376
0.0949249267578125,0.1120758056640625,-0.96630859375
0.0600738525390625,0.09381103515625,-0.9615936279296876
0.0577545166015625,0.112640380859375,-0.9618377685546876
0.1362457275390625,0.1124420166015625,-0.91937255859375
0.1467437744140625,0.076751708984375,-0.9226226806640624
0.1246795654296875,0.086029052734375,-0.999420166015625
0.1638946533203125,0.1077728271484375,-0.99212646484375
0.192352294921875,0.2127227783203125,-1.10040283203125
0.153411865234375,0.35247802734375,-1.3875274658203125
0.2052154541015625,0.1943206787109375,-1.211639404296875
0.166412353515625,0.1742706298828125,-1.019500732421875
0.0389251708984375,0.1975555419921875,-0.880767822265625
0.0040130615234375,0.263885498046875,-0.9075775146484376
-0.00537109375,0.391845703125,-1.139862060546875
0.0091094970703125,0.4261016845703125,-1.08563232421875
-0.0020294189453125,0.5021209716796875,-0.9380035400390624
-0.036224365234375,0.4617919921875,-0.8808746337890625
0.017730712890625,0.3574371337890625,-0.868896484375
0.0431976318359375,0.2873992919921875,-0.8768768310546875
0.0855560302734375,0.2384490966796875,-0.9492034912109376
0.117279052734375,0.245574951171875,-0.989013671875
0.13458251953125,0.2613372802734375,-0.9329071044921876
0.1038360595703125,0.2723388671875,-0.9094696044921876
0.11932373046875,0.2749786376953125,-0.928955078125
0.1423797607421875,0.31427001953125,-0.96044921875
0.2197723388671875,0.299285888671875,-1.004638671875
0.289398193359375,0.3083648681640625,-1.1004180908203125
0.34136962890625,0.262237548828125,-1.09710693359375
0.36663818359375,0.2587738037109375,-1.1674652099609375
0.36285400390625,0.2599334716796875,-1.1609344482421875
0.340484619140625,0.201019287109375,-0.93731689453125
0.3138427734375,0.1213226318359375,-0.8253173828125
0.231719970703125,0.128936767578125,-0.89154052734375
0.232421875,0.1808013916015625,-0.956878662109375
0.2489013671875,0.274688720703125,-1.041961669921875
0.2441558837890625,0.269805908203125,-0.9994964599609376
0.20550537109375,0.2154541015625,-0.930694580078125
0.1352996826171875,0.1939849853515625,-0.9416656494140624
0.1347808837890625,0.196197509765625,-0.9954681396484376
0.198028564453125,0.2243804931640625,-0.99432373046875
0.2588043212890625,0.2411041259765625,-0.9763336181640624
0.269256591796875,0.223876953125,-0.94842529296875
0.2312774658203125,0.192718505859375,-0.923797607421875
0.242645263671875,0.1923065185546875,-0.9230194091796876
0.2566070556640625,0.203948974609375,-0.927276611328125
0.264190673828125,0.194122314453125,-0.931243896484375
0.239013671875,0.1794891357421875,-0.9568634033203124
0.2299346923828125,0.1517791748046875,-0.981689453125
0.2155609130859375,0.127349853515625,-1.047576904296875
0.1802825927734375,0.0879058837890625,-1.0708465576171875
0.1527099609375,0.0267791748046875,-1.0644989013671875
0.102813720703125,0.007049560546875,-1.069366455078125
0.074249267578125,0.028076171875,-1.10076904296875
0.07275390625,0.07757568359375,-1.176971435546875
0.06939697265625,0.0395660400390625,-1.091644287109375
0.0635986328125,-0.0116119384765625,-0.9983673095703124
0.0865325927734375,0.045806884765625,-1.0238189697265625
0.127105712890625,0.1033782958984375,-1.073760986328125
0.14068603515625,0.1095428466796875,-1.05718994140625
0.1399993896484375,0.1260986328125,-1.0591888427734375
0.1744232177734375,0.2392578125,-1.1751251220703125
0.246246337890625,0.3084259033203125,-1.2071075439453125
0.2877197265625,0.265411376953125,-1.10906982421875
0.2658233642578125,0.22479248046875,-1.022674560546875
0.239288330078125,0.2113189697265625,-0.9827880859375
0.2369842529296875,0.2308197021484375,-0.94775390625
0.233978271484375,0.2516937255859375,-0.9248046875
0.204742431640625,0.283905029296875,-0.90771484375
0.147369384765625,0.277557373046875,-0.895751953125
0.0750885009765625,0.2606201171875,-0.8814849853515625
0.0604248046875,0.2214813232421875,-0.8222808837890625
0.0265655517578125,0.2086334228515625,-0.8201446533203125
0.0093536376953125,0.196685791015625,-0.9734039306640624
0.0396575927734375,0.175262451171875,-1.0721893310546875
0.0449371337890625,0.2668914794921875,-1.32769775390625
0.0925750732421875,0.276641845703125,-1.406890869140625
0.140228271484375,0.0595245361328125,-1.131500244140625
0.154022216796875,-0.093841552734375,-0.8549652099609375
0.1192779541015625,-0.185699462890625,-0.7888031005859375
0.085601806640625,-0.1435394287109375,-1.0072174072265625
0.1068267822265625,0.0877532958984375,-1.2595977783203125
0.19317626953125,0.117584228515625,-1.1337127685546875
0.1393585205078125,0.0251312255859375,-0.952239990234375
0.03125,0.010101318359375,-0.9351806640625
0.020782470703125,0.053955078125,-0.9449615478515624
0.044708251953125,0.1020660400390625,-0.9587249755859376
0.0477447509765625,0.080841064453125,-0.9640350341796876
0.033660888671875,0.054412841796875,-1.00860595703125
0.042388916015625,0.035675048828125,-0.9868621826171876
0.051727294921875,0.0074920654296875,-0.9278717041015624
0.042755126953125,-0.0053253173828125,-0.90838623046875
0.06451416015625,0.0261688232421875,-0.9334716796875
0.0739898681640625,0.0389404296875,-0.993927001953125
0.09735107421875,0.0690155029296875,-1.1030426025390625
0.188568115234375,0.1175384521484375,-1.1853179931640625
0.2322235107421875,0.174774169921875,-1.220947265625
0.2000732421875,0.1459503173828125,-1.0982208251953125
0.14801025390625,0.172454833984375,-1.162261962890625
0.1390228271484375,0.1724395751953125,-1.025665283203125
0.1586456298828125,0.11920166015625,-0.91510009765625
0.1620941162109375,0.2425689697265625,-1.130035400390625
0.1710662841796875,0.3348236083984375,-1.196624755859375
0.208648681640625,0.2048187255859375,-1.01666259765625
0.120941162109375,0.1793670654296875,-0.8893280029296875
0.0865020751953125,0.1528167724609375,-0.9131927490234376
0.071746826171875,0.2146453857421875,-0.957244873046875
0.1121826171875,0.186431884765625,-0.962982177734375
0.0885772705078125,0.1387481689453125,-0.9457244873046876
0.0965423583984375,0.0497589111328125,-0.9831390380859376
0.07110595703125,0.01177978515625,-0.9792633056640624
0.0569305419921875,0.0222015380859375,-0.9697113037109376
0.130126953125,-0.037445068359375,-0.9882659912109376
0.08648681640625,-0.07672119140625,-0.9411773681640624
0.1256103515625,-0.0708465576171875,-0.9715728759765624
0.1735687255859375,-0.1284637451171875,-0.910797119140625
0.1937255859375,-0.07879638671875,-0.9461517333984376
0.239471435546875,-0.0988006591796875,-0.96173095703125
0.2186431884765625,0.03955078125,-1.0940093994140625
0.282470703125,0.078033447265625,-1.059112548828125
0.2983856201171875,-0.0025482177734375,-0.94818115234375
0.20819091796875,0.0794219970703125,-1.0370635986328125
0.2574462890625,0.1003265380859375,-0.994232177734375
0.2411041259765625,0.012176513671875,-0.916748046875
0.1857147216796875,-0.004241943359375,-0.928924560546875
0.1646728515625,0.136260986328125,-1.06060791015625
0.2087860107421875,0.2028961181640625,-1.0832977294921875
0.205963134765625,0.081512451171875,-0.9916839599609376
0.1951446533203125,-0.03057861328125,-0.964691162109375
0.137451171875,0.0110015869140625,-0.9821014404296876
0.1429595947265625,0.028289794921875,-1.0002899169921875
0.1815032958984375,0.0432891845703125,-0.96844482421875
0.1513824462890625,0.031524658203125,-0.954986572265625
0.1143951416015625,-0.0039825439453125,-0.9401397705078124
0.085296630859375,0.025909423828125,-0.94921875
0.0590972900390625,0.0186309814453125,-0.9380340576171876
0.0327606201171875,0.0128326416015625,-0.920684814453125
0.021270751953125,0.035186767578125,-0.898101806640625
-0.0150146484375,0.0916290283203125,-0.9161224365234376
0.005126953125,0.093170166015625,-0.902191162109375
-0.0392913818359375,0.195709228515625,-0.9867706298828124
-0.0404205322265625,0.1728363037109375,-0.9744110107421876
-0.023773193359375,0.1351165771484375,-0.983367919921875
-0.0444183349609375,0.2688446044921875,-1.1006927490234375
0.0003509521484375,0.2941741943359375,-1.093414306640625
0.03924560546875,0.2797393798828125,-1.026336669921875
0.04498291015625,0.2430419921875,-0.9491119384765624
0.0352630615234375,0.235626220703125,-0.94793701171875
0.0546875,0.22747802734375,-0.9716644287109376
0.0936279296875,0.2325286865234375,-1.00347900390625
0.0565338134765625,0.26019287109375,-1.0421905517578125
0.1080474853515625,0.193084716796875,-1.049468994140625
0.138397216796875,0.1813201904296875,-1.0665283203125
0.182373046875,0.1926727294921875,-1.0623016357421875
0.22308349609375,0.1616668701171875,-0.9859619140625
0.20660400390625,0.19097900390625,-0.99652099609375
0.20330810546875,0.204559326171875,-0.976593017578125
0.199310302734375,0.1626434326171875,-0.94580078125
0.201568603515625,0.152435302734375,-0.9593963623046876
0.233306884765625,0.148406982421875,-0.9607696533203124
0.277801513671875,0.157318115234375,-0.97979736328125
0.318023681640625,0.189208984375,-0.9940338134765624
0.341796875,0.2051849365234375,-0.9932403564453124
0.339813232421875,0.180023193359375,-0.9903717041015624
0.31640625,0.193817138671875,-0.9928131103515624
0.28302001953125,0.226531982421875,-0.9720458984375
0.26348876953125,0.230377197265625,-0.967193603515625
0.2322540283203125,0.26373291015625,-0.9576568603515624
0.1892547607421875,0.2723388671875,-0.92388916015625
0.148406982421875,0.3120269775390625,-1.05609130859375
0.1297760009765625,0.3758697509765625,-1.14794921875
0.14508056640625,0.2666168212890625,-0.94378662109375
0.1212310791015625,0.0842132568359375,-0.7667083740234375
0.0616455078125,0.0440216064453125,-0.818817138671875
0.034027099609375,0.1404876708984375,-1.0329742431640625
0.078399658203125,0.220123291015625,-1.1565704345703125
0.104339599609375,0.19598388671875,-1.0919342041015625
0.065887451171875,0.114654541015625,-0.991943359375
0.0615386962890625,0.0866851806640625,-0.932464599609375
0.04095458984375,0.123809814453125,-0.9285430908203124
0.02947998046875,0.1380615234375,-0.96295166015625
0.0431060791015625,0.1403350830078125,-0.9681549072265624
0.0734405517578125,0.130462646484375,-0.93658447265625
0.088287353515625,0.1437835693359375,-0.9512481689453124
0.0841064453125,0.1685333251953125,-1.0035247802734375
0.108428955078125,0.1543426513671875,-1.008697509765625
0.1045989990234375,0.1415557861328125,-0.9848175048828124
0.0924072265625,0.1300201416015625,-0.9507293701171876
0.1070709228515625,0.158416748046875,-0.9696502685546876
0.1050262451171875,0.2161407470703125,-1.078125
0.1044158935546875,0.2047882080078125,-1.157379150390625
0.12872314453125,0.2115478515625,-1.26837158203125
0.110687255859375,0.202239990234375,-1.251739501953125
0.110443115234375,0.1608428955078125,-1.1329803466796875
0.0947723388671875,0.176116943359375,-0.9725494384765624
0.0149383544921875,0.1656341552734375,-0.9394073486328124
-0.01409912109375,0.15826416015625,-1.018707275390625
0.0796356201171875,0.15716552734375,-1.0839080810546875
0.12945556640625,0.2011871337890625,-1.064544677734375
0.10406494140625,0.2445220947265625,-1.020355224609375
0.1170501708984375,0.273101806640625,-0.9975738525390624
0.0985870361328125,0.3762359619140625,-1.0223236083984375
0.064849853515625,0.4076385498046875,-0.99761962890625
0.0833892822265625,0.3663177490234375,-0.9170684814453124
0.0564117431640625,0.3409271240234375,-0.875701904296875
0.00762939453125,0.3461456298828125,-0.8622589111328125
0.006103515625,0.3649139404296875,-0.8575592041015625
0.0477142333984375,0.3463287353515625,-0.839141845703125
0.0562896728515625,0.3144378662109375,-0.8028411865234375
0.07574462890625,0.271575927734375,-0.8045196533203125
0.1160430908203125,0.2380523681640625,-0.8593597412109375
0.1422271728515625,0.2255706787109375,-0.95318603515625
0.1605072021484375,0.14324951171875,-1.062469482421875
0.1042633056640625,0.022613525390625,-1.2140960693359375
0.1978759765625,0.161773681640625,-1.4154205322265625
0.2352752685546875,0.1758270263671875,-1.4372406005859375
0.2178192138671875,-0.0845947265625,-1.1448211669921875
0.1815032958984375,-0.2616424560546875,-0.885589599609375
0.111968994140625,-0.2039337158203125,-0.8091888427734375
0.103515625,-0.0550384521484375,-0.953399658203125
0.099578857421875,0.0347900390625,-1.135955810546875
0.15216064453125,0.02099609375,-1.1090545654296875
0.1520233154296875,-0.0358734130859375,-0.9791107177734376
0.0895233154296875,-0.048614501953125,-0.93792724609375
0.0347900390625,-0.020050048828125,-0.9854278564453124
-0.008636474609375,0.0263519287109375,-1.0274200439453125
0.0142059326171875,0.092041015625,-1.0355377197265625
0.0945587158203125,0.0686798095703125,-1.0204620361328125
0.0788421630859375,0.04205322265625,-1.0189361572265625
0.0809783935546875,-0.02227783203125,-1.013580322265625
0.1086883544921875,0.0045013427734375,-0.996856689453125
0.1201019287109375,0.0334014892578125,-0.9986419677734376
0.106475830078125,0.0516510009765625,-0.999114990234375
0.0955963134765625,0.0420379638671875,-0.9696197509765624
0.084716796875,0.0438385009765625,-0.987030029296875
0.0419464111328125,0.09600830078125,-1.083892822265625
0.0638275146484375,0.09136962890625,-1.0909576416015625
0.093109130859375,0.1180419921875,-1.06689453125
0.14215087890625,0.1396484375,-0.9865570068359376
0.1428680419921875,0.188568115234375,-0.9400482177734376
0.1447906494140625,0.1554107666015625,-0.9451141357421876
0.1758575439453125,0.1967010498046875,-0.833251953125
0.1575164794921875,0.3257598876953125,-0.9016265869140624
0.1867828369140625,0.3609466552734375,-0.892974853515625
0.2252960205078125,0.304046630859375,-0.9216156005859376
0.199859619140625,0.2750396728515625,-0.984710693359375
0.18133544921875,0.26531982421875,-1.0016021728515625
0.197784423828125,0.2512664794921875,-0.974853515625
0.178955078125,0.246490478515625,-1.02093505859375
0.056549072265625,0.26898193359375,-1.0862579345703125
0.0215606689453125,0.3216094970703125,-1.0288543701171875
0.02276611328125,0.3390045166015625,-0.98516845703125
0.0832672119140625,0.34149169921875,-0.9810943603515624
0.0379791259765625,0.3702392578125,-1.1005706787109375
0.0100250244140625,0.40325927734375,-1.109893798828125
0.042633056640625,0.391876220703125,-1.0533599853515625
0.0165252685546875,0.3626708984375,-0.968292236328125
-0.0070037841796875,0.367523193359375,-0.92694091796875
0.012298583984375,0.33306884765625,-0.8826141357421875
0.0510711669921875,0.27227783203125,-0.858154296875
0.01806640625,0.2686920166015625,-0.855072021484375
-0.0429840087890625,0.1034393310546875,-0.8977813720703125
0.0354766845703125,-0.0610504150390625,-1.3286285400390625
0.2273101806640625,-0.0483245849609375,-1.1591033935546875
0.380767822265625,-0.1285858154296875,-1.0462188720703125
0.458984375,-0.3154754638671875,-0.927520751953125
0.1292266845703125,-0.4162139892578125,-0.964935302734375
0.087188720703125,-0.4106597900390625,-1.10577392578125
0.046142578125,-0.5365753173828125,-1.204620361328125
0.1588134765625,-0.3560638427734375,-1.34112548828125
0.1450347900390625,-0.17901611328125,-0.96746826171875
0.19866943359375,-0.378509521484375,-0.84161376953125
0.229461669921875,-0.397491455078125,-0.901519775390625
0.200836181640625,-0.4774932861328125,-1.002960205078125
0.1568450927734375,-0.30328369140625,-1.0115966796875
0.1620635986328125,-0.2347259521484375,-0.8919525146484375
-0.18121337890625,-0.27252197265625,-0.7039031982421875
-0.0574188232421875,-0.218994140625,-0.699920654296875
-0.033416748046875,-0.300201416015625,-0.7055816650390625
-0.0328369140625,-0.377655029296875,-0.7422943115234375
-0.1034088134765625,-0.397064208984375,-0.678558349609375
-0.0489959716796875,-0.37298583984375,-0.7879486083984375
-0.0250701904296875,-0.3495635986328125,-0.7684326171875
0.0123748779296875,-0.3701629638671875,-0.9451446533203124
-0.010894775390625,-0.4187774658203125,-1.2028656005859375
-0.0832061767578125,-0.4161224365234375,-1.2846527099609375
-0.0261688232421875,-0.2818450927734375,-1.2134552001953125
-0.0291900634765625,-0.2558746337890625,-1.0359649658203125
0.017181396484375,-0.244903564453125,-0.8169403076171875
-0.0019989013671875,-0.31207275390625,-0.9278411865234376
0.0295257568359375,-0.3499755859375,-0.95263671875
0.0130767822265625,-0.3760528564453125,-0.9419097900390624
0.019287109375,-0.403106689453125,-0.9489288330078124
0.0317535400390625,-0.373931884765625,-0.94635009765625
0.0183258056640625,-0.3861541748046875,-0.9368743896484376
-0.00994873046875,-0.3979644775390625,-0.8950042724609375
-0.0060577392578125,-0.39031982421875,-0.874542236328125
0.011077880859375,-0.3873138427734375,-0.8896026611328125
0.0276947021484375,-0.3610687255859375,-0.944122314453125
0.035675048828125,-0.3526763916015625,-0.982879638671875
0.0445556640625,-0.343475341796875,-0.9542236328125
0.0541839599609375,-0.349212646484375,-0.9535064697265624
0.0771942138671875,-0.3408355712890625,-0.976318359375
0.0607757568359375,-0.333221435546875,-0.9425048828125
0.05078125,-0.3271026611328125,-0.9206390380859376
0.0510711669921875,-0.310394287109375,-0.9828338623046876
0.068389892578125,-0.3144378662109375,-0.9892425537109376
0.078094482421875,-0.2999114990234375,-0.9403839111328124
0.0752716064453125,-0.331207275390625,-0.959808349609375
0.0435333251953125,-0.2933807373046875,-0.9215240478515624
0.0373077392578125,-0.2861480712890625,-0.9419403076171876
0.0562286376953125,-0.294891357421875,-0.988983154296875
0.0368804931640625,-0.2913970947265625,-0.9691162109375
0.044403076171875,-0.28277587890625,-0.9576873779296876
0.0379791259765625,-0.281494140625,-0.9519805908203124
0.04266357421875,-0.28228759765625,-0.954833984375
0.0522918701171875,-0.2841033935546875,-0.9800567626953124
0.0450286865234375,-0.2720184326171875,-0.9634246826171876
0.02960205078125,-0.2783050537109375,-0.9644622802734376
0.039154052734375,-0.2816619873046875,-0.9867401123046876
0.0471038818359375,-0.27813720703125,-0.98187255859375
