AccelerationX,AccelerationY,AccelerationZ
0.884185791015625,-0.0694580078125,-0.44012451171875
0.87847900390625,-0.036346435546875,-0.4841766357421875
0.863494873046875,-0.0945892333984375,-0.4498443603515625
0.8643646240234375,-0.0989837646484375,-0.4347076416015625
0.8741607666015625,-0.0759735107421875,-0.454254150390625
0.878173828125,-0.0695343017578125,-0.4674835205078125
0.8823089599609375,-0.07525634765625,-0.4530792236328125
0.8793182373046875,-0.0723724365234375,-0.4503631591796875
0.883697509765625,-0.0697784423828125,-0.46575927734375
0.886993408203125,-0.0780792236328125,-0.4600677490234375
0.8874664306640625,-0.074920654296875,-0.4571990966796875
0.889312744140625,-0.0690155029296875,-0.462188720703125
0.8768310546875,-0.080413818359375,-0.4493560791015625
0.8835601806640625,-0.079986572265625,-0.4495849609375
0.8852996826171875,-0.085601806640625,-0.4508514404296875
0.8938446044921875,-0.0777435302734375,-0.450042724609375
0.894561767578125,-0.080413818359375,-0.4543609619140625
0.9017333984375,-0.0722198486328125,-0.4697113037109375
0.9006500244140625,-0.0644683837890625,-0.5134124755859375
0.8657073974609375,-0.0533447265625,-0.51397705078125
0.8074798583984375,-0.0395355224609375,-0.5003204345703125
0.810577392578125,-0.04254150390625,-0.513580322265625
0.8118896484375,0.0041046142578125,-0.5504913330078125
0.7818756103515625,-0.06097412109375,-0.5246429443359375
0.7793426513671875,-0.067779541015625,-0.48577880859375
0.8189239501953125,-0.01318359375,-0.3990631103515625
0.8224029541015625,0.019073486328125,-0.321014404296875
0.8450775146484375,0.081298828125,-0.3331298828125
0.856536865234375,0.077850341796875,-0.2696533203125
0.924560546875,0.003021240234375,-0.1659698486328125
0.9912872314453124,-0.01434326171875,-0.173126220703125
1.0997314453125,-0.0202178955078125,-0.135467529296875
1.2980194091796875,-0.0455474853515625,0.006378173828125
1.4785614013671875,-0.0862274169921875,-0.07427978515625
1.4321441650390625,-0.0134124755859375,-0.1072235107421875
1.2311248779296875,0.01898193359375,-0.2098846435546875
0.931182861328125,0.024688720703125,-0.246368408203125
0.8681182861328125,0.0381011962890625,-0.179351806640625
0.9945526123046876,0.0091400146484375,-0.1844329833984375
0.908660888671875,-0.0255889892578125,-0.1721649169921875
0.866455078125,0.0252532958984375,-0.206756591796875
0.7513427734375,0.0283355712890625,-0.1822357177734375
0.71002197265625,-0.0508270263671875,-0.1560821533203125
0.776092529296875,-0.0035400390625,-0.1923065185546875
0.8606109619140625,0.1074981689453125,-0.17755126953125
0.9280242919921876,0.071624755859375,-0.196533203125
0.8797454833984375,0.0632476806640625,-0.2079620361328125
0.86865234375,0.0953826904296875,-0.1685943603515625
0.9910736083984376,0.068603515625,-0.188690185546875
1.09295654296875,0.0397186279296875,-0.2399749755859375
1.0665435791015625,0.0517425537109375,-0.1085357666015625
1.40802001953125,0.0436859130859375,-0.2421112060546875
1.3332672119140625,0.1121063232421875,-0.2796478271484375
1.302337646484375,0.119232177734375,-0.203216552734375
1.337371826171875,0.1565093994140625,-0.13702392578125
1.315155029296875,0.178497314453125,-0.1229705810546875
1.1256256103515625,0.0927734375,-0.058685302734375
0.8725128173828125,0.0317535400390625,-0.065399169921875
0.7851715087890625,0.0330352783203125,-0.0474700927734375
0.792144775390625,0.05169677734375,-0.014373779296875
0.8364715576171875,0.06427001953125,-0.0091705322265625
0.8094329833984375,0.0565185546875,-0.03692626953125
0.7448577880859375,0.0536651611328125,-0.025390625
0.8363189697265625,0.050201416015625,-0.0101470947265625
1.00341796875,0.0401153564453125,0.0389404296875
1.2072296142578125,0.0133819580078125,0.1312408447265625
1.4566802978515625,-0.025482177734375,0.1156463623046875
1.260894775390625,0.0977783203125,-0.06182861328125
1.1492919921875,0.2134552001953125,-0.35137939453125
1.1708984375,0.3047637939453125,-0.4481048583984375
1.0440216064453125,0.2608795166015625,-0.1634521484375
0.96295166015625,0.0972747802734375,-0.0421600341796875
0.831451416015625,-0.0236053466796875,-0.0430450439453125
0.7784271240234375,-0.0658721923828125,-0.0204315185546875
0.8770599365234375,-0.0049896240234375,-0.0641937255859375
0.9726409912109376,0.0872650146484375,-0.1443939208984375
1.0069122314453125,0.180145263671875,-0.268798828125
0.902252197265625,0.21966552734375,-0.2854156494140625
0.8693695068359375,0.1712188720703125,-0.261444091796875
1.0966949462890625,0.1464385986328125,-0.3792572021484375
1.32635498046875,0.15362548828125,-0.305999755859375
1.5395050048828125,0.1103057861328125,-0.283935546875
1.2978668212890625,0.1131744384765625,-0.3016204833984375
1.211090087890625,0.1482086181640625,-0.18621826171875
1.3530731201171875,0.1089019775390625,-0.116363525390625
1.4102630615234375,0.0830535888671875,-0.043121337890625
1.2805633544921875,0.071929931640625,0.011077880859375
1.10467529296875,0.0669097900390625,0.0058746337890625
1.028076171875,0.0802001953125,0.0138092041015625
1.0202484130859375,0.0865020751953125,0.03411865234375
0.9690704345703124,0.0656585693359375,0.0234375
0.8502044677734375,0.062835693359375,0.0071868896484375
0.66656494140625,0.0603790283203125,0.01318359375
0.656890869140625,0.0171661376953125,0.04058837890625
0.8248748779296875,-0.009002685546875,0.0532073974609375
1.0845489501953125,-0.0384521484375,0.0838470458984375
1.442535400390625,-0.001220703125,0.0679779052734375
1.222137451171875,0.0883331298828125,-0.0607147216796875
1.1150360107421875,0.11993408203125,-0.208831787109375
1.5051422119140625,0.168548583984375,-0.3837127685546875
1.4648284912109375,0.1611480712890625,-0.10626220703125
1.2452850341796875,0.061859130859375,0.0343170166015625
0.9624176025390624,-0.0055389404296875,-0.0812835693359375
0.8553619384765625,0.0124664306640625,-0.1198577880859375
0.8889617919921875,0.095550537109375,-0.0831451416015625
0.93341064453125,0.1498260498046875,-0.09356689453125
0.9781341552734376,0.2053985595703125,-0.189544677734375
0.9057159423828124,0.20831298828125,-0.199066162109375
0.962127685546875,0.20916748046875,-0.22406005859375
1.0951690673828125,0.2694091796875,-0.2114105224609375
1.3987274169921875,0.34259033203125,-0.2853546142578125
1.387603759765625,0.3956146240234375,-0.3282928466796875
1.3395843505859375,0.31707763671875,-0.1650848388671875
1.52203369140625,0.263824462890625,-0.130035400390625
1.53839111328125,0.1443328857421875,-0.029144287109375
1.310302734375,0.0903167724609375,-0.0029449462890625
1.2889556884765625,0.0364990234375,0.0018768310546875
1.06097412109375,0.0070953369140625,0.0607452392578125
1.0594635009765625,0.023956298828125,0.021026611328125
1.0677032470703125,0.036895751953125,0.029510498046875
0.9607391357421876,0.0395965576171875,0.0557861328125
0.881805419921875,0.029449462890625,0.068817138671875
0.8927459716796875,0.03533935546875,0.0686187744140625
0.9671173095703124,0.0169830322265625,0.1031341552734375
1.2975311279296875,-0.0225677490234375,0.131561279296875
1.175872802734375,0.043670654296875,0.096893310546875
0.9361114501953124,0.1207275390625,0.018310546875
1.1009368896484375,0.14300537109375,-0.1467132568359375
1.3555145263671875,0.2230072021484375,-0.2166900634765625
1.2664337158203125,0.16571044921875,-0.0716552734375
1.028961181640625,0.0935516357421875,0.0011749267578125
0.940673828125,0.064697265625,-0.0830841064453125
1.0241546630859375,0.04339599609375,-0.123138427734375
1.10369873046875,0.0835113525390625,-0.0470733642578125
1.2125091552734375,0.1510009765625,-0.128814697265625
1.098175048828125,0.2198638916015625,-0.15753173828125
1.049285888671875,0.2366180419921875,-0.3019256591796875
1.15679931640625,0.2928314208984375,-0.43426513671875
1.3425750732421875,0.38616943359375,-0.3707122802734375
1.4910888671875,0.4253692626953125,-0.5201263427734375
1.252410888671875,0.327362060546875,-0.2737884521484375
1.445526123046875,0.1656494140625,-0.1623382568359375
1.5272369384765625,0.1327056884765625,-0.0581817626953125
1.4970245361328125,0.0586395263671875,0.012176513671875
1.314117431640625,0.0363006591796875,0.0425567626953125
1.2095184326171875,0.0352325439453125,0.0457763671875
1.1976776123046875,0.066375732421875,0.0366668701171875
1.205535888671875,0.098602294921875,0.0623779296875
1.144439697265625,0.0967559814453125,0.1348724365234375
0.9500579833984376,0.0681915283203125,0.1728668212890625
0.848388671875,0.040435791015625,0.1421051025390625
0.874481201171875,0.066192626953125,0.075836181640625
0.910858154296875,0.0731201171875,0.1031494140625
1.297821044921875,0.03643798828125,0.0736083984375
0.903717041015625,0.0769805908203125,-0.0466766357421875
0.7731781005859375,0.068023681640625,-0.12396240234375
0.9765625,0.086334228515625,-0.1576995849609375
1.2422637939453125,0.1777191162109375,-0.17218017578125
1.33074951171875,0.1596221923828125,-0.1625518798828125
1.217498779296875,0.1239013671875,-0.14544677734375
1.145751953125,0.1551055908203125,-0.1241607666015625
1.1612548828125,0.1203460693359375,-0.1535491943359375
1.2341156005859375,0.099365234375,-0.1413116455078125
1.2706451416015625,0.0982818603515625,-0.197723388671875
1.130218505859375,0.0988616943359375,-0.1937103271484375
1.054595947265625,0.0964508056640625,-0.262054443359375
1.14154052734375,0.154815673828125,-0.35284423828125
1.2040557861328125,0.27178955078125,-0.3055419921875
1.4069671630859375,0.347412109375,-0.42034912109375
1.339447021484375,0.3459014892578125,-0.408660888671875
1.3431243896484375,0.220947265625,-0.284210205078125
1.4775848388671875,0.191436767578125,-0.1457366943359375
1.56781005859375,0.0760040283203125,0.0143585205078125
1.435943603515625,0.0250091552734375,0.079437255859375
1.283477783203125,0.0040740966796875,0.080474853515625
1.1573638916015625,0.032379150390625,0.063873291015625
1.0924530029296875,0.0961456298828125,0.056732177734375
1.1011505126953125,0.124786376953125,0.07635498046875
1.0989837646484375,0.1042633056640625,0.142242431640625
0.9508819580078124,0.0769805908203125,0.17230224609375
0.887420654296875,0.0561370849609375,0.114959716796875
0.893646240234375,0.0731353759765625,0.1045074462890625
1.1019287109375,0.05023193359375,0.126373291015625
1.0547027587890625,0.0724334716796875,-0.01141357421875
0.77197265625,0.09759521484375,-0.1956329345703125
0.885040283203125,0.0819091796875,-0.215667724609375
1.147918701171875,0.1048736572265625,-0.1332855224609375
1.306884765625,0.078857421875,-0.1015777587890625
1.26348876953125,0.02899169921875,-0.0802001953125
1.1758575439453125,0.08477783203125,-0.083526611328125
1.2049713134765625,0.1348724365234375,-0.133270263671875
1.2484588623046875,0.1510467529296875,-0.148162841796875
1.26739501953125,0.184722900390625,-0.14666748046875
1.20611572265625,0.1831512451171875,-0.20941162109375
1.0755157470703125,0.166473388671875,-0.2340240478515625
1.1190185546875,0.1623687744140625,-0.3470916748046875
1.127197265625,0.215911865234375,-0.3644256591796875
1.3517608642578125,0.272247314453125,-0.4453277587890625
1.44964599609375,0.3681640625,-0.4804840087890625
1.2207794189453125,0.275604248046875,-0.3237457275390625
1.3415374755859375,0.152801513671875,-0.2162017822265625
1.4714202880859375,0.1183319091796875,-0.0640869140625
1.55096435546875,0.027496337890625,0.0411376953125
1.51544189453125,-0.009674072265625,0.04962158203125
1.3895416259765625,-0.0208282470703125,0.1009674072265625
1.2285003662109375,0.029510498046875,0.126220703125
1.11273193359375,0.082427978515625,0.1296234130859375
1.045867919921875,0.1180419921875,0.1093292236328125
0.909637451171875,0.124908447265625,0.0915374755859375
0.78466796875,0.1174774169921875,0.061614990234375
0.8524017333984375,0.0961456298828125,0.023590087890625
0.9665985107421876,0.050323486328125,0.06170654296875
1.0988311767578125,0.0218048095703125,0.0537109375
0.9862213134765624,0.000640869140625,-0.0207366943359375
0.8830718994140625,0.022857666015625,-0.0644683837890625
1.094879150390625,0.084197998046875,-0.1348419189453125
1.43975830078125,0.1571502685546875,-0.2397003173828125
1.409149169921875,0.1076202392578125,-0.132110595703125
1.1791534423828125,0.0930938720703125,-0.0520477294921875
1.1071319580078125,0.1016845703125,-0.0783843994140625
1.1869659423828125,0.0831451416015625,-0.097076416015625
1.2677764892578125,0.1412353515625,-0.093597412109375
1.298553466796875,0.18890380859375,-0.1633148193359375
1.1356353759765625,0.2137451171875,-0.209014892578125
0.9597930908203124,0.1946563720703125,-0.26458740234375
1.01751708984375,0.1728363037109375,-0.322967529296875
1.232940673828125,0.236297607421875,-0.2878570556640625
1.52313232421875,0.3168792724609375,-0.3402557373046875
1.2892608642578125,0.334808349609375,-0.3883819580078125
1.05865478515625,0.21551513671875,-0.258575439453125
1.33795166015625,0.194915771484375,-0.1849822998046875
1.527862548828125,0.12841796875,-0.0339813232421875
1.5548553466796875,0.0279998779296875,0.0563507080078125
1.36480712890625,-0.0175628662109375,0.081207275390625
1.3438873291015625,-0.012969970703125,0.10076904296875
1.1938934326171875,0.0446014404296875,0.1208648681640625
1.1090545654296875,0.104705810546875,0.1064910888671875
1.0029296875,0.112884521484375,0.1043701171875
0.8755340576171875,0.1079559326171875,0.0948486328125
0.9035186767578124,0.099517822265625,0.05450439453125
0.97222900390625,0.078125,0.0596771240234375
0.9963226318359376,0.0376434326171875,0.104248046875
1.1510009765625,0.00518798828125,0.0474700927734375
0.939483642578125,0.0188446044921875,-0.002685546875
0.9110260009765624,0.052734375,-0.0368804931640625
1.08477783203125,0.1585235595703125,-0.156982421875
1.274261474609375,0.197662353515625,-0.187957763671875
1.3348236083984375,0.17071533203125,-0.1182708740234375
1.158111572265625,0.168701171875,-0.0535736083984375
1.082122802734375,0.127716064453125,-0.0609130859375
1.158172607421875,0.0968475341796875,-0.084716796875
1.2503509521484375,0.13275146484375,-0.0915069580078125
1.2083587646484375,0.16522216796875,-0.1450653076171875
1.017303466796875,0.183074951171875,-0.183837890625
1.028656005859375,0.17572021484375,-0.3049163818359375
1.1401824951171875,0.2019195556640625,-0.3507232666015625
1.21295166015625,0.2560272216796875,-0.266448974609375
1.404388427734375,0.3079071044921875,-0.42901611328125
1.3590087890625,0.299957275390625,-0.4366302490234375
1.312957763671875,0.182220458984375,-0.2920074462890625
1.5297088623046875,0.141082763671875,-0.17108154296875
1.5903167724609375,0.0750885009765625,-0.0074920654296875
1.4981536865234375,0.0179901123046875,0.0653839111328125
1.321441650390625,-0.040130615234375,0.09112548828125
1.18853759765625,-0.0015716552734375,0.1024932861328125
1.1620330810546875,0.060943603515625,0.129486083984375
1.017181396484375,0.0993499755859375,0.166168212890625
0.9153900146484376,0.1319732666015625,0.1138763427734375
0.8819427490234375,0.111602783203125,0.106048583984375
0.87188720703125,0.09613037109375,0.102264404296875
0.8989410400390625,0.0746917724609375,0.06707763671875
0.9341278076171876,0.0435028076171875,0.029510498046875
1.117767333984375,0.042877197265625,-0.0943756103515625
0.95562744140625,0.034210205078125,-0.126312255859375
0.9253082275390624,0.0056915283203125,-0.0341949462890625
1.179351806640625,0.0553131103515625,-0.1240386962890625
1.3736724853515625,0.1194000244140625,-0.2139129638671875
1.364654541015625,0.1396942138671875,-0.1530303955078125
1.163177490234375,0.1743316650390625,-0.0458526611328125
1.101287841796875,0.1598052978515625,-0.060302734375
1.2102813720703125,0.1294708251953125,-0.074737548828125
1.37457275390625,0.1451416015625,-0.07843017578125
1.31292724609375,0.188018798828125,-0.1794586181640625
1.0509185791015625,0.22515869140625,-0.2494049072265625
0.9329681396484376,0.21923828125,-0.3478546142578125
1.096893310546875,0.2083282470703125,-0.425201416015625
1.259368896484375,0.23651123046875,-0.390655517578125
1.365509033203125,0.2227935791015625,-0.43231201171875
1.27130126953125,0.1769256591796875,-0.38677978515625
1.244964599609375,0.0824737548828125,-0.1871337890625
1.5054779052734375,0.061676025390625,-0.1117095947265625
1.673492431640625,0.040863037109375,-0.043975830078125
1.47418212890625,0.027069091796875,-0.0028228759765625
1.3078155517578125,0.0324554443359375,0.028106689453125
1.2379150390625,0.0694122314453125,0.0394744873046875
1.2093353271484375,0.1103973388671875,0.0532684326171875
1.1233673095703125,0.1194000244140625,0.0532379150390625
0.950531005859375,0.090972900390625,0.047882080078125
0.7892913818359375,0.05609130859375,0.031829833984375
0.7223052978515625,0.0355224609375,0.051055908203125
0.798583984375,0.016265869140625,0.0030975341796875
0.917694091796875,-0.0018157958984375,0.020263671875
1.09283447265625,-0.0170745849609375,-0.02874755859375
1.0356597900390625,0.041534423828125,0.015777587890625
0.9862060546875,0.09442138671875,-0.0732879638671875
1.2419891357421875,0.1686553955078125,-0.214996337890625
1.579010009765625,0.255523681640625,-0.2592010498046875
1.4559173583984375,0.2161712646484375,0.003997802734375
1.1961517333984375,0.139373779296875,0.049224853515625
1.0634765625,0.0443267822265625,-0.116363525390625
1.086090087890625,0.0382080078125,-0.010772705078125
1.2286224365234375,0.0980682373046875,0.0421600341796875
1.3035736083984375,0.1882781982421875,-0.0238494873046875
1.14215087890625,0.2957763671875,-0.07916259765625
1.0582427978515625,0.296417236328125,-0.1361541748046875
1.06219482421875,0.28424072265625,-0.2175140380859375
1.29315185546875,0.3643035888671875,-0.2691192626953125
1.53692626953125,0.431640625,-0.4189300537109375
1.269012451171875,0.456329345703125,-0.4152679443359375
1.0795135498046875,0.256317138671875,-0.3231658935546875
1.2062530517578125,0.13311767578125,-0.1702728271484375
1.4383392333984375,0.0714263916015625,-0.16827392578125
1.5650787353515625,-0.0431671142578125,-0.07000732421875
1.4161376953125,-0.0789947509765625,-0.0142822265625
1.4146728515625,-0.0644989013671875,0.0197906494140625
1.3450164794921875,-0.01263427734375,0.0657806396484375
1.2305145263671875,0.0472869873046875,0.0776824951171875
1.085418701171875,0.089752197265625,0.0197601318359375
0.8436737060546875,0.1017608642578125,-0.00079345703125
0.6919403076171875,0.084625244140625,0.024139404296875
0.774810791015625,0.0582275390625,0.000457763671875
0.8144989013671875,0.0367584228515625,-0.0030059814453125
1.0056304931640625,-0.0220794677734375,0.0715789794921875
1.124053955078125,-0.007720947265625,0.1379241943359375
1.0571746826171875,0.0613555908203125,0.096527099609375
1.15240478515625,0.14154052734375,-0.0965423583984375
1.5225677490234375,0.265167236328125,-0.2586669921875
1.550567626953125,0.2924652099609375,-0.0843505859375
1.2624359130859375,0.2251739501953125,0.042144775390625
1.0523529052734375,0.1090545654296875,-0.131378173828125
1.0114898681640625,0.02423095703125,-0.0686492919921875
1.0849456787109375,0.0484161376953125,0.0203857421875
1.16827392578125,0.0950469970703125,-0.0244598388671875
1.185546875,0.1562652587890625,-0.1388397216796875
0.96234130859375,0.2097625732421875,-0.0906829833984375
1.0033416748046875,0.220672607421875,-0.189178466796875
1.139312744140625,0.2438812255859375,-0.2699737548828125
1.2811126708984375,0.3827362060546875,-0.268524169921875
1.319793701171875,0.4675750732421875,-0.4433135986328125
1.2020721435546875,0.3950653076171875,-0.3622283935546875
1.3291168212890625,0.246124267578125,-0.16998291015625
1.55401611328125,0.1510009765625,-0.1207733154296875
1.42962646484375,0.031982421875,-0.0294342041015625
1.423370361328125,-0.0469512939453125,-0.0189666748046875
1.443695068359375,-0.07269287109375,0.0193328857421875
1.3309783935546875,-0.0380401611328125,0.0594329833984375
1.3103790283203125,0.008514404296875,-0.0151824951171875
1.09820556640625,0.0415191650390625,0.02081298828125
0.8968963623046875,0.06085205078125,0.0198974609375
0.7749786376953125,0.059417724609375,-0.0134735107421875
0.7085418701171875,0.0471038818359375,-0.0155181884765625
0.7861175537109375,0.0428009033203125,0.00909423828125
0.781158447265625,0.01715087890625,0.0382537841796875
1.128021240234375,-0.033203125,0.086029052734375
1.0821533203125,0.0381011962890625,0.083892822265625
1.1966400146484375,0.1170196533203125,-0.03704833984375
1.518096923828125,0.1787261962890625,-0.177764892578125
1.6415863037109375,0.2373046875,-0.1689453125
1.3677825927734375,0.1905059814453125,-0.0025634765625
1.079833984375,0.113128662109375,-0.102447509765625
1.0086669921875,0.06866455078125,-0.115478515625
1.0577545166015625,0.0618438720703125,0.018585205078125
1.2109375,0.0944671630859375,0.050933837890625
1.2429962158203125,0.172882080078125,-0.021759033203125
1.1298675537109375,0.283843994140625,-0.1068115234375
1.014312744140625,0.3183441162109375,-0.1871337890625
1.007781982421875,0.3578033447265625,-0.3209075927734375
1.127044677734375,0.437255859375,-0.4282989501953125
1.3482513427734375,0.4466705322265625,-0.49163818359375
1.378875732421875,0.354156494140625,-0.4228057861328125
1.14678955078125,0.1053314208984375,-0.3251953125
1.085296630859375,-0.0693817138671875,-0.2372283935546875
1.3332366943359375,-0.082275390625,-0.2005462646484375
1.6245269775390625,-0.0529022216796875,-0.14251708984375
1.7648162841796875,-0.0642242431640625,-0.1287841796875
1.5420074462890625,-0.0437469482421875,-0.0850982666015625
1.4044189453125,0.009246826171875,-0.03009033203125
1.1976318359375,0.051605224609375,0.0178680419921875
0.9864044189453124,0.069915771484375,-0.0135498046875
0.794952392578125,0.0859222412109375,-0.060150146484375
0.6492767333984375,0.058929443359375,-0.0252227783203125
0.622802734375,0.0140533447265625,-0.005767822265625
0.7511749267578125,-0.0054473876953125,-0.000457763671875
0.7933502197265625,-0.017822265625,0.01947021484375
1.07415771484375,-0.0575103759765625,0.1362152099609375
1.2145843505859375,0.000579833984375,0.1656341552734375
1.3570709228515625,0.1573638916015625,0.0132293701171875
1.6693572998046875,0.2841033935546875,-0.2656707763671875
1.855804443359375,0.4246368408203125,-0.280914306640625
1.338470458984375,0.3771514892578125,0.0104827880859375
1.1413421630859375,0.08721923828125,-0.0684051513671875
1.0232696533203125,-0.052703857421875,0.02655029296875
0.9994964599609376,0.010498046875,0.1005401611328125
1.08087158203125,0.09423828125,0.052734375
1.059112548828125,0.21856689453125,0.0261993408203125
1.0111083984375,0.326385498046875,-0.0309600830078125
0.922210693359375,0.3793487548828125,-0.05889892578125
1.0002899169921875,0.4448089599609375,-0.20391845703125
1.17633056640625,0.5812835693359375,-0.3404998779296875
1.4454803466796875,0.5727691650390625,-0.4326019287109375
1.2698516845703125,0.4072418212890625,-0.34539794921875
1.130096435546875,0.15960693359375,-0.2466888427734375
1.2428131103515625,0.008941650390625,-0.181640625
1.382781982421875,-0.040985107421875,-0.1270599365234375
1.53509521484375,-0.0826263427734375,-0.1281585693359375
1.468505859375,-0.078704833984375,-0.1475982666015625
1.3395843505859375,-0.0105438232421875,-0.09478759765625
1.3567962646484375,0.0296630859375,-0.0959930419921875
1.1332244873046875,0.0533905029296875,-0.0041656494140625
0.8811492919921875,0.0424041748046875,-0.019195556640625
0.723419189453125,0.0388336181640625,-0.0220794677734375
0.64971923828125,0.0241851806640625,-0.0067291259765625
0.7664337158203125,0.01824951171875,-0.0042572021484375
0.879547119140625,0.0157012939453125,0.0203094482421875
1.0305633544921875,-0.0111083984375,0.10125732421875
1.1754913330078125,-0.000244140625,0.113037109375
1.2288360595703125,0.103607177734375,0.0123138427734375
1.4961395263671875,0.1851348876953125,-0.1874847412109375
1.5631256103515625,0.2656707763671875,-0.2288665771484375
1.2891082763671875,0.1808624267578125,-0.044158935546875
1.089630126953125,0.0911712646484375,-0.0064544677734375
0.9920654296875,0.0619049072265625,-0.0075836181640625
1.0173492431640625,0.08502197265625,0.0349578857421875
1.1047515869140625,0.140716552734375,0.0310211181640625
1.111175537109375,0.23028564453125,-0.0112152099609375
1.0729217529296875,0.2938232421875,-0.11676025390625
0.9375762939453124,0.3392486572265625,-0.1233062744140625
1.103240966796875,0.3818359375,-0.2496185302734375
1.14398193359375,0.45843505859375,-0.3326416015625
1.3457183837890625,0.4067840576171875,-0.381683349609375
1.230010986328125,0.3906402587890625,-0.3385009765625
1.2175140380859375,0.2341766357421875,-0.2727508544921875
1.3194732666015625,0.14190673828125,-0.16363525390625
1.4493255615234375,0.0799407958984375,-0.0709686279296875
1.4987335205078125,-0.016693115234375,0.02972412109375
1.5504302978515625,-0.052642822265625,-0.0318450927734375
1.4178924560546875,-0.0118408203125,0.02508544921875
1.2396087646484375,0.0413360595703125,0.090576171875
1.148956298828125,0.085205078125,0.036529541015625
1.0148773193359375,0.10858154296875,0.001495361328125
0.838775634765625,0.1131439208984375,0.0201873779296875
0.7333984375,0.0637054443359375,0.0180206298828125
0.7989044189453125,0.0308380126953125,0.0094146728515625
0.8601837158203125,-0.00384521484375,0.003753662109375
1.03314208984375,-0.01702880859375,0.0033416748046875
1.0847930908203125,-0.0063934326171875,0.0600128173828125
1.244384765625,0.0139617919921875,0.030364990234375
1.390777587890625,0.092926025390625,-0.1456146240234375
1.4319915771484375,0.1811981201171875,-0.213714599609375
1.3760833740234375,0.1649017333984375,-0.044464111328125
1.229827880859375,0.15704345703125,-0.000762939453125
1.14306640625,0.179046630859375,-0.0509490966796875
1.139312744140625,0.185882568359375,-0.042510986328125
1.1865386962890625,0.234161376953125,-0.057861328125
1.1702117919921875,0.2855987548828125,-0.0999908447265625
1.0496978759765625,0.2760467529296875,-0.159454345703125
0.8951263427734375,0.2587890625,-0.2100372314453125
1.0049896240234375,0.2555694580078125,-0.325592041015625
1.2105560302734375,0.3058013916015625,-0.332550048828125
1.5077056884765625,0.3642730712890625,-0.4199676513671875
1.3343658447265625,0.334930419921875,-0.3943328857421875
1.2711181640625,0.19244384765625,-0.1954193115234375
1.558807373046875,0.158782958984375,-0.12066650390625
1.6788482666015625,0.029815673828125,0.0165863037109375
1.559478759765625,-0.0486297607421875,0.0229644775390625
1.520233154296875,-0.0182952880859375,0.007720947265625
1.45013427734375,0.062347412109375,0.0170135498046875
1.2898406982421875,0.1739654541015625,0.0136566162109375
1.1104888916015625,0.13592529296875,0.033447265625
0.848968505859375,0.0434417724609375,0.0495758056640625
0.6437225341796875,0.006591796875,0.07611083984375
0.5757293701171875,-0.016937255859375,0.0792388916015625
0.65191650390625,-0.0483856201171875,0.0682220458984375
0.7111663818359375,-0.07684326171875,0.059539794921875
1.0859375,-0.075103759765625,0.0892486572265625
1.1453704833984375,0.02252197265625,0.0582733154296875
1.2666168212890625,0.0792236328125,-0.04010009765625
1.7882537841796875,0.1657562255859375,-0.190338134765625
1.8759002685546875,0.2863922119140625,-0.0612030029296875
1.3609771728515625,0.3209686279296875,-0.0493011474609375
1.0973358154296875,0.1563720703125,-0.1515655517578125
1.1092529296875,0.1184539794921875,-0.049041748046875
1.1204986572265625,0.1590728759765625,0.0155792236328125
1.1735076904296875,0.1663665771484375,-0.0797119140625
1.126922607421875,0.206207275390625,-0.211212158203125
1.0295257568359375,0.214752197265625,-0.261993408203125
1.01678466796875,0.289764404296875,-0.3715057373046875
1.05120849609375,0.42462158203125,-0.5228729248046875
0.9901885986328124,0.406707763671875,-0.4066619873046875
1.3787994384765625,0.28302001953125,-0.4093475341796875
1.35198974609375,0.1775054931640625,-0.224365234375
1.3634490966796875,0.060546875,-0.1536865234375
1.7664031982421875,0.1133575439453125,-0.1910858154296875
1.7957916259765625,0.09716796875,-0.0536651611328125
1.63079833984375,0.057373046875,0.0340423583984375
1.4314727783203125,0.0663909912109375,0.078582763671875
1.3780670166015625,0.102294921875,0.0820770263671875
1.3067626953125,0.112091064453125,0.099945068359375
1.12664794921875,0.095062255859375,0.121826171875
0.9162750244140624,0.068756103515625,0.12799072265625
0.730743408203125,0.05926513671875,0.1160736083984375
0.6865692138671875,0.0558319091796875,0.0663299560546875
0.7964019775390625,0.04693603515625,0.0629425048828125
0.802978515625,0.0270843505859375,0.0439605712890625
1.0323638916015625,-0.004852294921875,-0.022735595703125
0.909912109375,0.041717529296875,-0.0793304443359375
1.11749267578125,0.019866943359375,-0.063690185546875
1.4567718505859375,0.0918731689453125,-0.1292724609375
1.73486328125,0.1630859375,-0.1912689208984375
1.468505859375,0.22149658203125,-0.152618408203125
1.1458740234375,0.241180419921875,-0.12896728515625
1.0940399169921875,0.18621826171875,-0.1270904541015625
1.2278900146484375,0.06597900390625,-0.01495361328125
1.3573150634765625,0.0559539794921875,-0.046600341796875
1.3097381591796875,0.117584228515625,-0.2098388671875
1.082916259765625,0.184661865234375,-0.301513671875
1.0216217041015625,0.2060546875,-0.3862457275390625
1.1195068359375,0.2559051513671875,-0.5040283203125
1.271270751953125,0.28448486328125,-0.405029296875
1.3409576416015625,0.2588348388671875,-0.39337158203125
1.1148834228515625,0.1747283935546875,-0.286102294921875
1.274169921875,0.13519287109375,-0.1748199462890625
1.588226318359375,0.1783905029296875,-0.1349945068359375
1.6537017822265625,0.1364898681640625,-0.0724639892578125
1.4193878173828125,0.0894622802734375,-0.019989013671875
1.2300262451171875,0.0780181884765625,0.0465850830078125
1.2232513427734375,0.0914764404296875,0.0695648193359375
1.2555999755859375,0.0978851318359375,0.08978271484375
1.175323486328125,0.0771942138671875,0.110321044921875
0.982666015625,0.0659942626953125,0.11505126953125
0.760528564453125,0.0591888427734375,0.0980987548828125
0.7079315185546875,0.0532684326171875,0.0650634765625
0.8862152099609375,0.0523681640625,0.0509490966796875
0.9523773193359376,0.0538482666015625,0.0476531982421875
1.140899658203125,0.0025482177734375,0.0335235595703125
1.08685302734375,0.0333251953125,-0.0318145751953125
1.040191650390625,0.0880584716796875,-0.0884857177734375
1.3325347900390625,0.1644439697265625,-0.20330810546875
1.531982421875,0.2271881103515625,-0.1923980712890625
1.3427581787109375,0.1956024169921875,-0.0701751708984375
1.07354736328125,0.17010498046875,-0.059326171875
1.06707763671875,0.1363677978515625,-0.0743560791015625
1.1382293701171875,0.098846435546875,-0.04400634765625
1.181243896484375,0.1252288818359375,-0.061920166015625
1.1443023681640625,0.16033935546875,-0.1728668212890625
0.9813995361328124,0.17376708984375,-0.1839141845703125
0.875396728515625,0.16845703125,-0.2259674072265625
1.020782470703125,0.14971923828125,-0.2885284423828125
1.173095703125,0.2060546875,-0.229522705078125
1.4677734375,0.2679290771484375,-0.308746337890625
1.29736328125,0.304656982421875,-0.36279296875
1.0923004150390625,0.2388458251953125,-0.2795257568359375
1.31317138671875,0.2486724853515625,-0.2358245849609375
1.5216217041015625,0.2072601318359375,-0.09857177734375
1.49468994140625,0.0997467041015625,0.046722412109375
1.4470367431640625,0.01434326171875,0.0536956787109375
1.2991485595703125,-0.00921630859375,0.0789031982421875
1.222930908203125,0.0088958740234375,0.100067138671875
1.155487060546875,0.03887939453125,0.12420654296875
1.0441436767578125,0.0585479736328125,0.129547119140625
0.84967041015625,0.0697021484375,0.0821075439453125
0.7261505126953125,0.09295654296875,0.0582427978515625
0.8271636962890625,0.0965576171875,0.0131378173828125
0.9064178466796876,0.0900115966796875,0.0069427490234375
1.02166748046875,0.0326385498046875,0.0294189453125
1.076690673828125,0.0146636962890625,-0.0338287353515625
1.001434326171875,0.0540618896484375,-0.024566650390625
1.051849365234375,0.08984375,-0.0965118408203125
1.3005218505859375,0.171661376953125,-0.235931396484375
1.350006103515625,0.2063140869140625,-0.155364990234375
1.2114105224609375,0.1700592041015625,-0.0229034423828125
1.0639801025390625,0.1150360107421875,-0.0168914794921875
1.0837249755859375,0.058197021484375,-0.018798828125
1.1863861083984375,0.092926025390625,0.021697998046875
1.2900543212890625,0.1534881591796875,-0.023895263671875
1.2700958251953125,0.2380523681640625,-0.1221771240234375
1.0246429443359375,0.2752685546875,-0.1636199951171875
0.9879150390625,0.263397216796875,-0.2585296630859375
1.11419677734375,0.307342529296875,-0.4167938232421875
1.0625762939453125,0.330780029296875,-0.3102874755859375
1.34429931640625,0.3260345458984375,-0.4203643798828125
1.2936553955078125,0.29638671875,-0.33953857421875
1.1110687255859375,0.1997222900390625,-0.23553466796875
1.2073822021484375,0.1817779541015625,-0.2273101806640625
1.4266204833984375,0.1840057373046875,-0.1586761474609375
1.5776519775390625,0.1040496826171875,0.0096282958984375
1.47064208984375,0.0228729248046875,0.0668487548828125
1.481170654296875,-0.0193328857421875,0.07318115234375
1.3857421875,-0.0020599365234375,0.138641357421875
1.2303314208984375,0.0383758544921875,0.1555938720703125
1.02764892578125,0.0835418701171875,0.1287994384765625
0.8102569580078125,0.110626220703125,0.074981689453125
0.6839141845703125,0.1255035400390625,0.0048065185546875
0.699554443359375,0.1236724853515625,-0.0063629150390625
0.786224365234375,0.0734710693359375,0.03021240234375
0.85479736328125,0.025909423828125,0.0497894287109375
1.0405731201171875,0.00689697265625,0.0293121337890625
1.014923095703125,0.0471038818359375,0.0381011962890625
1.1654510498046875,0.083587646484375,-0.051727294921875
1.5346832275390625,0.1904144287109375,-0.2524261474609375
1.62255859375,0.324249267578125,-0.2021942138671875
1.2795562744140625,0.292205810546875,0.006500244140625
1.1148223876953125,0.155792236328125,-0.037750244140625
1.1237945556640625,0.0754852294921875,-0.016632080078125
1.1688079833984375,0.07769775390625,-0.034393310546875
1.183807373046875,0.1322021484375,-0.144195556640625
1.1332244873046875,0.207427978515625,-0.254302978515625
1.04296875,0.2461700439453125,-0.2835540771484375
0.9453277587890624,0.22686767578125,-0.306549072265625
1.0177154541015625,0.2054595947265625,-0.401885986328125
1.1425018310546875,0.2277984619140625,-0.41241455078125
1.315887451171875,0.222503662109375,-0.3797454833984375
1.613525390625,0.1728363037109375,-0.3512725830078125
1.3660888671875,0.0912017822265625,-0.2598724365234375
1.3897705078125,0.08685302734375,-0.1402435302734375
1.64459228515625,0.4129180908203125,0.126220703125
1.7041168212890625,0.01702880859375,-0.000701904296875
1.611358642578125,0.0790557861328125,0.1127471923828125
1.38311767578125,0.033447265625,0.1404571533203125
1.175323486328125,0.0958251953125,0.1412200927734375
1.0186920166015625,0.174713134765625,0.116424560546875
1.008148193359375,0.13836669921875,0.096466064453125
0.8912200927734375,0.114837646484375,0.1142730712890625
0.7336578369140625,0.0829925537109375,0.1226043701171875
0.690521240234375,0.0565643310546875,0.04180908203125
0.7151031494140625,0.0482330322265625,-0.0102996826171875
0.7198486328125,0.0386505126953125,-0.09246826171875
0.917999267578125,-0.00860595703125,-0.101409912109375
1.0197906494140625,-0.05389404296875,-0.0169525146484375
1.080413818359375,-0.08160400390625,-0.0777587890625
1.420379638671875,-0.0349578857421875,-0.1857452392578125
1.96551513671875,0.15069580078125,-0.2476806640625
1.8649749755859373,0.321319580078125,-0.2223968505859375
1.32696533203125,0.4051666259765625,-0.180938720703125
1.1132659912109375,0.20391845703125,-0.12725830078125
1.1705780029296875,0.1413421630859375,0.00360107421875
1.224212646484375,0.204803466796875,0.03607177734375
1.147491455078125,0.2318572998046875,-0.0102081298828125
0.978759765625,0.2558746337890625,-0.109954833984375
0.8404541015625,0.259552001953125,-0.1116485595703125
0.85540771484375,0.2580413818359375,-0.1623687744140625
1.0511016845703125,0.2832183837890625,-0.223236083984375
1.3015899658203125,0.31036376953125,-0.2735443115234375
1.3653564453125,0.331298828125,-0.3373260498046875
1.04998779296875,0.2809906005859375,-0.3929901123046875
0.96917724609375,0.1839141845703125,-0.3829345703125
1.1033172607421875,0.180938720703125,-0.2893524169921875
1.3230743408203125,0.17010498046875,-0.173675537109375
1.618316650390625,0.1052703857421875,-0.174591064453125
1.5373687744140625,0.054290771484375,-0.1727752685546875
1.338348388671875,0.0264434814453125,-0.0640716552734375
1.2818145751953125,0.02764892578125,-0.062530517578125
1.14727783203125,0.0406646728515625,-0.058685302734375
0.9926300048828124,0.0199432373046875,-0.056427001953125
0.838134765625,-0.0062408447265625,-0.0591888427734375
0.75927734375,-0.0187225341796875,-0.04315185546875
0.784942626953125,-0.0325164794921875,-0.0511932373046875
0.85089111328125,-0.0359039306640625,-0.048797607421875
1.052642822265625,-0.038543701171875,0.0588226318359375
1.083648681640625,0.025238037109375,0.10076904296875
1.1422119140625,0.13262939453125,-0.0535736083984375
1.4720306396484375,0.2605438232421875,-0.279754638671875
1.64129638671875,0.3790435791015625,-0.280120849609375
1.1336669921875,0.2523651123046875,0.037994384765625
0.990966796875,0.0858306884765625,-0.055023193359375
0.9294891357421876,0.0281829833984375,-0.0163116455078125
0.96905517578125,0.044525146484375,0.0664215087890625
1.0660858154296875,0.1112213134765625,0.0507659912109375
1.08917236328125,0.1894378662109375,0.0066070556640625
1.0087738037109375,0.2602691650390625,-0.017486572265625
0.8625335693359375,0.2744598388671875,-0.0792388916015625
0.8411102294921875,0.2845916748046875,-0.1064605712890625
1.207977294921875,0.2802581787109375,-0.1703033447265625
1.739532470703125,0.3268280029296875,-0.222381591796875
1.4978485107421875,0.33502197265625,-0.293731689453125
0.8653106689453125,0.176788330078125,-0.3216094970703125
0.578948974609375,0.06988525390625,-0.258392333984375
0.7811431884765625,0.1876983642578125,-0.1954498291015625
1.255645751953125,0.244110107421875,-0.20782470703125
1.3608856201171875,0.2009735107421875,-0.1630401611328125
1.26300048828125,0.10321044921875,-0.1729736328125
1.169525146484375,0.048919677734375,-0.09710693359375
1.09820556640625,0.0731048583984375,0.03704833984375
1.04248046875,0.09515380859375,0.044586181640625
0.9932708740234376,0.07012939453125,0.000152587890625
0.9308624267578124,0.0466461181640625,-0.0062713623046875
0.8304443359375,0.0435943603515625,0.0105438232421875
1.042999267578125,0.02886962890625,-0.0147857666015625
1.0768585205078125,0.0208740234375,-0.0258331298828125
1.361358642578125,-0.0331573486328125,0.037200927734375
1.2078704833984375,-0.0108642578125,-0.0010528564453125
1.03228759765625,0.076568603515625,-0.1539764404296875
0.997650146484375,0.1825408935546875,-0.281097412109375
1.0699005126953125,0.1765594482421875,-0.2119903564453125
1.0485076904296875,0.0732879638671875,-0.040771484375
0.9527130126953124,0.0348358154296875,0.0208892822265625
0.8269500732421875,0.031158447265625,0.02435302734375
0.8691558837890625,0.086334228515625,0.0195770263671875
0.969696044921875,0.1530609130859375,0.03228759765625
1.0519561767578125,0.2119293212890625,0.023345947265625
1.0457763671875,0.2508392333984375,-0.0037841796875
0.9765472412109376,0.2883453369140625,-0.0688629150390625
0.9188690185546876,0.2806854248046875,-0.133392333984375
1.0254058837890625,0.2478179931640625,-0.217803955078125
1.063446044921875,0.2360992431640625,-0.2264404296875
1.3015289306640625,0.1522064208984375,-0.173095703125
1.34552001953125,0.14276123046875,-0.1470184326171875
1.11138916015625,0.2125701904296875,-0.2963104248046875
0.7490234375,0.239044189453125,-0.2796478271484375
1.005401611328125,0.2428741455078125,-0.299713134765625
1.2478485107421875,0.2247314453125,-0.1818695068359375
1.4237518310546875,0.165008544921875,-0.1339263916015625
1.416961669921875,0.10150146484375,-0.0943450927734375
1.32183837890625,0.0498809814453125,-0.035125732421875
1.189910888671875,0.03759765625,0.0098876953125
1.10162353515625,0.015716552734375,0.0523681640625
0.9642791748046876,0.0181732177734375,0.0252838134765625
0.8041839599609375,0.0378875732421875,0.0008544921875
0.7238006591796875,0.05218505859375,-0.015594482421875
0.7894744873046875,0.0564117431640625,-0.0626983642578125
0.92254638671875,0.064361572265625,-0.099365234375
0.8983154296875,0.056396484375,-0.100555419921875
1.25872802734375,-0.01800537109375,-0.0217437744140625
1.2398834228515625,-0.003448486328125,0.0009765625
1.1714019775390625,0.0693817138671875,-0.1368255615234375
1.3624114990234375,0.181427001953125,-0.275787353515625
1.3124237060546875,0.2669830322265625,-0.15142822265625
1.055999755859375,0.1859130859375,0.0246124267578125
0.9888153076171876,0.0748443603515625,0.037933349609375
0.96563720703125,0.0771636962890625,0.0632476806640625
0.996978759765625,0.1307525634765625,0.0581207275390625
1.0531158447265625,0.2183837890625,0.0447540283203125
1.079559326171875,0.2623138427734375,0.008514404296875
0.9597320556640624,0.2848663330078125,-0.093963623046875
0.8394927978515625,0.284332275390625,-0.0920562744140625
1.039825439453125,0.2979278564453125,-0.219451904296875
1.1596527099609375,0.3921051025390625,-0.1909942626953125
1.4248046875,0.4282379150390625,-0.3258209228515625
1.2718963623046875,0.4207763671875,-0.2713775634765625
1.153350830078125,0.231201171875,-0.1705169677734375
1.092620849609375,0.1599884033203125,-0.03057861328125
1.1898651123046875,0.138763427734375,-0.0457000732421875
1.3268280029296875,0.11114501953125,-0.0595703125
1.205108642578125,0.121856689453125,-0.077728271484375
1.205169677734375,0.1446075439453125,-0.040313720703125
1.2867279052734375,0.153900146484375,-0.0145263671875
1.337738037109375,0.1387939453125,0.052398681640625
1.2327117919921875,0.07952880859375,0.1028594970703125
1.021820068359375,0.03863525390625,0.105224609375
0.8598175048828125,0.020660400390625,0.055816650390625
0.939788818359375,0.0363616943359375,0.0088043212890625
0.9337310791015624,0.042572021484375,-0.0016326904296875
1.1715545654296875,-0.007781982421875,0.0183868408203125
1.115753173828125,-0.023956298828125,0.017852783203125
0.9572601318359376,0.036468505859375,-0.0262451171875
0.994354248046875,0.1141815185546875,-0.10931396484375
1.1310577392578125,0.1861419677734375,-0.1793975830078125
1.0869140625,0.1974029541015625,-0.14501953125
0.962066650390625,0.1991729736328125,-0.07000732421875
0.962127685546875,0.17138671875,-0.00286865234375
1.055908203125,0.1260528564453125,0.037994384765625
1.2747039794921875,0.1474609375,0.017303466796875
1.30108642578125,0.2156982421875,-0.0481719970703125
1.1198883056640625,0.2736663818359375,-0.1082763671875
0.9085235595703124,0.2652587890625,-0.1424102783203125
1.0574798583984375,0.2072601318359375,-0.2270050048828125
1.171905517578125,0.2056121826171875,-0.2275238037109375
1.37347412109375,0.2521820068359375,-0.277618408203125
1.319061279296875,0.2946929931640625,-0.3410797119140625
1.1192779541015625,0.2953338623046875,-0.3550567626953125
1.07427978515625,0.1834259033203125,-0.27685546875
1.2367401123046875,0.220062255859375,-0.2263946533203125
1.371856689453125,0.1540374755859375,-0.12152099609375
1.46881103515625,0.0582427978515625,-0.1208648681640625
1.4732818603515625,0.0112457275390625,-0.1093902587890625
1.4114990234375,0.018890380859375,-0.04266357421875
1.3149871826171875,0.032806396484375,-0.0104827880859375
1.153778076171875,0.0357513427734375,-0.004364013671875
0.948944091796875,0.03155517578125,-0.0111541748046875
0.783233642578125,0.031707763671875,-0.0328369140625
0.6987457275390625,0.0316619873046875,-0.0408782958984375
0.739776611328125,0.023345947265625,-0.0514373779296875
0.820343017578125,0.005462646484375,-0.0333099365234375
1.08575439453125,-0.0160369873046875,-0.0214996337890625
1.09454345703125,0.025421142578125,0.0190277099609375
1.1147918701171875,0.0886383056640625,-0.0693359375
1.2347869873046875,0.15484619140625,-0.2034149169921875
1.3981475830078125,0.230438232421875,-0.1950225830078125
1.2904052734375,0.162933349609375,0.025787353515625
1.1105804443359375,0.0797882080078125,0.09429931640625
1.0683441162109375,0.040191650390625,0.056304931640625
1.1285858154296875,0.1129150390625,0.10528564453125
1.210968017578125,0.1837310791015625,0.099945068359375
1.2574005126953125,0.2794342041015625,0.023529052734375
1.0875091552734375,0.343597412109375,-0.0005035400390625
0.9923095703125,0.3292236328125,-0.023223876953125
1.0468292236328125,0.2873382568359375,-0.092437744140625
1.151580810546875,0.2635040283203125,-0.15728759765625
1.2274932861328125,0.33465576171875,-0.1566009521484375
1.273712158203125,0.4467315673828125,-0.343505859375
1.065521240234375,0.4314422607421875,-0.38970947265625
0.9464569091796876,0.2857666015625,-0.372344970703125
1.109527587890625,0.18115234375,-0.25518798828125
1.40203857421875,0.133331298828125,-0.1803131103515625
1.56640625,0.05352783203125,-0.186492919921875
1.535491943359375,-0.0081939697265625,-0.1811065673828125
1.525238037109375,-0.0316009521484375,-0.14971923828125
1.455291748046875,-0.00689697265625,-0.10894775390625
1.3368377685546875,0.04388427734375,-0.073638916015625
1.1746368408203125,0.030181884765625,-0.0478668212890625
0.9613189697265624,-0.0255584716796875,-0.0501861572265625
0.770263671875,-0.041046142578125,-0.0503692626953125
0.6192779541015625,-0.0265045166015625,-0.075103759765625
0.6010284423828125,-0.0390777587890625,-0.0848541259765625
0.6219024658203125,-0.039520263671875,-0.102691650390625
0.666595458984375,-0.0020751953125,0.0112457275390625
1.04241943359375,-0.0613250732421875,0.027801513671875
1.2208251953125,-0.00689697265625,0.050262451171875
1.702362060546875,0.1056671142578125,0.0175323486328125
2.062713623046875,0.163421630859375,0.02056884765625
1.675994873046875,0.256622314453125,0.1121368408203125
1.2269134521484375,0.163421630859375,-0.0543060302734375
1.18292236328125,0.1171875,-0.0402679443359375
1.1578826904296875,0.212005615234375,0.0956573486328125
1.1701507568359375,0.2385406494140625,0.1880340576171875
1.146453857421875,0.2696990966796875,0.1417236328125
1.0784912109375,0.319976806640625,0.1117706298828125
1.01104736328125,0.3587799072265625,0.0973358154296875
0.9627532958984376,0.3934326171875,0.0785064697265625
1.02276611328125,0.4258575439453125,-0.0602264404296875
1.18585205078125,0.53094482421875,-0.2035675048828125
1.288665771484375,0.5011444091796875,-0.31787109375
1.2066650390625,0.444549560546875,-0.385467529296875
1.136962890625,0.2516326904296875,-0.39111328125
1.126373291015625,0.1263275146484375,-0.284515380859375
1.2885284423828125,0.0918426513671875,-0.2955169677734375
1.430633544921875,0.0592193603515625,-0.306884765625
1.6874542236328125,0.0703277587890625,-0.4091644287109375
1.5753936767578125,0.018646240234375,-0.2016754150390625
1.4410400390625,-0.030120849609375,-0.09356689453125
1.2014312744140625,-0.028167724609375,-0.049285888671875
0.904693603515625,-0.0383758544921875,0.0179443359375
0.7427978515625,-0.03277587890625,0.0424652099609375
0.7581939697265625,-0.0383453369140625,-0.0244140625
0.7976531982421875,-0.0020904541015625,-0.062835693359375
0.8948822021484375,-0.0299224853515625,0.0350799560546875
1.2371063232421875,-0.0393829345703125,0.1419525146484375
1.1730194091796875,0.0777587890625,0.1674041748046875
1.3462982177734375,0.1766815185546875,-0.06097412109375
1.828643798828125,0.2930145263671875,-0.3155670166015625
1.525787353515625,0.2882080078125,-0.14178466796875
0.95599365234375,0.192047119140625,0.0718994140625
0.850128173828125,0.1009368896484375,-0.0209197998046875
0.93353271484375,0.0353851318359375,0.0103759765625
1.0576171875,0.068939208984375,0.0594482421875
1.22332763671875,0.15985107421875,-0.0234527587890625
1.1351776123046875,0.2806243896484375,-0.0878753662109375
1.0493011474609375,0.2711944580078125,-0.1324005126953125
1.185028076171875,0.2927093505859375,-0.2383575439453125
1.3516082763671875,0.394195556640625,-0.2690277099609375
1.4201812744140625,0.4059906005859375,-0.3680572509765625
1.0578765869140625,0.28814697265625,-0.31390380859375
1.1476287841796875,0.3326873779296875,-0.2127227783203125
1.3159942626953125,0.459075927734375,-0.123565673828125
1.4446258544921875,0.26617431640625,-0.0909271240234375
1.3707427978515625,0.08782958984375,-0.075897216796875
1.378204345703125,0.0787353515625,-0.0396270751953125
1.3368988037109375,0.0805206298828125,0.0895843505859375
1.3089141845703125,0.08380126953125,0.1273040771484375
1.13787841796875,0.0447235107421875,0.1307220458984375
0.981597900390625,0.0045623779296875,0.12176513671875
0.9677734375,0.0069122314453125,0.103729248046875
1.0127716064453125,0.0455322265625,0.0768585205078125
1.0291748046875,0.0471038818359375,0.0301513671875
1.197265625,0.043975830078125,-0.0119476318359375
1.0407257080078125,0.02471923828125,-0.1036834716796875
1.00347900390625,0.0431060791015625,0.0060577392578125
1.104583740234375,0.11151123046875,-0.0979156494140625
1.2928924560546875,0.2161407470703125,-0.2160186767578125
1.20501708984375,0.2515411376953125,-0.1879425048828125
1.025726318359375,0.1873931884765625,-0.0640716552734375
0.9129638671875,0.1596527099609375,0.0010223388671875
0.9678192138671876,0.0995330810546875,0.012237548828125
1.1966400146484375,0.0640106201171875,-0.03265380859375
1.3163909912109375,0.121124267578125,-0.0858612060546875
1.27294921875,0.1813201904296875,-0.1701507568359375
1.1320648193359375,0.2183837890625,-0.22930908203125
1.1735992431640625,0.22869873046875,-0.3188323974609375
1.2252197265625,0.3449859619140625,-0.362823486328125
1.35565185546875,0.3768157958984375,-0.4245758056640625
1.22808837890625,0.3116302490234375,-0.375091552734375
1.270782470703125,0.195281982421875,-0.2191314697265625
1.267364501953125,0.200103759765625,-0.10125732421875
1.291351318359375,0.1657257080078125,-0.0905609130859375
1.30035400390625,0.090301513671875,-0.090576171875
1.202850341796875,0.0916748046875,-0.04400634765625
1.1963348388671875,0.1003875732421875,0.0223846435546875
1.1873016357421875,0.1023101806640625,0.0468902587890625
1.218658447265625,0.08856201171875,0.0780487060546875
1.098785400390625,0.0450592041015625,0.1002044677734375
0.8624420166015625,0.0374603271484375,0.1286468505859375
0.8286285400390625,0.048004150390625,0.0745849609375
0.97027587890625,0.05419921875,0.03375244140625
1.229766845703125,0.0096282958984375,0.081634521484375
1.1754150390625,0.012725830078125,0.0271759033203125
0.909393310546875,0.0948638916015625,-0.1749420166015625
0.97265625,0.1409149169921875,-0.17559814453125
1.3696136474609375,0.075347900390625,-0.1212158203125
1.2710418701171875,0.04205322265625,-0.0014495849609375
1.021759033203125,0.094268798828125,-0.0286407470703125
0.8370208740234375,0.1542816162109375,-0.164794921875
0.82781982421875,0.174774169921875,-0.10333251953125
0.9727020263671876,0.1755828857421875,-0.0012054443359375
1.22418212890625,0.169189453125,-0.0728912353515625
1.192047119140625,0.1798858642578125,-0.118865966796875
1.1380767822265625,0.20208740234375,-0.1701812744140625
1.15179443359375,0.2120361328125,-0.261871337890625
1.28680419921875,0.2485809326171875,-0.3077850341796875
1.4839935302734375,0.2800750732421875,-0.324371337890625
1.274383544921875,0.3221282958984375,-0.389312744140625
1.135528564453125,0.2232818603515625,-0.2897796630859375
1.28753662109375,0.225311279296875,-0.2101287841796875
1.3862762451171875,0.1807861328125,-0.139862060546875
1.3343353271484375,0.0816802978515625,-0.079803466796875
1.1938934326171875,0.0579833984375,-0.0596466064453125
1.1493072509765625,0.0583038330078125,0.016815185546875
1.1305084228515625,0.05694580078125,0.0501556396484375
1.1745758056640625,0.060028076171875,0.0550537109375
1.06695556640625,0.0680389404296875,0.076904296875
0.9078521728515624,0.06768798828125,0.113555908203125
0.8536834716796875,0.06060791015625,0.1223297119140625
0.9598236083984376,0.0451812744140625,0.1248016357421875
1.0278778076171875,0.0378875732421875,0.03076171875
1.2245330810546875,0.0623321533203125,0.003082275390625
0.99542236328125,0.0960845947265625,-0.1173095703125
1.060699462890625,0.0553436279296875,-0.120697021484375
1.2069549560546875,0.1042938232421875,-0.206634521484375
1.278228759765625,0.1474609375,-0.2123870849609375
1.151947021484375,0.1004180908203125,-0.0817718505859375
0.9388885498046876,0.047332763671875,-0.077239990234375
0.8699798583984375,0.04925537109375,-0.045562744140625
1.010833740234375,0.0639495849609375,-0.0390472412109375
1.1832122802734375,0.123016357421875,-0.0653076171875
1.2307586669921875,0.2114715576171875,-0.15093994140625
1.06494140625,0.2873077392578125,-0.2099456787109375
0.9534759521484376,0.314666748046875,-0.303436279296875
1.097198486328125,0.320556640625,-0.36083984375
1.15557861328125,0.3332977294921875,-0.2339630126953125
1.45379638671875,0.2567138671875,-0.2826385498046875
1.3676605224609375,0.2354736328125,-0.308685302734375
1.254241943359375,0.1761016845703125,-0.1661834716796875
1.366058349609375,0.178314208984375,-0.120513916015625
1.4441986083984375,0.138275146484375,-0.061431884765625
1.3811187744140625,0.096160888671875,-0.075592041015625
1.169403076171875,0.12255859375,-0.0459136962890625
1.11962890625,0.12347412109375,-0.00372314453125
1.1593475341796875,0.11077880859375,0.034912109375
1.1652069091796875,0.0868682861328125,0.0734710693359375
1.12713623046875,0.0435028076171875,0.12713623046875
0.9054107666015624,0.0327301025390625,0.1650390625
0.819183349609375,0.0276641845703125,0.1019134521484375
0.9316864013671876,0.0623321533203125,0.07952880859375
0.9359130859375,0.0884552001953125,0.0858612060546875
1.2336578369140625,0.017547607421875,0.072113037109375
1.0828857421875,0.025360107421875,-0.0584564208984375
0.9358367919921876,0.0955352783203125,-0.167816162109375
1.1815948486328125,0.1794891357421875,-0.1924285888671875
1.36346435546875,0.201568603515625,-0.191864013671875
1.228179931640625,0.16815185546875,-0.1432037353515625
1.02569580078125,0.1612091064453125,-0.155059814453125
0.912353515625,0.1736297607421875,-0.12554931640625
0.9752349853515624,0.0809478759765625,-0.0250701904296875
1.1537933349609375,0.0516204833984375,-0.023284912109375
1.2118377685546875,0.087127685546875,-0.0792083740234375
1.105438232421875,0.1688995361328125,-0.124725341796875
0.92279052734375,0.222442626953125,-0.1225433349609375
0.986358642578125,0.2418975830078125,-0.188232421875
1.175811767578125,0.296417236328125,-0.1337432861328125
2.1211395263671875,0.32513427734375,-0.388092041015625
1.228790283203125,0.375518798828125,-0.3278961181640625
0.808380126953125,0.1573333740234375,-0.2813873291015625
1.0273590087890625,0.0822906494140625,-0.1806640625
1.309051513671875,0.1027069091796875,-0.126007080078125
1.4454803466796875,0.1002960205078125,-0.1714019775390625
1.5192413330078125,0.0516510009765625,-0.211334228515625
1.3125152587890625,0.0874176025390625,-0.170379638671875
1.2276458740234375,0.116119384765625,-0.1363525390625
1.0582427978515625,0.1037750244140625,-0.0688629150390625
0.9132843017578124,0.06591796875,-0.056610107421875
0.7978973388671875,0.0166168212890625,-0.053131103515625
0.6696624755859375,-0.0373687744140625,-0.0169219970703125
0.6378173828125,-0.109710693359375,0.0240325927734375
0.6533355712890625,-0.1487274169921875,0.0745849609375
0.8826751708984375,-0.1444091796875,0.1866455078125
1.3696136474609375,-0.0693359375,0.388671875
1.9738006591796875,0.1904296875,0.7457122802734375
2.2152862548828125,0.6295928955078125,1.2895050048828125
1.772857666015625,0.9595794677734376,1.2385406494140625
1.713226318359375,1.2963409423828125,-0.0315704345703125
1.4055328369140625,1.2641754150390625,-0.226806640625
0.8897247314453125,0.5440216064453125,0.3947906494140625
0.920989990234375,0.3925323486328125,0.4446563720703125
1.0206298828125,0.264862060546875,0.46783447265625
0.8190460205078125,0.0255889892578125,0.2735595703125
0.4853363037109375,0.000885009765625,0.0639495849609375
0.353790283203125,0.0680694580078125,-0.095977783203125
0.3479766845703125,0.1823577880859375,-0.01904296875
0.53570556640625,0.1683197021484375,-0.02001953125
0.854034423828125,0.1907196044921875,0.0458221435546875
0.9829864501953124,0.0980377197265625,0.052520751953125
1.1468963623046875,-0.099853515625,-0.0859527587890625
1.1861114501953125,-0.214324951171875,-0.257110595703125
1.029693603515625,-0.1755523681640625,-0.2887725830078125
0.9643402099609376,-0.066375732421875,-0.356781005859375
0.8838348388671875,-0.0008697509765625,-0.482452392578125
1.1409912109375,-0.0889892578125,-0.549530029296875
1.3134613037109375,-0.12298583984375,-0.48345947265625
1.5066986083984375,-0.111785888671875,-0.383209228515625
1.716064453125,-0.1414947509765625,-0.3625946044921875
1.63580322265625,-0.1750946044921875,-0.2168426513671875
1.298492431640625,-0.19525146484375,-0.337432861328125
1.28033447265625,-0.153411865234375,-0.22271728515625
1.8309783935546875,0.093017578125,-0.2362213134765625
1.545257568359375,0.09814453125,0.075836181640625
1.432373046875,0.1218719482421875,-0.4107666015625
0.8466339111328125,0.329132080078125,-0.3530426025390625
0.5265045166015625,0.2040252685546875,0.037445068359375
0.25927734375,0.074462890625,0.0763092041015625
0.1807403564453125,0.1623687744140625,-0.6224517822265625
0.213134765625,0.4919281005859375,-0.432342529296875
0.20001220703125,0.086395263671875,-0.1452178955078125
0.230712890625,0.122161865234375,-0.901885986328125
0.4720458984375,0.2005767822265625,-0.829803466796875
0.6380157470703125,-0.1303558349609375,-0.895050048828125
0.7778472900390625,-0.0988311767578125,-1.077178955078125
0.796600341796875,-0.09735107421875,-1.3444671630859375
0.456756591796875,-0.03192138671875,-1.0721588134765625
0.4106597900390625,0.11334228515625,-0.787200927734375
0.30474853515625,0.3745574951171875,-0.61566162109375
0.2661285400390625,0.3038330078125,-0.5678558349609375
0.2258148193359375,0.2804107666015625,-0.8786468505859375
0.3879547119140625,0.3716888427734375,-1.0721435546875
0.554046630859375,0.4639892578125,-1.0105438232421875
0.46173095703125,0.327789306640625,-0.807281494140625
0.3431549072265625,0.2562408447265625,-0.8108062744140625
0.3574676513671875,0.1787109375,-0.945068359375
0.27423095703125,0.0789642333984375,-0.7865447998046875
0.3181610107421875,0.14453125,-0.8120880126953125
0.6067962646484375,0.1428985595703125,-1.0274658203125
0.518524169921875,0.1793212890625,-0.9294281005859376
0.41082763671875,0.0421905517578125,-0.8280029296875
0.408935546875,0.2383575439453125,-0.927398681640625
0.3824920654296875,0.2159423828125,-0.9354095458984376
0.3656463623046875,0.199188232421875,-0.9305267333984376
0.35980224609375,0.15826416015625,-0.926483154296875
0.384613037109375,0.16265869140625,-0.9046783447265624
0.4129791259765625,0.1757659912109375,-0.9119110107421876
0.430023193359375,0.1682586669921875,-0.933319091796875
0.3896484375,0.190277099609375,-0.8965911865234375
0.38043212890625,0.2046661376953125,-0.8976287841796875
0.371368408203125,0.167205810546875,-0.9110870361328124
0.37298583984375,0.15472412109375,-0.921173095703125
0.3750762939453125,0.1473236083984375,-0.917755126953125
0.3675994873046875,0.150299072265625,-0.924896240234375
0.3725433349609375,0.12811279296875,-0.9261474609375
0.3909149169921875,0.1251983642578125,-0.9362335205078124
0.37200927734375,0.1104736328125,-0.924072265625
0.3722686767578125,0.1098175048828125,-0.9089508056640624
0.3844757080078125,0.1086578369140625,-0.9285430908203124
0.3787689208984375,0.104095458984375,-0.9313507080078124
0.3656768798828125,0.0674285888671875,-0.9072723388671876
0.3661041259765625,0.07696533203125,-0.92645263671875
0.3693084716796875,0.086761474609375,-0.9409637451171876
0.3729705810546875,0.1138153076171875,-0.9322357177734376
0.3661956787109375,0.1173858642578125,-0.92913818359375
0.3655853271484375,0.07342529296875,-0.9179840087890624
0.3641204833984375,0.05010986328125,-0.9299163818359376
0.3556671142578125,0.054290771484375,-0.930023193359375
0.36077880859375,0.046783447265625,-0.9283905029296876
0.36358642578125,0.0636444091796875,-0.93017578125
0.3978118896484375,0.0938262939453125,-0.927154541015625
0.377899169921875,0.096343994140625,-0.926116943359375
0.3698883056640625,0.087066650390625,-0.928314208984375
0.3670196533203125,0.0827178955078125,-0.9300537109375
0.369598388671875,0.0784149169921875,-0.9261627197265624
0.3702239990234375,0.0844573974609375,-0.92523193359375
0.3754425048828125,0.084930419921875,-0.936248779296875
0.366973876953125,0.089996337890625,-0.926025390625
0.368896484375,0.093414306640625,-0.925537109375
0.3712615966796875,0.101226806640625,-0.9265594482421876
0.38226318359375,0.1146392822265625,-0.9053497314453124
0.3767547607421875,0.0738525390625,-0.9521026611328124
0.364471435546875,0.0743255615234375,-0.9291534423828124
0.3596649169921875,0.0853118896484375,-0.9252471923828124
