AccelerationX,AccelerationY,AccelerationZ
0.89453125,0.061798095703125,-0.4153900146484375
0.8934478759765625,0.0601654052734375,-0.4090423583984375
0.887908935546875,0.060211181640625,-0.41571044921875
0.8863983154296875,0.072509765625,-0.4278106689453125
0.875732421875,0.0660552978515625,-0.4305572509765625
0.868927001953125,0.0529937744140625,-0.434234619140625
0.875946044921875,0.074005126953125,-0.450927734375
0.8679656982421875,0.06689453125,-0.4471435546875
0.881103515625,0.074462890625,-0.4632415771484375
0.9192047119140624,0.069488525390625,-0.4868621826171875
0.913330078125,0.0737457275390625,-0.4815673828125
0.885528564453125,0.057342529296875,-0.4883575439453125
0.8466339111328125,0.0890045166015625,-0.483001708984375
0.8084716796875,0.0815582275390625,-0.4671630859375
0.805084228515625,0.0939788818359375,-0.51190185546875
0.81072998046875,0.076568603515625,-0.4955596923828125
0.8222198486328125,0.0480499267578125,-0.4439697265625
0.836212158203125,0.0502166748046875,-0.3604888916015625
0.8470306396484375,0.0457916259765625,-0.339202880859375
0.8002777099609375,0.0781402587890625,-0.274688720703125
0.8285980224609375,0.063690185546875,-0.167449951171875
0.95220947265625,0.0739593505859375,-0.095123291015625
1.049407958984375,0.0811614990234375,-0.0748138427734375
1.184112548828125,0.089569091796875,-0.0718994140625
1.42333984375,0.106231689453125,-0.004180908203125
1.4778594970703125,0.1334991455078125,0.0661773681640625
1.4847564697265625,0.174713134765625,-0.0306396484375
1.2933807373046875,0.256683349609375,-0.136383056640625
0.8814544677734375,0.2764434814453125,-0.1158905029296875
0.8420562744140625,0.1632537841796875,-0.079803466796875
0.9991607666015624,0.1133880615234375,-0.0501708984375
0.9419097900390624,-0.00537109375,0.0187530517578125
0.8011932373046875,-0.0816497802734375,-0.0683441162109375
0.578521728515625,-0.056304931640625,-0.1819305419921875
0.514556884765625,0.04046630859375,-0.162567138671875
0.621795654296875,0.0202178955078125,-0.1273956298828125
0.804290771484375,0.0680389404296875,-0.1518096923828125
0.9197998046875,0.0927581787109375,-0.1559295654296875
0.855804443359375,0.12255859375,-0.180694580078125
1.0013885498046875,0.1200714111328125,-0.1869354248046875
1.163482666015625,0.1188507080078125,-0.1142730712890625
1.43914794921875,0.1153717041015625,-0.0955810546875
1.5027923583984375,0.2246551513671875,-0.2548675537109375
1.3505706787109375,0.329071044921875,-0.1941375732421875
1.171875,0.2480010986328125,-0.0927581787109375
1.313873291015625,0.1542205810546875,-0.0553131103515625
1.2471160888671875,0.0938720703125,-0.0088348388671875
1.00238037109375,0.0452117919921875,0.0004119873046875
0.8501129150390625,0.0388031005859375,-0.011474609375
0.8770294189453125,0.0514373779296875,0.0036468505859375
0.885467529296875,0.0819091796875,0.02587890625
0.856292724609375,0.09942626953125,0.0427093505859375
0.83038330078125,0.0881195068359375,0.0265045166015625
0.9257965087890624,0.0647125244140625,0.025604248046875
1.008544921875,0.0552215576171875,0.077850341796875
1.1905670166015625,0.010772705078125,0.100555419921875
1.411285400390625,-0.0087738037109375,0.0686187744140625
1.128997802734375,0.037811279296875,-0.0479736328125
1.009368896484375,0.1259307861328125,-0.149932861328125
1.2203521728515625,0.229461669921875,-0.321136474609375
1.2251739501953125,0.2021026611328125,-0.15533447265625
1.08544921875,0.096954345703125,-0.03759765625
0.816741943359375,0.0656890869140625,-0.070770263671875
0.66485595703125,0.0448150634765625,-0.0977783203125
0.697540283203125,0.0698394775390625,-0.068115234375
0.8949127197265625,0.0761260986328125,-0.085357666015625
1.0777130126953125,0.0966796875,-0.149658203125
1.020965576171875,0.135589599609375,-0.1968536376953125
0.9547576904296876,0.138916015625,-0.2154998779296875
1.085113525390625,0.1584320068359375,-0.3382720947265625
1.514923095703125,0.2791290283203125,-0.3271331787109375
1.5288848876953125,0.305267333984375,-0.263031005859375
1.3306732177734375,0.2352447509765625,-0.2281341552734375
1.2199249267578125,0.1651458740234375,-0.1113739013671875
1.33795166015625,0.156280517578125,-0.0894317626953125
1.3677825927734375,0.13018798828125,-0.07080078125
1.1185302734375,0.1068267822265625,-0.0347442626953125
0.94036865234375,0.0877532958984375,-0.0034637451171875
0.974700927734375,0.0523681640625,0.0406646728515625
1.039947509765625,0.039306640625,0.0489959716796875
0.961822509765625,0.094757080078125,0.111846923828125
0.929229736328125,0.0721588134765625,0.1293487548828125
0.837921142578125,0.055389404296875,0.0984954833984375
0.9329986572265624,0.083465576171875,0.086578369140625
1.112152099609375,0.085357666015625,0.128143310546875
1.23406982421875,0.0496063232421875,0.099273681640625
1.2752532958984375,-0.0255584716796875,-0.02020263671875
0.8451385498046875,0.0586395263671875,-0.14727783203125
0.8597259521484375,0.111175537109375,-0.10430908203125
1.153533935546875,0.17095947265625,-0.1888275146484375
1.359771728515625,0.1760101318359375,-0.1751708984375
1.22320556640625,0.156097412109375,-0.1494903564453125
0.883270263671875,0.154327392578125,-0.1159210205078125
0.7906036376953125,0.109039306640625,-0.10430908203125
0.9588470458984376,0.0677032470703125,-0.0500335693359375
1.188385009765625,0.06268310546875,-0.072052001953125
1.265594482421875,0.0700531005859375,-0.186737060546875
1.121734619140625,0.09918212890625,-0.224639892578125
1.0939788818359375,0.11187744140625,-0.273223876953125
1.2016143798828125,0.170501708984375,-0.2929840087890625
1.4352569580078125,0.2660980224609375,-0.3963470458984375
1.2381134033203125,0.3553314208984375,-0.36236572265625
1.1405029296875,0.268096923828125,-0.2913665771484375
1.3066253662109375,0.249237060546875,-0.17950439453125
1.400848388671875,0.1763763427734375,-0.0697021484375
1.3381195068359375,0.0907135009765625,-0.004119873046875
1.1373748779296875,0.0437774658203125,0.0353851318359375
1.0602874755859375,0.02984619140625,0.0614166259765625
1.0815582275390625,0.045166015625,0.078216552734375
1.048919677734375,0.0709686279296875,0.0847930908203125
1.025421142578125,0.0733489990234375,0.0841064453125
0.9388275146484376,0.0653228759765625,0.0863494873046875
0.8947906494140625,0.0519866943359375,0.095489501953125
1.008331298828125,0.0527496337890625,0.100433349609375
1.00848388671875,0.0413665771484375,0.0667877197265625
1.2875213623046875,0.0011138916015625,0.0060577392578125
0.97576904296875,0.0683135986328125,-0.166656494140625
0.9293060302734376,0.093536376953125,-0.2045745849609375
1.1357269287109375,0.1488189697265625,-0.287506103515625
1.2169952392578125,0.162872314453125,-0.219573974609375
1.0472869873046875,0.0651092529296875,-0.107421875
0.84613037109375,0.0343475341796875,-0.0680389404296875
0.835906982421875,0.069915771484375,-0.1123046875
0.971923828125,0.07232666015625,-0.129974365234375
1.13238525390625,0.0845489501953125,-0.0654449462890625
1.1921844482421875,0.1179962158203125,-0.098907470703125
1.1045074462890625,0.18499755859375,-0.22064208984375
1.0384368896484375,0.26910400390625,-0.3338775634765625
1.1248321533203125,0.330169677734375,-0.3870391845703125
1.41326904296875,0.3026275634765625,-0.3001251220703125
1.5314483642578125,0.228424072265625,-0.2707977294921875
1.2109375,0.151641845703125,-0.17169189453125
1.092315673828125,0.091400146484375,-0.127288818359375
1.19818115234375,0.1318511962890625,-0.1455230712890625
1.2678070068359375,0.1539306640625,-0.1521453857421875
1.0753173828125,0.1528472900390625,-0.130157470703125
0.938079833984375,0.1264190673828125,-0.0694427490234375
0.9350433349609376,0.088165283203125,-0.0040283203125
0.98150634765625,0.06170654296875,0.050689697265625
0.9675750732421876,0.0598907470703125,0.0846710205078125
0.9593353271484376,0.046173095703125,0.09124755859375
0.9173583984375,0.0320587158203125,0.100677490234375
0.9864501953125,0.04046630859375,0.0814666748046875
1.056915283203125,0.0611114501953125,0.076080322265625
1.188629150390625,0.0669403076171875,0.083404541015625
1.275909423828125,0.024566650390625,-0.0103912353515625
0.8957366943359375,0.097808837890625,-0.1519317626953125
0.87591552734375,0.124481201171875,-0.198028564453125
1.10931396484375,0.188140869140625,-0.2782440185546875
1.130645751953125,0.123809814453125,-0.161346435546875
0.93060302734375,0.069122314453125,-0.0995025634765625
0.73663330078125,0.086822509765625,-0.12481689453125
0.774932861328125,0.0792388916015625,-0.121795654296875
0.9704132080078124,0.0947265625,-0.0522613525390625
1.219940185546875,0.090789794921875,-0.089202880859375
1.2180938720703125,0.136322021484375,-0.1935272216796875
1.001708984375,0.17572021484375,-0.1819305419921875
1.007965087890625,0.155364990234375,-0.1974334716796875
1.3010406494140625,0.1485748291015625,-0.3402099609375
1.3650054931640625,0.2052001953125,-0.258941650390625
1.49835205078125,0.2128448486328125,-0.3040313720703125
1.2254791259765625,0.182891845703125,-0.244384765625
1.06561279296875,0.193023681640625,-0.1845245361328125
1.2379608154296875,0.235748291015625,-0.1942138671875
1.290130615234375,0.188262939453125,-0.1165618896484375
1.086578369140625,0.146942138671875,-0.0492095947265625
0.973663330078125,0.090576171875,0.006591796875
0.97509765625,0.03973388671875,0.0417327880859375
0.9617919921875,0.058990478515625,0.0513916015625
0.99127197265625,0.0789794921875,0.059844970703125
0.956298828125,0.1006927490234375,0.0590362548828125
0.9360809326171876,0.095184326171875,0.080535888671875
1.0063018798828125,0.064788818359375,0.114227294921875
1.0848541259765625,0.0253143310546875,0.112396240234375
1.3264007568359375,0.011322021484375,0.1161041259765625
1.163726806640625,-0.0019683837890625,-0.0231781005859375
0.8029632568359375,0.0548095703125,-0.253082275390625
0.789398193359375,0.1252593994140625,-0.22943115234375
1.079742431640625,0.122039794921875,-0.2753448486328125
1.0484466552734375,0.0522918701171875,-0.1889190673828125
0.901214599609375,0.0373382568359375,-0.1498565673828125
0.754913330078125,0.092010498046875,-0.2117156982421875
0.80120849609375,0.1152191162109375,-0.14471435546875
0.9869384765625,0.1339874267578125,-0.06341552734375
1.2451934814453125,0.1655120849609375,-0.1011505126953125
1.194976806640625,0.1794586181640625,-0.1463775634765625
0.99462890625,0.2005462646484375,-0.1417236328125
1.0198516845703125,0.2106170654296875,-0.1799774169921875
1.278045654296875,0.2510833740234375,-0.2672271728515625
1.390594482421875,0.2597503662109375,-0.1961822509765625
1.5931854248046875,0.277008056640625,-0.2685089111328125
1.35516357421875,0.2975921630859375,-0.302459716796875
0.9265594482421876,0.240142822265625,-0.197601318359375
1.0025787353515625,0.1954498291015625,-0.204925537109375
1.2274932861328125,0.1302337646484375,-0.170684814453125
1.1255340576171875,0.085113525390625,-0.11712646484375
1.003143310546875,0.0675811767578125,-0.066925048828125
1.032470703125,0.054779052734375,-0.0345916748046875
1.0817108154296875,0.0616455078125,0.014251708984375
1.0564422607421875,0.0598297119140625,0.066192626953125
0.974609375,0.0644683837890625,0.073150634765625
0.9011688232421876,0.0557861328125,0.0904083251953125
0.9086761474609376,0.055633544921875,0.057281494140625
1.0163421630859375,0.0562591552734375,0.0272216796875
1.0545501708984375,0.054168701171875,0.0384521484375
1.3546142578125,-0.00738525390625,0.0462799072265625
1.00384521484375,0.0274810791015625,-0.2042083740234375
0.7722320556640625,0.076202392578125,-0.28497314453125
0.9789581298828124,0.1118621826171875,-0.1559295654296875
1.249053955078125,0.0605010986328125,-0.18035888671875
1.111297607421875,0.02880859375,-0.13067626953125
0.8890228271484375,0.0876617431640625,-0.1621246337890625
0.797637939453125,0.148590087890625,-0.1238861083984375
0.9025115966796876,0.1494598388671875,-0.1379547119140625
1.0762176513671875,0.165283203125,-0.066864013671875
1.1296234130859375,0.1690673828125,-0.0371856689453125
1.082366943359375,0.166534423828125,-0.1218109130859375
1.0044708251953125,0.2021026611328125,-0.10858154296875
1.1502685546875,0.2068634033203125,-0.1607208251953125
1.37322998046875,0.2529296875,-0.20172119140625
1.60418701171875,0.303619384765625,-0.249908447265625
1.308746337890625,0.3342437744140625,-0.3107147216796875
0.7885894775390625,0.227508544921875,-0.352386474609375
0.625701904296875,0.1956024169921875,-0.31951904296875
0.939788818359375,0.228485107421875,-0.2085113525390625
1.3421173095703125,0.1837310791015625,-0.0965576171875
1.5023651123046875,0.062591552734375,-0.0773468017578125
1.2604217529296875,-0.0119171142578125,-0.0150909423828125
1.1385498046875,-0.018157958984375,0.041046142578125
1.0930023193359375,0.018310546875,0.0533294677734375
1.04296875,0.0475006103515625,0.024658203125
0.984527587890625,0.0779571533203125,-0.0440673828125
0.8306884765625,0.1051025390625,-0.0997772216796875
0.8123626708984375,0.0818634033203125,-0.093841552734375
0.8652801513671875,0.0213623046875,-0.062286376953125
0.868896484375,-0.0090789794921875,-0.0210418701171875
1.241729736328125,-0.067047119140625,0.0174713134765625
1.247589111328125,0.005828857421875,-0.0413055419921875
1.2598724365234375,0.143280029296875,-0.3569793701171875
1.29071044921875,0.2939453125,-0.5004730224609375
1.1627960205078125,0.175079345703125,-0.12493896484375
1.087921142578125,-0.0330657958984375,0.084075927734375
0.9779052734375,-0.1214599609375,0.0524444580078125
0.7965850830078125,-0.056396484375,0.0570526123046875
0.836395263671875,0.08056640625,0.013519287109375
0.93524169921875,0.2354583740234375,-0.0208892822265625
1.0405731201171875,0.3114471435546875,-0.0689849853515625
0.98260498046875,0.2837066650390625,-0.0587005615234375
0.82769775390625,0.2110595703125,-0.0458526611328125
0.919525146484375,0.146209716796875,-0.11505126953125
1.2267608642578125,0.1122283935546875,-0.1325225830078125
1.585845947265625,0.1940765380859375,-0.2082366943359375
1.3259429931640625,0.2541656494140625,-0.29888916015625
0.95684814453125,0.186859130859375,-0.3675537109375
0.7634735107421875,0.1856689453125,-0.3283538818359375
1.058837890625,0.192626953125,-0.4031219482421875
1.309661865234375,0.16082763671875,-0.2859344482421875
1.3696441650390625,0.0924224853515625,-0.2125701904296875
1.3521881103515625,0.02288818359375,-0.169097900390625
1.3344573974609375,-0.0293121337890625,-0.0604248046875
1.27874755859375,-0.041961669921875,-0.0351104736328125
1.1983184814453125,-0.03155517578125,-0.0405426025390625
1.0514373779296875,0.002471923828125,-0.08984375
0.8806915283203125,0.047393798828125,-0.0736083984375
0.78973388671875,0.0533905029296875,-0.1099700927734375
0.7473602294921875,0.0467376708984375,-0.0956268310546875
0.7973480224609375,-0.00244140625,-0.0363006591796875
0.7996063232421875,-0.0323486328125,-0.0957183837890625
0.942657470703125,-0.027008056640625,0.0256805419921875
1.14239501953125,-0.0135955810546875,0.066131591796875
1.191925048828125,0.1091461181640625,-0.027862548828125
1.2474822998046875,0.2146453857421875,-0.1653289794921875
1.30926513671875,0.3012237548828125,-0.047271728515625
1.264923095703125,0.268585205078125,-0.000732421875
1.2589111328125,0.14447021484375,0.0146331787109375
1.0874176025390625,0.13665771484375,0.05035400390625
0.9681549072265624,0.15869140625,0.0483856201171875
1.0067596435546875,0.202850341796875,-0.0048828125
1.0370025634765625,0.23809814453125,-0.0779266357421875
1.0401153564453125,0.2378997802734375,-0.18206787109375
0.9619598388671876,0.2606353759765625,-0.240997314453125
0.956390380859375,0.2055511474609375,-0.2598876953125
1.03948974609375,0.1473236083984375,-0.2762451171875
1.215087890625,0.1504058837890625,-0.1944122314453125
1.4766845703125,0.1720123291015625,-0.333251953125
1.1362457275390625,0.1884613037109375,-0.335235595703125
0.8763275146484375,0.158233642578125,-0.296142578125
1.0864715576171875,0.1775665283203125,-0.2548370361328125
1.3557891845703125,0.212005615234375,-0.216064453125
1.3495330810546875,0.11480712890625,-0.0975341796875
1.3451995849609375,0.0358123779296875,-0.0279541015625
1.3458099365234375,-0.008209228515625,-0.031341552734375
1.254425048828125,-0.0113677978515625,0.0129241943359375
1.15570068359375,0.0038604736328125,0.000762939453125
1.0030670166015625,0.0094451904296875,-0.0444488525390625
0.8271484375,0.030914306640625,-0.056976318359375
0.7130584716796875,0.04132080078125,-0.065643310546875
0.7416229248046875,0.02020263671875,-0.0675048828125
0.96026611328125,0.0013427734375,-0.0707855224609375
1.0468902587890625,-0.001861572265625,-0.0026092529296875
1.2525787353515625,-0.0424652099609375,0.0189208984375
1.1045074462890625,0.0092620849609375,-0.0784149169921875
1.0246124267578125,0.0909423828125,-0.2295074462890625
1.242462158203125,0.2023773193359375,-0.3367919921875
1.2108612060546875,0.238800048828125,-0.2129058837890625
1.000579833984375,0.10687255859375,-0.03680419921875
0.9258575439453124,0.01141357421875,-0.0188751220703125
0.8988800048828125,-0.000946044921875,0.0312347412109375
0.9755706787109376,0.044342041015625,0.03955078125
1.0357666015625,0.1214141845703125,0.015625
1.1208343505859375,0.200103759765625,-0.0111846923828125
1.0755767822265625,0.24212646484375,-0.0234832763671875
0.9667205810546876,0.2660369873046875,-0.0512237548828125
1.0984039306640625,0.2962646484375,-0.2241668701171875
1.2005615234375,0.364349365234375,-0.3080902099609375
1.456329345703125,0.3546905517578125,-0.344207763671875
1.31903076171875,0.24755859375,-0.3235015869140625
1.0295257568359375,0.1019287109375,-0.2373046875
1.1346282958984375,0.0524444580078125,-0.329864501953125
1.19256591796875,0.1167144775390625,-0.243316650390625
1.267791748046875,0.11798095703125,-0.2178955078125
1.339080810546875,0.0603790283203125,-0.1997222900390625
1.2493438720703125,0.00457763671875,-0.115509033203125
1.2325439453125,-0.0011138916015625,-0.0282745361328125
1.180419921875,0.0101165771484375,0.012664794921875
1.078857421875,0.0138092041015625,-0.0030059814453125
0.9228363037109376,0.026947021484375,-0.0094146728515625
0.790863037109375,0.0352325439453125,0.00384521484375
0.8155975341796875,0.030029296875,0.022979736328125
0.927642822265625,0.032470703125,0.0025634765625
0.875335693359375,0.049224853515625,-0.0386962890625
1.099700927734375,-0.002197265625,-0.06646728515625
1.0208740234375,0.0299835205078125,-0.0749664306640625
0.9647979736328124,0.0600128173828125,-0.1301116943359375
1.1422119140625,0.1143798828125,-0.225555419921875
1.252777099609375,0.1815032958984375,-0.1910400390625
1.1891632080078125,0.17645263671875,-0.05865478515625
1.0708465576171875,0.12603759765625,-0.0031280517578125
1.0225372314453125,0.0884857177734375,0.0183563232421875
1.0951995849609375,0.09588623046875,0.0691375732421875
1.207275390625,0.1425323486328125,0.0715179443359375
1.284912109375,0.2243194580078125,-0.0312042236328125
1.108062744140625,0.2841644287109375,-0.0915374755859375
0.9268035888671876,0.307220458984375,-0.1392059326171875
1.0926513671875,0.317657470703125,-0.294525146484375
1.218902587890625,0.3568572998046875,-0.412261962890625
1.1932220458984375,0.3597564697265625,-0.3287506103515625
1.336273193359375,0.30419921875,-0.3877105712890625
1.1705780029296875,0.20428466796875,-0.3126678466796875
1.2264404296875,0.16619873046875,-0.2392120361328125
1.268341064453125,0.2115478515625,-0.2068328857421875
1.429595947265625,0.1913299560546875,-0.1290130615234375
1.473724365234375,0.1009674072265625,-0.0617828369140625
1.3659210205078125,0.0516357421875,0.0071258544921875
1.3330535888671875,0.0240478515625,0.0821990966796875
1.3223419189453125,0.0102081298828125,0.1297760009765625
1.2496795654296875,0.019439697265625,0.1297149658203125
1.037689208984375,0.040802001953125,0.1164398193359375
0.836578369140625,0.0695953369140625,0.0576019287109375
0.7095184326171875,0.096160888671875,0.0105438232421875
0.7838134765625,0.1007232666015625,-0.011138916015625
0.8381805419921875,0.0619964599609375,-0.099029541015625
0.8775634765625,0.0614013671875,-0.0553131103515625
0.8972625732421875,0.007171630859375,-0.1348876953125
1.0202178955078125,0.0005645751953125,0.01165771484375
1.1381378173828125,0.004150390625,-0.0394134521484375
1.2254486083984375,0.0948333740234375,-0.2872772216796875
1.3191375732421875,0.2061614990234375,-0.2405853271484375
1.2784881591796875,0.26470947265625,-0.1504974365234375
1.0836029052734375,0.248748779296875,-0.1148681640625
1.1215057373046875,0.1353302001953125,-0.02874755859375
1.2660675048828125,0.0796661376953125,0.045013427734375
1.3515777587890625,0.0938262939453125,-0.0221405029296875
1.22735595703125,0.1865234375,-0.1071624755859375
1.053253173828125,0.2481842041015625,-0.1603240966796875
0.9305877685546876,0.2476806640625,-0.1912841796875
0.96038818359375,0.244140625,-0.2360076904296875
1.147674560546875,0.27276611328125,-0.3490753173828125
1.26214599609375,0.273651123046875,-0.326873779296875
1.36285400390625,0.2668304443359375,-0.3592681884765625
1.1714324951171875,0.2005462646484375,-0.335235595703125
0.9710693359375,0.1330108642578125,-0.2380218505859375
1.1722259521484375,0.1263580322265625,-0.2060394287109375
1.3565216064453125,0.1551055908203125,-0.0983123779296875
1.593536376953125,0.1331024169921875,-0.0916900634765625
1.480712890625,0.1160736083984375,-0.051422119140625
1.35784912109375,0.0726776123046875,0.0512237548828125
1.194427490234375,0.0440521240234375,0.10498046875
1.063201904296875,0.01904296875,0.098297119140625
0.931182861328125,0.023223876953125,0.076171875
0.853179931640625,0.039642333984375,0.05914306640625
0.784942626953125,0.06378173828125,0.0263824462890625
0.7225799560546875,0.07403564453125,-0.0098114013671875
0.7458953857421875,0.070892333984375,-0.0540618896484375
0.81378173828125,0.0475006103515625,-0.1004180908203125
1.0447235107421875,0.00811767578125,-0.0967254638671875
1.2769775390625,-0.020050048828125,-0.0438690185546875
1.3236236572265625,-0.00567626953125,-0.2259368896484375
1.2912445068359375,0.0568389892578125,-0.4072265625
1.2188720703125,0.13165283203125,-0.349853515625
1.047760009765625,0.228057861328125,-0.12884521484375
1.22113037109375,0.0588836669921875,-0.0186309814453125
1.370697021484375,0.0337677001953125,0.129791259765625
1.38665771484375,0.1056976318359375,0.1915740966796875
1.19476318359375,0.24169921875,0.1639251708984375
0.9476776123046876,0.381103515625,0.123138427734375
0.8955841064453125,0.3591766357421875,0.1135101318359375
0.8820343017578125,0.3723602294921875,0.0405731201171875
0.82196044921875,0.3592376708984375,0.0516510009765625
0.9030609130859376,0.3642578125,-0.012420654296875
1.1458282470703125,0.42144775390625,-0.11993408203125
1.3295135498046875,0.5146636962890625,-0.099395751953125
1.2498016357421875,0.52215576171875,-0.18365478515625
1.1085205078125,0.4418792724609375,-0.265350341796875
0.9340667724609376,0.3647613525390625,-0.114959716796875
1.2127838134765625,0.305511474609375,-0.12200927734375
1.4051361083984375,0.265380859375,-0.1328125
1.4084014892578125,0.2162017822265625,-0.1022186279296875
1.312957763671875,0.1993408203125,-0.0225067138671875
1.2850494384765625,0.1479034423828125,0.072540283203125
1.2277069091796875,0.0675048828125,0.1245269775390625
1.1929779052734375,0.00439453125,0.12200927734375
1.1005401611328125,-0.0247955322265625,0.1114654541015625
0.940032958984375,-0.023712158203125,0.1375274658203125
0.7875518798828125,0.003387451171875,0.13922119140625
0.7144622802734375,0.04949951171875,0.0751953125
0.798431396484375,0.0879364013671875,-0.0158233642578125
0.92108154296875,0.1001129150390625,-0.045654296875
1.1023406982421875,0.07037353515625,-0.0587005615234375
1.1396942138671875,0.0405426025390625,-0.1441192626953125
1.139862060546875,0.0631103515625,-0.133270263671875
1.0261993408203125,0.122955322265625,-0.1875152587890625
1.056182861328125,0.2144012451171875,-0.2651824951171875
1.1708831787109375,0.2958984375,-0.1550140380859375
1.269012451171875,0.272735595703125,-0.0729522705078125
1.3148651123046875,0.0784454345703125,0.000885009765625
1.169952392578125,0.0761260986328125,0.0488433837890625
1.01715087890625,0.1507415771484375,0.06475830078125
0.932373046875,0.2210845947265625,0.050262451171875
0.9069366455078124,0.266143798828125,-0.004974365234375
0.87359619140625,0.303314208984375,-0.0411376953125
0.8753204345703125,0.3419189453125,-0.08154296875
0.9806365966796876,0.4056854248046875,-0.1376495361328125
1.13037109375,0.495635986328125,-0.225616455078125
1.1107025146484375,0.487823486328125,-0.18701171875
1.1286163330078125,0.35247802734375,-0.165252685546875
1.3423309326171875,0.299041748046875,-0.1377410888671875
1.08868408203125,0.29107666015625,-0.12799072265625
0.959869384765625,0.24945068359375,-0.0957794189453125
1.164337158203125,0.218780517578125,-0.1116485595703125
1.361053466796875,0.2187957763671875,-0.097076416015625
1.2907562255859375,0.1744537353515625,-0.034393310546875
1.1866607666015625,0.1249542236328125,0.018829345703125
1.16253662109375,0.07086181640625,0.054351806640625
1.123077392578125,0.03192138671875,0.0731201171875
1.05914306640625,0.019073486328125,0.0697174072265625
0.9890594482421876,0.027923583984375,0.0569000244140625
0.8646697998046875,0.054046630859375,0.0299530029296875
0.75274658203125,0.0672149658203125,-0.0155792236328125
0.846160888671875,0.0695037841796875,-0.0224151611328125
0.96185302734375,0.0509796142578125,-0.04498291015625
1.0639190673828125,0.03662109375,0.0046234130859375
1.1347503662109375,0.0155487060546875,-0.0552978515625
1.05621337890625,0.0546417236328125,-0.0467376708984375
1.012725830078125,0.125213623046875,-0.144805908203125
1.0780792236328125,0.21942138671875,-0.244293212890625
1.1328125,0.255462646484375,-0.1471710205078125
1.2513885498046875,0.18792724609375,0.0051116943359375
1.2623443603515625,0.103607177734375,-0.0189361572265625
1.0489959716796875,0.08184814453125,-0.0046844482421875
0.9259033203125,0.109375,-0.0089569091796875
0.901641845703125,0.1619873046875,-0.00762939453125
1.00250244140625,0.179595947265625,-0.046722412109375
0.9710693359375,0.1970367431640625,-0.092926025390625
0.918060302734375,0.205169677734375,-0.19781494140625
0.9149169921875,0.2115325927734375,-0.2317657470703125
1.188140869140625,0.2057952880859375,-0.2795867919921875
1.6435089111328125,0.242950439453125,-0.328460693359375
1.4380645751953125,0.285858154296875,-0.2513427734375
1.0500640869140625,0.1873626708984375,-0.171356201171875
0.8097076416015625,0.107330322265625,-0.1305084228515625
0.91748046875,0.06146240234375,-0.0748443603515625
1.192138671875,0.081817626953125,-0.06549072265625
1.3148040771484375,0.09942626953125,-0.082000732421875
1.2448577880859375,0.132965087890625,-0.0702972412109375
1.12554931640625,0.150970458984375,0.00390625
1.0571136474609375,0.1234588623046875,0.063934326171875
0.982452392578125,0.0934600830078125,0.1043548583984375
0.9170379638671876,0.07171630859375,0.107696533203125
0.82794189453125,0.0643463134765625,0.1056060791015625
0.7721405029296875,0.066131591796875,0.0802459716796875
0.7736968994140625,0.0757598876953125,0.023895263671875
0.8656463623046875,0.082489013671875,-0.0350189208984375
0.9288482666015624,0.079193115234375,-0.0305938720703125
1.30859375,0.0357666015625,0.031097412109375
1.54388427734375,0.0302734375,0.054107666015625
1.32061767578125,0.1025390625,-0.154388427734375
0.948638916015625,0.228271484375,-0.43560791015625
0.9332122802734376,0.3594970703125,-0.4758758544921875
0.9130096435546876,0.405609130859375,-0.164642333984375
1.1233367919921875,0.165069580078125,0.0512847900390625
1.265960693359375,0.0221405029296875,0.055419921875
1.11865234375,-0.066131591796875,-0.0180816650390625
0.86920166015625,0.02105712890625,-0.1314544677734375
0.817138671875,0.1253509521484375,-0.18768310546875
0.8852691650390625,0.1941986083984375,-0.2103271484375
0.8630218505859375,0.229248046875,-0.1905517578125
0.863616943359375,0.2055511474609375,-0.1442718505859375
0.984771728515625,0.1808929443359375,-0.171356201171875
1.1047210693359375,0.156768798828125,-0.2197418212890625
1.0245819091796875,0.1577606201171875,-0.166473388671875
1.128021240234375,0.1478271484375,-0.059539794921875
1.3486785888671875,0.167755126953125,-0.111114501953125
1.3812713623046875,0.2016754150390625,-0.0689697265625
1.22882080078125,0.2099456787109375,-0.0750579833984375
1.02569580078125,0.231353759765625,-0.0572967529296875
1.0637359619140625,0.19976806640625,-0.03668212890625
1.1391143798828125,0.1645050048828125,0.0264434814453125
1.2144012451171875,0.111358642578125,0.0725555419921875
1.0376739501953125,0.1128997802734375,0.103057861328125
0.938232421875,0.0913238525390625,0.1085205078125
0.8980255126953125,0.094024658203125,0.13946533203125
0.8737945556640625,0.1079559326171875,0.154327392578125
0.86871337890625,0.13238525390625,0.1266632080078125
0.9063873291015624,0.158966064453125,0.099884033203125
0.8961029052734375,0.1527862548828125,0.0836029052734375
0.954559326171875,0.13751220703125,0.063568115234375
1.0784454345703125,0.104736328125,-0.000579833984375
1.1972503662109375,0.0829925537109375,0.05242919921875
1.3424072265625,-0.0029449462890625,-0.0562591552734375
1.0843353271484375,0.0033416748046875,-0.227325439453125
0.855072021484375,0.0828094482421875,-0.2569580078125
0.8802337646484375,0.16259765625,-0.4539337158203125
0.9569091796875,0.154510498046875,-0.4574737548828125
0.9959716796875,0.0624542236328125,-0.2126007080078125
0.9847259521484376,0.0096893310546875,-0.119537353515625
0.9739227294921876,-0.0041961669921875,-0.134185791015625
1.0249481201171875,0.0234222412109375,-0.1630706787109375
1.0330047607421875,0.0933685302734375,-0.1916656494140625
1.022064208984375,0.14447021484375,-0.2288970947265625
0.932098388671875,0.17510986328125,-0.239288330078125
0.7975311279296875,0.1547698974609375,-0.19049072265625
0.867340087890625,0.121368408203125,-0.1887359619140625
1.126068115234375,0.1345672607421875,-0.25714111328125
1.1342620849609375,0.16094970703125,-0.2052154541015625
1.0201568603515625,0.153045654296875,-0.092926025390625
1.313720703125,0.1285552978515625,-0.1942291259765625
1.469451904296875,0.2230224609375,-0.17718505859375
1.294830322265625,0.2767333984375,-0.1930999755859375
1.0928192138671875,0.263397216796875,-0.1202545166015625
1.1860504150390625,0.206146240234375,-0.0588836669921875
1.2647247314453125,0.1350250244140625,0.0730743408203125
1.2055206298828125,0.0679473876953125,0.1041717529296875
1.0713958740234375,0.0414886474609375,0.1036529541015625
0.992431640625,0.04541015625,0.12420654296875
0.92071533203125,0.0695343017578125,0.1478118896484375
0.8616790771484375,0.092926025390625,0.1411895751953125
0.83282470703125,0.1155242919921875,0.0879669189453125
0.7720489501953125,0.12890625,0.022857666015625
0.813232421875,0.13525390625,-0.0155029296875
1.0148162841796875,0.106292724609375,-0.015045166015625
1.006683349609375,0.083770751953125,-0.070220947265625
1.2822265625,-0.0214996337890625,-0.1440582275390625
0.9707489013671876,-0.00390625,-0.112396240234375
0.837554931640625,0.0433349609375,-0.06475830078125
1.1268310546875,0.0883331298828125,-0.284149169921875
1.2958526611328125,0.177032470703125,-0.2566986083984375
1.26434326171875,0.2014617919921875,-0.0959014892578125
1.038909912109375,0.171905517578125,-0.0380401611328125
0.88818359375,0.1085205078125,-0.0655975341796875
1.0087738037109375,0.0623626708984375,-0.0405120849609375
1.1738739013671875,0.0943756103515625,-0.0504913330078125
1.1815032958984375,0.1771087646484375,-0.1432952880859375
1.063385009765625,0.2427520751953125,-0.271331787109375
0.9936065673828124,0.2478790283203125,-0.356781005859375
1.0926666259765625,0.2174072265625,-0.412689208984375
1.09423828125,0.24267578125,-0.36859130859375
1.109619140625,0.207366943359375,-0.2444610595703125
1.3731231689453125,0.2219085693359375,-0.2432708740234375
1.3134918212890625,0.239837646484375,-0.20770263671875
1.1525115966796875,0.19219970703125,-0.1415863037109375
1.2895965576171875,0.1730499267578125,-0.154449462890625
1.4585723876953125,0.2210540771484375,-0.07135009765625
1.508697509765625,0.1615142822265625,0.028289794921875
1.3906402587890625,0.1072235107421875,0.085723876953125
1.353240966796875,0.049713134765625,0.12274169921875
1.3518829345703125,0.0244140625,0.1533966064453125
1.2166595458984375,0.0495147705078125,0.1357421875
1.05023193359375,0.07037353515625,0.054290771484375
0.9185028076171876,0.119049072265625,-0.0215606689453125
0.7497711181640625,0.186187744140625,-0.03173828125
0.568084716796875,0.0283660888671875,-0.006103515625
0.4672088623046875,-0.1110382080078125,0.0269622802734375
0.5315093994140625,-0.2115325927734375,-0.0157318115234375
0.6715240478515625,-0.126373291015625,0.0704345703125
0.91363525390625,-0.0923309326171875,-0.0814361572265625
1.17303466796875,-0.090972900390625,-0.08441162109375
1.4803314208984375,0.024017333984375,-0.0739288330078125
1.7276153564453125,0.1493988037109375,-0.1744842529296875
1.7628021240234375,0.3507232666015625,-0.2589569091796875
1.381988525390625,0.549896240234375,-0.2017974853515625
1.2335052490234375,0.14349365234375,-0.1417694091796875
1.2315216064453125,0.0389862060546875,-0.080902099609375
1.2050628662109375,0.0010833740234375,-0.0479736328125
1.120758056640625,0.0410919189453125,-0.14410400390625
1.0053863525390625,0.13458251953125,-0.314422607421875
0.89654541015625,0.2238006591796875,-0.393890380859375
0.87335205078125,0.2882232666015625,-0.4443817138671875
1.033416748046875,0.380706787109375,-0.571990966796875
1.1559295654296875,0.3887176513671875,-0.3942718505859375
1.3932037353515625,0.226898193359375,-0.1963653564453125
1.4583892822265625,0.0720367431640625,-0.120452880859375
1.288848876953125,0.0284423828125,-0.0305938720703125
1.249603271484375,0.0390625,-0.0330047607421875
1.2724609375,0.082489013671875,-0.0111236572265625
1.3821563720703125,0.1224517822265625,-0.0069122314453125
1.4117584228515625,0.1715240478515625,0.0703277587890625
1.383270263671875,0.203338623046875,0.162109375
1.4147491455078125,0.1910247802734375,0.2286834716796875
1.33453369140625,0.1952362060546875,0.320098876953125
1.18701171875,0.2111663818359375,0.288330078125
1.0445404052734375,0.1926116943359375,0.2757720947265625
0.9372100830078124,0.1976165771484375,0.2728118896484375
0.846435546875,0.20465087890625,0.2493743896484375
0.765533447265625,0.1957855224609375,0.2384490966796875
0.7835235595703125,0.1734466552734375,0.200531005859375
0.840240478515625,0.1592864990234375,0.1638641357421875
0.7735443115234375,0.169921875,-0.0541534423828125
0.8258056640625,0.2274322509765625,-0.267242431640625
1.18426513671875,0.1138153076171875,-0.1413726806640625
1.1918182373046875,-0.0590362548828125,-0.345550537109375
0.94036865234375,-0.20709228515625,-0.2754364013671875
1.0715179443359375,-0.3284454345703125,-0.2562408447265625
1.3341064453125,-0.262481689453125,-0.452362060546875
1.371734619140625,-0.0631256103515625,-0.62469482421875
1.140838623046875,0.0932159423828125,-0.57476806640625
1.1026458740234375,0.1557769775390625,-0.466522216796875
1.1620941162109375,0.1619720458984375,-0.3597564697265625
1.150115966796875,0.1660003662109375,-0.3086090087890625
1.021759033203125,0.12603759765625,-0.2641448974609375
0.91717529296875,0.072113037109375,-0.1965484619140625
0.8471832275390625,0.0491180419921875,-0.153533935546875
0.9613189697265624,0.0167083740234375,-0.1522216796875
1.136138916015625,0.0634002685546875,-0.135894775390625
1.096923828125,0.1025390625,-0.03662109375
1.1018829345703125,0.098785400390625,0.0366363525390625
1.3896026611328125,0.1160888671875,0.0395355224609375
1.49432373046875,0.1922607421875,0.0011444091796875
1.23516845703125,0.2876739501953125,-0.088714599609375
1.118408203125,0.3242950439453125,-0.0310211181640625
1.1820068359375,0.3423309326171875,0.0258941650390625
1.2274017333984375,0.248626708984375,0.0939788818359375
1.1224212646484375,0.142669677734375,0.1039276123046875
1.0220489501953125,0.0755462646484375,0.090057373046875
0.9919891357421876,0.029327392578125,0.1023101806640625
0.9650726318359376,0.024200439453125,0.1087646484375
0.9159088134765624,0.0368499755859375,0.0535888671875
0.81781005859375,0.0446929931640625,-0.0301513671875
0.715240478515625,0.083343505859375,-0.1090545654296875
0.6326446533203125,0.1142425537109375,-0.24005126953125
0.806610107421875,0.0641326904296875,-0.283905029296875
0.900390625,0.0145111083984375,-0.121917724609375
1.2642974853515625,-0.0583953857421875,-0.0005340576171875
1.39617919921875,-0.03265380859375,-0.100006103515625
1.2666778564453125,0.0917816162109375,-0.2839813232421875
1.246917724609375,0.1890869140625,-0.386688232421875
1.165557861328125,0.364410400390625,-0.35308837890625
1.0075836181640625,0.283721923828125,-0.0540313720703125
1.1755523681640625,-0.022918701171875,0.02984619140625
1.174713134765625,-0.0606689453125,0.01190185546875
1.07989501953125,-0.0272674560546875,-0.1275177001953125
0.9300079345703124,0.0871734619140625,-0.233001708984375
0.91033935546875,0.1402130126953125,-0.261077880859375
0.866424560546875,0.1940765380859375,-0.3173370361328125
0.811798095703125,0.1697540283203125,-0.2528839111328125
0.9666290283203124,0.1553955078125,-0.3079986572265625
1.18756103515625,0.1757965087890625,-0.4030914306640625
1.2790069580078125,0.1422271728515625,-0.2443389892578125
1.3680419921875,0.0831146240234375,-0.1737518310546875
1.4710235595703125,0.059844970703125,-0.1692962646484375
1.283935546875,0.100372314453125,-0.056182861328125
1.2559051513671875,0.09954833984375,-0.056732177734375
1.3460693359375,0.11767578125,-0.0528106689453125
1.32232666015625,0.1236419677734375,0.013153076171875
1.15899658203125,0.106536865234375,0.077301025390625
1.0283660888671875,0.0762481689453125,0.0846099853515625
0.97430419921875,0.0443267822265625,0.0568389892578125
0.94879150390625,0.04693603515625,0.1412506103515625
0.860198974609375,0.076690673828125,0.102081298828125
0.7576751708984375,0.086334228515625,0.039520263671875
0.6854248046875,0.1013336181640625,-0.0054931640625
0.6624298095703125,0.111785888671875,-0.0206298828125
0.8060760498046875,0.0945587158203125,-0.0149078369140625
0.891357421875,0.0811767578125,0.0009002685546875
1.2427215576171875,0.0529022216796875,0.01715087890625
1.483551025390625,0.1009674072265625,-0.0085296630859375
1.3896942138671875,0.1766815185546875,-0.157684326171875
1.115631103515625,0.3211517333984375,-0.3717498779296875
1.09710693359375,0.5421142578125,-0.5027313232421875
1.034210205078125,0.3996429443359375,-0.17071533203125
1.307098388671875,-0.066741943359375,-0.0495147705078125
1.1482391357421875,-0.2601165771484375,0.063232421875
0.9340057373046876,-0.198516845703125,-0.0313568115234375
0.87628173828125,-0.04925537109375,-0.1852569580078125
0.848541259765625,0.11871337890625,-0.2867889404296875
0.92608642578125,0.230255126953125,-0.3193511962890625
0.85906982421875,0.2736358642578125,-0.278350830078125
0.87481689453125,0.2244720458984375,-0.25531005859375
1.0371246337890625,0.1868743896484375,-0.31793212890625
1.2532196044921875,0.1178131103515625,-0.3163604736328125
1.3623809814453125,0.02801513671875,-0.2008819580078125
1.4445953369140625,-0.0041046142578125,-0.1362457275390625
1.3193359375,0.0626983642578125,-0.14892578125
1.0189971923828125,0.1233978271484375,-0.1481781005859375
1.158966064453125,0.1592559814453125,-0.1834869384765625
1.38873291015625,0.14312744140625,-0.0821533203125
1.5009918212890625,0.0792236328125,-0.0202484130859375
1.3644561767578125,0.0400848388671875,-0.0308990478515625
1.0599517822265625,0.0391387939453125,-0.034912109375
0.9246368408203124,0.0325469970703125,-0.0396881103515625
0.9103851318359376,0.045745849609375,-0.0698089599609375
0.8445892333984375,0.0398101806640625,-0.103851318359375
0.7495880126953125,0.0251007080078125,-0.1097259521484375
0.6801910400390625,0.0063323974609375,-0.1434173583984375
0.726226806640625,-0.011505126953125,-0.13482666015625
0.897796630859375,-0.033935546875,-0.08251953125
1.005889892578125,-0.03509521484375,-0.0576019287109375
1.2473907470703125,-0.02099609375,-0.078887939453125
1.5163421630859375,0.0304107666015625,-0.0467529296875
1.4439239501953125,0.1263580322265625,-0.256927490234375
1.358612060546875,0.1500244140625,-0.38018798828125
1.2312469482421875,0.1113128662109375,-0.0760498046875
1.10858154296875,0.0220184326171875,0.0865020751953125
0.97869873046875,0.0018157958984375,0.0718841552734375
0.9160614013671876,0.0861968994140625,0.0808868408203125
0.87646484375,0.20513916015625,0.083648681640625
0.8411407470703125,0.301025390625,0.083526611328125
0.8990325927734375,0.3501434326171875,0.0483856201171875
0.9727325439453124,0.304962158203125,0.0383453369140625
0.897003173828125,0.2570648193359375,-0.034515380859375
0.935333251953125,0.2140350341796875,-0.0744781494140625
1.26025390625,0.1820068359375,-0.148101806640625
1.398712158203125,0.2301025390625,-0.385955810546875
1.1510467529296875,0.278228759765625,-0.512908935546875
0.851409912109375,0.1376800537109375,-0.4486846923828125
1.0594482421875,-0.01922607421875,-0.30316162109375
1.2741241455078125,-0.0384368896484375,-0.1512603759765625
1.241729736328125,0.0254669189453125,-0.1536865234375
1.1951141357421875,0.0691070556640625,-0.3519287109375
1.039154052734375,0.0609283447265625,-0.4291229248046875
1.2089691162109375,0.070587158203125,-0.35498046875
1.2569732666015625,0.0185394287109375,-0.286529541015625
1.087158203125,-0.010711669921875,-0.2371673583984375
0.902435302734375,-0.04901123046875,-0.1858673095703125
0.782958984375,-0.0684661865234375,-0.187103271484375
0.71820068359375,-0.03680419921875,-0.1833953857421875
0.6468963623046875,-0.0045928955078125,-0.136383056640625
0.684967041015625,0.0137481689453125,-0.0655517578125
0.7890777587890625,0.0486907958984375,-0.010467529296875
0.9169921875,0.0911712646484375,0.043701171875
1.18353271484375,0.1241912841796875,0.0520172119140625
1.640350341796875,0.18060302734375,0.015228271484375
1.83050537109375,0.2402496337890625,0.03948974609375
1.590179443359375,0.3050689697265625,-0.021331787109375
1.048919677734375,0.3835296630859375,-0.102142333984375
0.8368377685546875,0.228729248046875,0.0183868408203125
1.0391845703125,0.0242919921875,0.1256561279296875
1.0638427734375,-0.0177764892578125,0.1226654052734375
0.8011322021484375,0.0460357666015625,0.130584716796875
0.6193084716796875,0.1643829345703125,0.119110107421875
0.7048797607421875,0.2462615966796875,0.0222625732421875
0.8765411376953125,0.26824951171875,-0.0548553466796875
0.9939727783203124,0.2634735107421875,-0.1035308837890625
1.0139923095703125,0.1994171142578125,-0.1030120849609375
0.9929962158203124,0.1457672119140625,-0.1934814453125
0.9788818359375,0.1697235107421875,-0.3552093505859375
1.1893310546875,0.20147705078125,-0.5230560302734375
1.3842315673828125,0.1869659423828125,-0.4562835693359375
1.4322357177734375,0.1019439697265625,-0.3461761474609375
1.13641357421875,0.0706329345703125,-0.3607330322265625
0.826202392578125,0.149810791015625,-0.2585296630859375
1.0656280517578125,0.1968841552734375,-0.2471160888671875
1.3250274658203125,0.1767120361328125,-0.1205291748046875
1.4290924072265625,0.0671844482421875,-0.0037841796875
1.2744903564453125,-0.00018310546875,-0.002899169921875
1.142730712890625,0.0038604736328125,-0.016387939453125
1.1079559326171875,0.0258941650390625,0.0390777587890625
1.0421600341796875,0.0608062744140625,0.064605712890625
0.978515625,0.073944091796875,0.0173187255859375
0.86102294921875,0.0745697021484375,-0.0108795166015625
0.744110107421875,0.07275390625,-0.03216552734375
0.69952392578125,0.056793212890625,-0.0306396484375
0.837127685546875,0.0331573486328125,-0.03448486328125
0.9426422119140624,-0.022491455078125,-0.0513458251953125
1.1754302978515625,-0.0144500732421875,-0.0478363037109375
1.135162353515625,0.038238525390625,-0.05328369140625
1.242462158203125,0.0961761474609375,-0.139923095703125
1.368011474609375,0.1562957763671875,-0.2267303466796875
1.345916748046875,0.19482421875,-0.1532440185546875
1.1749725341796875,0.182281494140625,-0.0506744384765625
0.9915008544921876,0.1202239990234375,-0.077911376953125
0.9295654296875,0.061431884765625,-0.0506591796875
0.9270172119140624,0.0769195556640625,-0.01409912109375
0.9980316162109376,0.115447998046875,-0.030975341796875
0.9990386962890624,0.1792144775390625,-0.0971221923828125
0.9244842529296876,0.2256622314453125,-0.1603240966796875
0.853790283203125,0.270843505859375,-0.183135986328125
1.127899169921875,0.3453216552734375,-0.3321075439453125
1.3118133544921875,0.5149383544921875,-0.3101348876953125
1.4625701904296875,0.4525299072265625,-0.25775146484375
1.4121856689453125,0.2088470458984375,-0.17138671875
1.161651611328125,0.132965087890625,-0.0865478515625
1.25091552734375,0.1484527587890625,-0.05133056640625
1.3916168212890625,0.18157958984375,-0.0886688232421875
1.4001007080078125,0.1161956787109375,-0.095977783203125
1.1224212646484375,0.074188232421875,0.007354736328125
1.12548828125,0.058807373046875,0.0359649658203125
1.185455322265625,0.0528564453125,0.0751953125
1.12567138671875,0.039642333984375,0.0973663330078125
1.0718994140625,0.0170440673828125,0.0906982421875
0.8144989013671875,0.031341552734375,0.10186767578125
0.6770477294921875,0.051116943359375,0.0588226318359375
0.78277587890625,0.066497802734375,0.010986328125
0.8748931884765625,0.070098876953125,-0.0675201416015625
0.9845733642578124,0.0499267578125,0.035247802734375
1.275726318359375,-0.01409912109375,0.095062255859375
1.31951904296875,0.046112060546875,0.0085296630859375
1.27374267578125,0.1316070556640625,-0.0952301025390625
1.379364013671875,0.1815032958984375,-0.2333831787109375
1.2913818359375,0.22802734375,-0.253570556640625
1.0128631591796875,0.23486328125,-0.1311492919921875
0.92633056640625,0.192413330078125,-0.055328369140625
1.0032806396484375,0.1096954345703125,-0.0616912841796875
1.1132965087890625,0.095428466796875,-0.0502166748046875
1.142486572265625,0.14007568359375,-0.0770263671875
1.0310211181640625,0.1736907958984375,-0.1086883544921875
0.91949462890625,0.20245361328125,-0.119171142578125
1.003631591796875,0.21710205078125,-0.0748138427734375
1.44134521484375,0.2615509033203125,-0.10418701171875
1.2603912353515625,0.3455352783203125,-0.1691131591796875
0.8420257568359375,0.35430908203125,-0.185333251953125
1.0749969482421875,0.32659912109375,-0.2442169189453125
1.443450927734375,0.2432708740234375,-0.116363525390625
1.560943603515625,0.0765228271484375,-0.1054229736328125
1.717681884765625,-0.085357666015625,-0.2382354736328125
1.586090087890625,-0.187896728515625,-0.111602783203125
1.4512786865234375,-0.129669189453125,-0.0520477294921875
1.0671234130859375,-0.1685791015625,-0.08843994140625
0.640533447265625,-0.15753173828125,-0.0512847900390625
0.6104583740234375,-0.0660400390625,0.015533447265625
0.6250762939453125,-0.0597686767578125,0.1168975830078125
0.6690216064453125,-0.0080718994140625,0.28179931640625
0.816986083984375,0.002899169921875,0.30804443359375
0.7843780517578125,0.041748046875,0.32794189453125
0.9869537353515624,0.7303466796875,0.019989013671875
0.993133544921875,0.9459228515625,-0.3583221435546875
1.029510498046875,1.2777862548828125,-0.4292449951171875
0.829132080078125,0.735931396484375,-0.581024169921875
0.7335205078125,0.705047607421875,-0.523101806640625
0.7867889404296875,0.58856201171875,-0.3046112060546875
0.84759521484375,0.69281005859375,-0.2631683349609375
0.9610443115234376,0.5676727294921875,-0.2381439208984375
0.9016876220703124,0.7739410400390625,-0.2875213623046875
0.8504486083984375,0.79156494140625,-0.6871490478515625
0.716644287109375,0.3537750244140625,-0.221588134765625
0.8804779052734375,0.5241851806640625,-0.5062713623046875
0.7664947509765625,0.6100006103515625,-0.6102447509765625
0.7504730224609375,0.388702392578125,-0.5598907470703125
0.6818695068359375,0.4497833251953125,-0.580474853515625
0.67999267578125,0.510650634765625,-0.78759765625
0.5543670654296875,0.444610595703125,-1.0592041015625
0.437255859375,0.2583465576171875,-0.8972320556640625
0.31011962890625,0.1666107177734375,-0.7908172607421875
0.269287109375,0.247772216796875,-0.80694580078125
0.310028076171875,0.2631378173828125,-0.901092529296875
0.344085693359375,0.3927459716796875,-0.9029083251953124
0.4618377685546875,0.2660064697265625,-0.8706512451171875
0.403656005859375,0.2607421875,-0.8720855712890625
0.437896728515625,0.3188934326171875,-0.9260711669921876
0.4156036376953125,0.24566650390625,-0.9002532958984375
0.4199371337890625,0.162811279296875,-0.9080352783203124
0.3430328369140625,0.0626983642578125,-0.890380859375
0.3391876220703125,0.0288543701171875,-0.925079345703125
0.3147430419921875,0.062591552734375,-0.946807861328125
0.279937744140625,0.077545166015625,-0.960235595703125
0.2712860107421875,0.0801544189453125,-0.98162841796875
0.306549072265625,0.062774658203125,-0.9517059326171876
0.2577667236328125,0.09088134765625,-0.9613037109375
0.2456207275390625,0.1382293701171875,-0.9718475341796876
0.2500457763671875,0.172882080078125,-0.9752960205078124
0.225677490234375,0.0722808837890625,-0.975555419921875
0.2327423095703125,0.02294921875,-0.9717254638671876
0.3142547607421875,0.1454315185546875,-0.960968017578125
0.295196533203125,0.0396575927734375,-0.9767303466796876
0.2932586669921875,0.0343780517578125,-0.9606781005859376
0.3020477294921875,0.036346435546875,-0.9449920654296876
0.303802490234375,-0.03570556640625,-0.964813232421875
0.2683868408203125,-0.06378173828125,-0.9447784423828124
0.2795562744140625,0.001556396484375,-0.952239990234375
0.2972564697265625,0.044830322265625,-0.9685821533203124
0.2908172607421875,-0.0054473876953125,-0.957763671875
0.2649383544921875,0.0122222900390625,-0.958038330078125
0.2803192138671875,0.0365142822265625,-0.9738311767578124
0.27557373046875,0.0246429443359375,-0.971221923828125
0.2631988525390625,0.0023345947265625,-0.9574432373046876
0.2631988525390625,0.0458221435546875,-0.972686767578125
0.2728729248046875,0.0538330078125,-0.9741363525390624
0.2598419189453125,0.0261993408203125,-0.970184326171875
0.28515625,0.0867156982421875,-0.979217529296875
0.2503814697265625,-0.004241943359375,-0.9619903564453124
0.2407684326171875,-0.014984130859375,-0.9559173583984376
