AccelerationX,AccelerationY,AccelerationZ
0.141754150390625,-0.2173614501953125,-0.731170654296875
0.1717071533203125,-0.18646240234375,-0.81182861328125
0.1140594482421875,-0.1348724365234375,-0.8370819091796875
0.0930328369140625,-0.0529937744140625,-0.8485107421875
0.177398681640625,-0.1341400146484375,-1.1331634521484375
0.167938232421875,-0.113037109375,-1.0469512939453125
0.2206268310546875,-0.1788787841796875,-1.2002410888671875
0.2926177978515625,-0.171539306640625,-1.02490234375
0.33123779296875,-0.146484375,-0.9598388671875
0.391754150390625,-0.0967864990234375,-0.9459991455078124
0.302215576171875,0.0055999755859375,-0.9670867919921876
0.4055633544921875,-0.14715576171875,-1.068115234375
0.400726318359375,-0.0622711181640625,-1.019500732421875
0.447418212890625,-0.0251922607421875,-1.047210693359375
0.5911712646484375,-0.0422210693359375,-0.8071441650390625
0.4803619384765625,-0.04962158203125,-0.882354736328125
0.1894073486328125,-0.079010009765625,-0.805938720703125
0.304412841796875,-0.0079193115234375,-0.9241790771484376
0.2408599853515625,0.0256805419921875,-0.7498321533203125
0.1553192138671875,0.097930908203125,-0.818695068359375
0.199859619140625,0.049774169921875,-0.9445648193359376
0.152618408203125,0.067535400390625,-1.0229949951171875
0.1833648681640625,0.046905517578125,-1.0391845703125
0.1295623779296875,0.058380126953125,-1.067047119140625
0.0598907470703125,0.0963134765625,-1.069854736328125
0.0789947509765625,0.133514404296875,-1.0082550048828125
0.0264892578125,0.1887969970703125,-0.9769134521484376
0.032745361328125,0.191802978515625,-1.052734375
-0.0153961181640625,0.1790618896484375,-1.0625
-0.10272216796875,0.150665283203125,-1.12054443359375
-0.097564697265625,0.0968170166015625,-1.0914764404296875
-0.0964813232421875,0.090850830078125,-1.0992584228515625
-0.1178741455078125,0.079559326171875,-1.0915985107421875
-0.1340789794921875,0.07122802734375,-1.103759765625
-0.1238555908203125,0.258270263671875,-1.260009765625
-0.08697509765625,0.2539215087890625,-1.2020416259765625
-0.0361785888671875,0.184234619140625,-1.1094970703125
0.0175933837890625,0.1518096923828125,-1.0200042724609375
0.064788818359375,0.10723876953125,-0.9203643798828124
0.1001434326171875,0.26239013671875,-1.0048675537109375
0.142578125,0.4027862548828125,-1.11859130859375
0.164642333984375,0.3629608154296875,-1.148223876953125
0.1530303955078125,0.33465576171875,-1.0993804931640625
0.1505126953125,0.3669586181640625,-1.0105438232421875
0.144439697265625,0.3853302001953125,-0.9652862548828124
0.13134765625,0.4365386962890625,-0.9858856201171876
0.1198883056640625,0.4870147705078125,-0.966796875
0.099151611328125,0.4149627685546875,-0.8726959228515625
0.0441131591796875,0.374481201171875,-0.8885345458984375
0.0394287109375,0.3188629150390625,-0.8502960205078125
0.0099639892578125,0.3079681396484375,-0.81829833984375
-0.050079345703125,0.2748870849609375,-0.8009185791015625
-0.098297119140625,0.2706451416015625,-0.854095458984375
-0.0546112060546875,0.27520751953125,-0.862823486328125
-0.042877197265625,0.242218017578125,-0.849395751953125
-0.0739593505859375,0.3408050537109375,-1.0357666015625
-0.107025146484375,0.598175048828125,-1.310211181640625
-0.0398101806640625,0.439239501953125,-1.1070404052734375
-0.04656982421875,0.21099853515625,-1.0276641845703125
-0.0557861328125,0.14385986328125,-0.991058349609375
-0.0119781494140625,0.0641632080078125,-0.949188232421875
-0.1155242919921875,0.2774505615234375,-1.187652587890625
-0.03948974609375,0.337921142578125,-1.047454833984375
-0.0676727294921875,0.3071136474609375,-1.0522003173828125
-0.116790771484375,0.243682861328125,-0.981109619140625
-0.1031036376953125,0.1832427978515625,-1.032958984375
-0.0758209228515625,0.20751953125,-0.9395904541015624
-0.105499267578125,0.26507568359375,-0.888336181640625
-0.179443359375,0.256866455078125,-0.894927978515625
-0.159820556640625,0.2034149169921875,-0.89349365234375
-0.1249847412109375,0.1644134521484375,-0.8832550048828125
-0.10858154296875,0.1358642578125,-0.8764495849609375
-0.1423187255859375,0.1634521484375,-0.8882598876953125
-0.1627349853515625,0.2086029052734375,-0.9241485595703124
-0.1525115966796875,0.280029296875,-1.0128936767578125
-0.128448486328125,0.513275146484375,-1.2460479736328125
-0.07830810546875,0.3917694091796875,-1.0515594482421875
-0.0678863525390625,0.321197509765625,-0.957000732421875
-0.02606201171875,0.2937164306640625,-0.831146240234375
0.0348052978515625,0.232269287109375,-0.7021942138671875
-0.0069732666015625,0.38604736328125,-0.8564300537109375
-0.0669097900390625,0.596435546875,-0.9830322265625
-0.0467529296875,0.621368408203125,-0.9432373046875
0.0003662109375,0.483978271484375,-0.8783416748046875
0.008392333984375,0.3394927978515625,-0.831787109375
-0.0430450439453125,0.3617706298828125,-0.92034912109375
-0.068817138671875,0.40582275390625,-0.9744873046875
-0.058868408203125,0.4076995849609375,-0.9832763671875
-0.060394287109375,0.414764404296875,-0.97674560546875
-0.037353515625,0.418243408203125,-0.964080810546875
0.0074920654296875,0.4049224853515625,-0.976104736328125
0.0302734375,0.3780670166015625,-0.9870147705078124
0.0221405029296875,0.339569091796875,-0.978546142578125
0.007659912109375,0.3160400390625,-0.9757232666015624
0.00421142578125,0.31146240234375,-0.966949462890625
0.014556884765625,0.32281494140625,-0.9739837646484376
0.0458984375,0.32366943359375,-0.9897308349609376
0.0451507568359375,0.382476806640625,-1.0722503662109375
0.0102996826171875,0.537841796875,-1.2438507080078125
0.0346527099609375,0.3444061279296875,-1.0654754638671875
0.0358428955078125,0.2530975341796875,-0.994110107421875
-0.0113983154296875,0.30743408203125,-0.98968505859375
-0.004364013671875,0.28680419921875,-0.898773193359375
-0.046844482421875,0.316162109375,-0.8814239501953125
-0.092193603515625,0.440765380859375,-0.9549102783203124
-0.09893798828125,0.5569305419921875,-1.0114593505859375
-0.0734405517578125,0.51275634765625,-0.92022705078125
-0.0816802978515625,0.4152679443359375,-0.847930908203125
-0.106353759765625,0.3713836669921875,-0.8258209228515625
-0.1271820068359375,0.3823699951171875,-0.812835693359375
-0.1199798583984375,0.4068145751953125,-0.7876739501953125
-0.094268798828125,0.4113922119140625,-0.77886962890625
-0.0860748291015625,0.3954925537109375,-0.81866455078125
-0.091766357421875,0.3822784423828125,-0.870361328125
-0.08544921875,0.3603668212890625,-0.9091644287109376
-0.0597686767578125,0.33685302734375,-0.94219970703125
-0.050048828125,0.324737548828125,-1.011993408203125
-0.0179443359375,0.297393798828125,-1.035858154296875
0.01416015625,0.2828369140625,-1.0675201416015625
0.023712158203125,0.3072967529296875,-1.0991363525390625
0.0115203857421875,0.2904052734375,-1.1358184814453125
-0.0138397216796875,0.42181396484375,-1.2904815673828125
0.0526580810546875,0.38720703125,-1.2019805908203125
0.1004638671875,0.3043975830078125,-1.124755859375
0.0825958251953125,0.194427490234375,-0.97125244140625
0.08880615234375,0.2724151611328125,-1.0304412841796875
0.0742340087890625,0.4384765625,-1.141143798828125
0.0312652587890625,0.5113677978515625,-1.2285308837890625
-0.0023040771484375,0.5760955810546875,-1.2350006103515625
0.0065765380859375,0.6042633056640625,-1.0649871826171875
0.0106964111328125,0.5535736083984375,-0.954254150390625
-0.024627685546875,0.5199432373046875,-0.9347686767578124
-0.0302581787109375,0.50115966796875,-0.9018096923828124
-0.0143890380859375,0.4683837890625,-0.8100433349609375
-0.0245361328125,0.4353485107421875,-0.735198974609375
-0.04376220703125,0.3989105224609375,-0.69268798828125
-0.0685882568359375,0.372222900390625,-0.6839141845703125
-0.090972900390625,0.35186767578125,-0.675079345703125
-0.113311767578125,0.3340911865234375,-0.669281005859375
-0.15533447265625,0.36279296875,-0.7599029541015625
-0.1786651611328125,0.4006805419921875,-0.84698486328125
-0.1277313232421875,0.46337890625,-0.9934234619140624
-0.0975494384765625,0.6123199462890625,-1.28033447265625
-0.0600738525390625,0.6081390380859375,-1.3289642333984375
0.033172607421875,0.4633636474609375,-1.2404937744140625
0.067779541015625,0.331268310546875,-1.1079254150390625
0.056427001953125,0.19189453125,-1.0029296875
0.0506744384765625,0.232757568359375,-1.087890625
0.0322418212890625,0.337310791015625,-1.061859130859375
0.054962158203125,0.358795166015625,-1.096099853515625
0.0919342041015625,0.3362579345703125,-1.0809326171875
0.0960693359375,0.2390899658203125,-0.988311767578125
0.03485107421875,0.197509765625,-0.936279296875
0.0015411376953125,0.23065185546875,-0.954071044921875
0.0232391357421875,0.3050689697265625,-0.955413818359375
0.0611114501953125,0.3528289794921875,-0.94415283203125
0.0616455078125,0.3548126220703125,-0.9230194091796876
0.0477447509765625,0.35479736328125,-0.9344482421875
0.044647216796875,0.384979248046875,-0.938629150390625
0.045196533203125,0.4559173583984375,-0.9869232177734376
0.054779052734375,0.507598876953125,-1.0079498291015625
0.08477783203125,0.51824951171875,-0.9892730712890624
0.095306396484375,0.48297119140625,-0.9443359375
0.111968994140625,0.4543609619140625,-0.9421844482421876
0.1519775390625,0.45184326171875,-0.9303436279296876
0.1986846923828125,0.4411163330078125,-0.8951873779296875
0.22943115234375,0.5091552734375,-0.8665771484375
0.26739501953125,0.563018798828125,-0.8423004150390625
0.2548370361328125,0.5357818603515625,-0.80657958984375
0.2222900390625,0.4976348876953125,-0.8291473388671875
0.1959686279296875,0.4858551025390625,-0.8384246826171875
0.1832733154296875,0.471405029296875,-0.8762359619140625
0.1365814208984375,0.4352569580078125,-0.916473388671875
0.0936279296875,0.4043121337890625,-0.9587249755859376
0.063446044921875,0.38330078125,-0.972076416015625
0.048126220703125,0.38653564453125,-0.987060546875
0.035247802734375,0.3713226318359375,-0.9976654052734376
0.037750244140625,0.3684844970703125,-1.0052642822265625
0.037139892578125,0.3931121826171875,-0.99078369140625
0.057586669921875,0.3813934326171875,-0.93890380859375
0.04833984375,0.3770294189453125,-0.9177093505859376
0.031524658203125,0.417266845703125,-0.9588470458984376
0.0463409423828125,0.4391326904296875,-0.9793701171875
0.06195068359375,0.4717254638671875,-0.98980712890625
0.0531005859375,0.4353179931640625,-0.94720458984375
0.0247344970703125,0.4009857177734375,-0.932098388671875
0.01580810546875,0.386077880859375,-0.916778564453125
0.0145111083984375,0.39263916015625,-0.89215087890625
-0.0054931640625,0.3769073486328125,-0.8788909912109375
-0.000732421875,0.3623809814453125,-0.8395233154296875
-0.0153656005859375,0.4059906005859375,-0.8824920654296875
-0.0293121337890625,0.48284912109375,-0.9599609375
-0.02044677734375,0.4640655517578125,-0.981964111328125
-0.0032958984375,0.3965301513671875,-0.9357452392578124
-0.0303497314453125,0.33197021484375,-0.8953704833984375
-0.04718017578125,0.31451416015625,-0.88128662109375
-0.039459228515625,0.3733673095703125,-0.88140869140625
-0.0404052734375,0.4092864990234375,-0.9204254150390624
-0.046051025390625,0.3747100830078125,-0.94940185546875
-0.0573577880859375,0.2974090576171875,-0.9475860595703124
-0.065338134765625,0.25592041015625,-0.959136962890625
-0.044708251953125,0.2518463134765625,-0.9628753662109376
-0.01312255859375,0.25347900390625,-0.9304351806640624
-0.0024871826171875,0.2773590087890625,-0.926483154296875
0.0059967041015625,0.3040771484375,-0.92913818359375
0.016265869140625,0.468170166015625,-1.0865478515625
0.0255126953125,0.5407562255859375,-1.14453125
0.0267791748046875,0.3699493408203125,-1.0540924072265625
0.00830078125,0.366729736328125,-1.0326080322265625
0.045196533203125,0.3828277587890625,-0.9661102294921876
0.116790771484375,0.3258056640625,-0.8964080810546875
0.1290435791015625,0.43597412109375,-0.9826202392578124
0.1217193603515625,0.5306396484375,-1.064788818359375
0.1439208984375,0.509857177734375,-1.0647735595703125
0.12677001953125,0.4299774169921875,-1.0284881591796875
0.066009521484375,0.3787689208984375,-0.9820556640625
0.0222015380859375,0.3950042724609375,-0.934906005859375
0.01092529296875,0.4204559326171875,-0.8643951416015625
-0.022308349609375,0.45819091796875,-0.81884765625
-0.0545654296875,0.4363250732421875,-0.7505950927734375
-0.086395263671875,0.3975677490234375,-0.722015380859375
-0.09332275390625,0.365142822265625,-0.703857421875
-0.073455810546875,0.3237762451171875,-0.7169952392578125
-0.0717010498046875,0.316253662109375,-0.7826690673828125
-0.0503387451171875,0.3193359375,-0.8214263916015625
-0.022186279296875,0.3788909912109375,-0.9636077880859376
0.02783203125,0.397125244140625,-1.039215087890625
0.046478271484375,0.40960693359375,-1.0949859619140625
0.0652618408203125,0.4847259521484375,-1.20513916015625
0.097381591796875,0.6754913330078125,-1.420989990234375
0.208038330078125,0.566680908203125,-1.2811279296875
0.278778076171875,0.321075439453125,-1.050811767578125
0.233612060546875,0.075531005859375,-0.8955078125
0.154022216796875,0.1107177734375,-1.0072174072265625
0.1031341552734375,0.3397216796875,-1.0664825439453125
0.1077423095703125,0.42578125,-1.0152587890625
0.0704345703125,0.3348846435546875,-0.893402099609375
0.0177459716796875,0.2695159912109375,-0.8752288818359375
-0.01995849609375,0.2857513427734375,-0.8863372802734375
-0.0325469970703125,0.36895751953125,-0.8968963623046875
-0.0350341796875,0.4057769775390625,-0.8837432861328125
-0.0490570068359375,0.3602142333984375,-0.870941162109375
-0.0572662353515625,0.3494873046875,-0.8961639404296875
-0.040802001953125,0.32537841796875,-0.8887939453125
-0.03790283203125,0.3213043212890625,-0.8991241455078125
-0.0595245361328125,0.3283843994140625,-0.899322509765625
-0.081451416015625,0.3206024169921875,-0.9177093505859376
-0.082763671875,0.3067779541015625,-0.919708251953125
-0.076416015625,0.29925537109375,-0.9306488037109376
-0.0671844482421875,0.295623779296875,-0.945343017578125
-0.048919677734375,0.31146240234375,-0.9659423828125
-0.023345947265625,0.3269805908203125,-0.9902801513671876
-0.015655517578125,0.4611358642578125,-1.12994384765625
-0.002777099609375,0.378692626953125,-1.05047607421875
0.0095672607421875,0.41668701171875,-1.0843353271484375
0.01983642578125,0.3791961669921875,-1.0410003662109375
0.0379486083984375,0.200042724609375,-0.915130615234375
0.009124755859375,0.2907867431640625,-1.0352325439453125
0.002532958984375,0.50775146484375,-1.197265625
0.065155029296875,0.467681884765625,-1.1285400390625
0.08856201171875,0.3733978271484375,-1.0250701904296875
0.0302734375,0.37969970703125,-0.996856689453125
0.00091552734375,0.388031005859375,-0.957122802734375
-0.0018463134765625,0.4135284423828125,-0.8983612060546875
-0.01788330078125,0.459259033203125,-0.8302764892578125
-0.036773681640625,0.445953369140625,-0.7473907470703125
-0.09356689453125,0.430419921875,-0.72576904296875
-0.1432342529296875,0.4184722900390625,-0.6829833984375
-0.12841796875,0.3974456787109375,-0.65570068359375
-0.138519287109375,0.353607177734375,-0.6733856201171875
-0.1674957275390625,0.3376617431640625,-0.7827606201171875
-0.15283203125,0.3806915283203125,-0.9093780517578124
-0.084930419921875,0.449859619140625,-0.9889984130859376
-0.0685577392578125,0.5270233154296875,-1.1294403076171875
-0.0262603759765625,0.68060302734375,-1.3168487548828125
0.12579345703125,0.7231597900390625,-1.337066650390625
0.26513671875,0.5412139892578125,-1.2025299072265625
0.2486419677734375,0.4598236083984375,-1.222503662109375
0.1959381103515625,0.21820068359375,-1.1031646728515625
0.1428375244140625,0.0689239501953125,-0.959686279296875
0.1304473876953125,0.2077484130859375,-0.8973388671875
0.0851593017578125,0.491363525390625,-0.96954345703125
0.0831451416015625,0.47784423828125,-0.9363250732421876
0.0557403564453125,0.2791900634765625,-0.8401031494140625
0.0176239013671875,0.2047882080078125,-0.87701416015625
0.0040740966796875,0.2579498291015625,-0.931060791015625
0.0065765380859375,0.2900390625,-0.9130859375
-0.0250091552734375,0.3150482177734375,-0.917755126953125
-0.0737152099609375,0.3172454833984375,-0.9354248046875
-0.1076507568359375,0.296417236328125,-0.925384521484375
-0.1163330078125,0.28277587890625,-0.9208221435546876
-0.1200408935546875,0.2259063720703125,-0.974273681640625
-0.1667938232421875,0.2124481201171875,-1.000732421875
-0.161712646484375,0.273101806640625,-1.0204010009765625
-0.1710968017578125,0.448028564453125,-1.1895751953125
-0.1597747802734375,0.5354766845703125,-1.239044189453125
-0.1118621826171875,0.4473419189453125,-1.1449737548828125
-0.0931243896484375,0.484710693359375,-1.1896209716796875
-0.035614013671875,0.2948150634765625,-1.0182952880859375
0.01324462890625,0.2072601318359375,-0.876617431640625
0.002777099609375,0.448089599609375,-0.9839630126953124
0.0635986328125,0.618927001953125,-1.01531982421875
0.07159423828125,0.602142333984375,-0.8953704833984375
0.1571044921875,0.385406494140625,-0.835296630859375
0.1749420166015625,0.3607025146484375,-0.761871337890625
0.1232452392578125,0.4302978515625,-0.7861328125
0.11737060546875,0.445770263671875,-0.745758056640625
0.107940673828125,0.45916748046875,-0.7551116943359375
0.0834808349609375,0.438934326171875,-0.881561279296875
0.16107177734375,0.3741302490234375,-0.9081573486328124
0.1928558349609375,0.284881591796875,-0.9824981689453124
0.2617340087890625,0.218841552734375,-0.9965057373046876
0.2711181640625,0.22216796875,-1.0063629150390625
0.325836181640625,0.262786865234375,-1.0057220458984375
0.3848419189453125,0.32476806640625,-0.9713287353515624
0.404083251953125,0.382354736328125,-1.0048675537109375
0.3789215087890625,0.488433837890625,-1.1347503662109375
0.339813232421875,0.596160888671875,-1.1588592529296875
0.383270263671875,0.4793548583984375,-0.9351348876953124
0.3712921142578125,0.3954010009765625,-0.804962158203125
0.3274993896484375,0.4063873291015625,-0.7924041748046875
0.2841339111328125,0.5188140869140625,-0.923065185546875
0.2454681396484375,0.633392333984375,-0.9891815185546876
0.2354278564453125,0.6085357666015625,-0.807891845703125
0.2383270263671875,0.518218994140625,-0.676361083984375
0.2129669189453125,0.450469970703125,-0.676788330078125
0.177825927734375,0.4777984619140625,-0.7628631591796875
0.201019287109375,0.5228424072265625,-0.8359832763671875
0.2801666259765625,0.5476837158203125,-0.8575286865234375
0.362579345703125,0.56396484375,-0.8817291259765625
0.4425811767578125,0.54815673828125,-0.9132843017578124
0.494140625,0.5104522705078125,-0.9221343994140624
0.50836181640625,0.4744873046875,-0.91845703125
0.466064453125,0.4275665283203125,-0.900421142578125
0.3936614990234375,0.4098968505859375,-0.899627685546875
0.323577880859375,0.361572265625,-0.9459381103515624
0.24993896484375,0.31390380859375,-0.97430419921875
0.192840576171875,0.28662109375,-1.0107269287109375
0.1657257080078125,0.2655487060546875,-1.0755767822265625
0.163055419921875,0.2939910888671875,-1.2035980224609375
0.160797119140625,0.2418060302734375,-1.158416748046875
0.15277099609375,0.228546142578125,-1.098358154296875
0.1497039794921875,0.39013671875,-1.132293701171875
0.1990509033203125,0.4380950927734375,-1.0528106689453125
0.2151336669921875,0.4049072265625,-0.9737396240234376
0.2061920166015625,0.4938812255859375,-1.043304443359375
0.2392120361328125,0.5960540771484375,-1.071868896484375
0.276611328125,0.621490478515625,-1.017425537109375
0.2913055419921875,0.5520477294921875,-0.9222259521484376
0.2415313720703125,0.512359619140625,-0.888641357421875
0.19122314453125,0.5305938720703125,-0.9007568359375
0.181488037109375,0.51141357421875,-0.84820556640625
0.180511474609375,0.4777374267578125,-0.785858154296875
0.154144287109375,0.43768310546875,-0.741241455078125
0.1061859130859375,0.40728759765625,-0.7122344970703125
0.07421875,0.4133453369140625,-0.7242889404296875
0.0613861083984375,0.4003143310546875,-0.7498016357421875
0.0718841552734375,0.3932342529296875,-0.781982421875
0.059967041015625,0.431732177734375,-0.8713836669921875
0.0776519775390625,0.4673919677734375,-0.96343994140625
0.1414947509765625,0.618865966796875,-1.18157958984375
0.2128143310546875,0.7087860107421875,-1.24163818359375
0.2607574462890625,0.49566650390625,-1.0508880615234375
0.2237091064453125,0.2724456787109375,-0.9170684814453124
0.1728515625,0.1331329345703125,-0.87408447265625
0.14373779296875,0.238372802734375,-0.98809814453125
0.11962890625,0.4636688232421875,-1.1151275634765625
0.180419921875,0.456451416015625,-1.0229949951171875
0.211456298828125,0.3296966552734375,-0.8666534423828125
0.1221923828125,0.2921295166015625,-0.859100341796875
0.07537841796875,0.33209228515625,-0.8633880615234375
0.06463623046875,0.3900299072265625,-0.8494415283203125
0.0712432861328125,0.3994140625,-0.876983642578125
0.09375,0.3684539794921875,-0.9033355712890624
0.10565185546875,0.35345458984375,-0.906280517578125
0.1115570068359375,0.350677490234375,-0.8946380615234375
0.1333160400390625,0.34332275390625,-0.8621673583984375
0.1440277099609375,0.3629913330078125,-0.8696746826171875
0.1744842529296875,0.3974456787109375,-0.8718414306640625
0.2118072509765625,0.4022216796875,-0.903167724609375
0.2306365966796875,0.419586181640625,-0.998077392578125
0.2052459716796875,0.59893798828125,-1.1656646728515625
0.260955810546875,0.5021820068359375,-1.019256591796875
0.243896484375,0.405548095703125,-1.025177001953125
0.1014556884765625,0.36309814453125,-1.0659027099609375
0.059539794921875,0.31256103515625,-0.905792236328125
0.18475341796875,0.46014404296875,-0.8539581298828125
0.1939239501953125,0.5934295654296875,-0.9740142822265624
0.26507568359375,0.4147186279296875,-1.09991455078125
0.226806640625,0.400604248046875,-1.0023040771484375
0.174163818359375,0.3949127197265625,-0.9385986328125
0.17449951171875,0.440704345703125,-0.8819732666015625
0.1852569580078125,0.4683837890625,-0.85595703125
0.171905517578125,0.4608306884765625,-0.801971435546875
0.1333160400390625,0.4462432861328125,-0.7533416748046875
0.1062774658203125,0.42559814453125,-0.727813720703125
0.0972900390625,0.37335205078125,-0.731781005859375
0.072998046875,0.347930908203125,-0.7766876220703125
0.074981689453125,0.3321685791015625,-0.8336029052734375
0.07781982421875,0.355560302734375,-0.864715576171875
0.0587921142578125,0.3927154541015625,-0.926361083984375
0.054656982421875,0.4198760986328125,-1.017822265625
0.1312103271484375,0.47186279296875,-1.072479248046875
0.243072509765625,0.7279205322265625,-1.387969970703125
0.326202392578125,0.6871185302734375,-1.2317047119140625
0.34405517578125,0.419952392578125,-0.971832275390625
0.2530517578125,0.2452850341796875,-0.890045166015625
0.21783447265625,0.128509521484375,-0.79510498046875
0.1454010009765625,0.247039794921875,-0.8257904052734375
0.06768798828125,0.3692779541015625,-0.9422454833984376
0.0678863525390625,0.3768768310546875,-0.9871673583984376
0.0984954833984375,0.3134765625,-0.966033935546875
0.103729248046875,0.2658538818359375,-0.929656982421875
0.06488037109375,0.3535003662109375,-0.91748046875
0.052581787109375,0.42852783203125,-0.8682098388671875
0.0587615966796875,0.4899749755859375,-0.8560943603515625
0.0857391357421875,0.4902496337890625,-0.847686767578125
0.121307373046875,0.435028076171875,-0.837310791015625
0.13299560546875,0.3919219970703125,-0.869415283203125
0.147735595703125,0.3629913330078125,-0.891937255859375
0.160003662109375,0.372406005859375,-0.8318939208984375
0.1914215087890625,0.3623046875,-0.8199615478515625
0.1769866943359375,0.3693389892578125,-0.8295135498046875
0.137725830078125,0.375701904296875,-0.932830810546875
0.1305084228515625,0.402496337890625,-1.0520477294921875
0.1588897705078125,0.5171356201171875,-1.32171630859375
0.1437530517578125,0.4612274169921875,-1.0682220458984375
0.1077117919921875,0.3330078125,-0.994598388671875
0.0987701416015625,0.2730560302734375,-0.95001220703125
0.166778564453125,0.3230133056640625,-0.9638824462890624
0.302398681640625,0.3964080810546875,-1.0086669921875
0.280853271484375,0.4923858642578125,-0.9945831298828124
0.220855712890625,0.490753173828125,-0.9280548095703124
0.184906005859375,0.49127197265625,-0.956390380859375
0.267669677734375,0.39483642578125,-0.8786773681640625
0.29644775390625,0.358001708984375,-0.8560333251953125
0.2367401123046875,0.381256103515625,-0.820556640625
0.148040771484375,0.3620147705078125,-0.8429107666015625
0.0668182373046875,0.33868408203125,-0.898651123046875
0.0120849609375,0.3245391845703125,-0.9824981689453124
-0.0046844482421875,0.2789764404296875,-1.0068359375
-0.0318603515625,0.1981048583984375,-1.0257110595703125
-0.0426177978515625,0.1934967041015625,-1.0259857177734375
-0.0111846923828125,0.224945068359375,-0.9652557373046876
0.016357421875,0.294036865234375,-0.92193603515625
0.0445709228515625,0.3470001220703125,-0.882568359375
0.068695068359375,0.3820343017578125,-0.8685455322265625
0.112518310546875,0.4259490966796875,-0.9267425537109376
0.1496429443359375,0.576873779296875,-1.04266357421875
0.171630859375,0.51129150390625,-0.896820068359375
0.165679931640625,0.3906402587890625,-0.892852783203125
0.1178131103515625,0.3445892333984375,-0.9493560791015624
0.124786376953125,0.245086669921875,-0.9311981201171876
0.1531524658203125,0.2003173828125,-0.9639129638671876
0.158355712890625,0.2978057861328125,-1.1089324951171875
0.1378021240234375,0.3399810791015625,-1.189239501953125
0.1444854736328125,0.2147369384765625,-1.1058349609375
0.118499755859375,0.1481170654296875,-1.00469970703125
0.0748748779296875,0.1989593505859375,-0.93035888671875
0.083984375,0.27020263671875,-0.9221038818359376
0.13580322265625,0.315460205078125,-0.90185546875
0.1749420166015625,0.348541259765625,-0.8999176025390625
0.19207763671875,0.3467559814453125,-0.9005889892578125
0.18548583984375,0.348297119140625,-0.92626953125
0.1735382080078125,0.372833251953125,-0.9450531005859376
0.1889190673828125,0.4004058837890625,-0.9361572265625
0.185028076171875,0.4117279052734375,-0.917816162109375
0.20697021484375,0.45843505859375,-0.9527435302734376
0.2355194091796875,0.4971160888671875,-0.9823760986328124
0.22735595703125,0.413604736328125,-0.9288787841796876
0.22705078125,0.345428466796875,-0.84503173828125
0.2760467529296875,0.4584808349609375,-0.8319549560546875
0.2951202392578125,0.559722900390625,-0.7892303466796875
0.3276214599609375,0.5702056884765625,-0.7737274169921875
0.3428497314453125,0.4757080078125,-0.7922210693359375
0.3061370849609375,0.407257080078125,-0.87518310546875
0.322021484375,0.3640899658203125,-0.9309234619140624
0.3692169189453125,0.37481689453125,-0.9380035400390624
0.391387939453125,0.4183807373046875,-0.9454803466796876
0.3485260009765625,0.45654296875,-0.9552001953125
0.3152313232421875,0.4328765869140625,-0.9362030029296876
0.281463623046875,0.432037353515625,-0.9234771728515624
0.25439453125,0.4552459716796875,-0.9122467041015624
0.2530670166015625,0.474639892578125,-0.89361572265625
0.2250823974609375,0.4825286865234375,-0.8936004638671875
0.183563232421875,0.452392578125,-0.9063720703125
0.20477294921875,0.3983612060546875,-0.89794921875
0.16168212890625,0.449920654296875,-0.9256134033203124
0.149139404296875,0.5191650390625,-1.0152740478515625
0.1408233642578125,0.5041351318359375,-1.0157470703125
0.146087646484375,0.4307098388671875,-0.9672698974609376
0.104217529296875,0.4271087646484375,-0.9654388427734376
0.0887908935546875,0.39605712890625,-0.9042510986328124
0.06292724609375,0.3513946533203125,-0.8453216552734375
0.032470703125,0.3622283935546875,-0.84942626953125
0.0139923095703125,0.45654296875,-0.892364501953125
0.0209197998046875,0.543060302734375,-0.9003143310546875
0.033935546875,0.4884033203125,-0.84307861328125
0.0334625244140625,0.3733978271484375,-0.816162109375
0.012969970703125,0.3433685302734375,-0.824859619140625
0.020965576171875,0.387237548828125,-0.858123779296875
0.0365753173828125,0.422393798828125,-0.888031005859375
0.0452880859375,0.404296875,-0.948150634765625
0.0423126220703125,0.36956787109375,-1.009124755859375
0.068389892578125,0.335113525390625,-1.0156707763671875
0.09600830078125,0.3172760009765625,-0.9993438720703124
0.0883941650390625,0.329315185546875,-0.9771575927734376
0.08111572265625,0.347442626953125,-0.9345550537109376
0.0754547119140625,0.346282958984375,-0.88763427734375
0.0683746337890625,0.3527374267578125,-0.8755645751953125
0.0553131103515625,0.367919921875,-0.9378662109375
0.06585693359375,0.43878173828125,-1.061614990234375
0.0995941162109375,0.410400390625,-1.1378326416015625
0.127593994140625,0.3456878662109375,-1.084228515625
0.128997802734375,0.386474609375,-1.0567626953125
0.136962890625,0.3387603759765625,-0.9537200927734376
0.127227783203125,0.242034912109375,-0.8418426513671875
0.1027374267578125,0.371795654296875,-0.9388427734375
0.1214447021484375,0.521728515625,-1.0464324951171875
0.151947021484375,0.489105224609375,-1.0669708251953125
0.127288818359375,0.422943115234375,-1.01934814453125
0.1114654541015625,0.3667144775390625,-0.92767333984375
0.130889892578125,0.379241943359375,-0.8731689453125
0.1326904296875,0.4032440185546875,-0.841156005859375
0.121337890625,0.4123992919921875,-0.8361053466796875
0.1231231689453125,0.4283294677734375,-0.8369140625
0.118804931640625,0.3995513916015625,-0.79974365234375
0.10693359375,0.3465728759765625,-0.7711944580078125
0.110626220703125,0.3311309814453125,-0.7805328369140625
0.099884033203125,0.3486175537109375,-0.8003997802734375
0.0553131103515625,0.367950439453125,-0.867950439453125
0.0209808349609375,0.3830718994140625,-0.929473876953125
0.0235595703125,0.406890869140625,-0.9735107421875
0.0483245849609375,0.5582427978515625,-1.127410888671875
0.12176513671875,0.6265106201171875,-1.1773223876953125
0.1598052978515625,0.4746856689453125,-1.1157379150390625
0.136749267578125,0.32501220703125,-1.032745361328125
0.10369873046875,0.23919677734375,-0.9684906005859376
0.072021484375,0.256103515625,-0.896026611328125
0.0445098876953125,0.380096435546875,-0.8864593505859375
0.0699462890625,0.511016845703125,-0.93511962890625
0.1007080078125,0.5993194580078125,-0.9961700439453124
0.0765838623046875,0.5052337646484375,-0.89935302734375
-0.016845703125,0.280120849609375,-0.836944580078125
-0.0422821044921875,0.333038330078125,-0.89874267578125
0.07000732421875,0.4541168212890625,-0.78643798828125
0.06683349609375,0.519775390625,-0.759552001953125
0.0794677734375,0.431915283203125,-0.739471435546875
0.1023101806640625,0.418304443359375,-0.822509765625
0.1103363037109375,0.457275390625,-0.8714752197265625
0.101287841796875,0.4347381591796875,-0.8305206298828125
0.092803955078125,0.348968505859375,-0.80615234375
0.04229736328125,0.356201171875,-0.8895111083984375
0.0570526123046875,0.3354644775390625,-0.9528045654296876
0.121826171875,0.3124847412109375,-0.982269287109375
0.1057891845703125,0.3692626953125,-1.0952606201171875
0.082305908203125,0.5101470947265625,-1.2965545654296875
0.1182403564453125,0.409393310546875,-1.208465576171875
0.1180572509765625,0.3621673583984375,-1.1949462890625
0.109710693359375,0.2271881103515625,-1.042816162109375
0.07342529296875,0.1107177734375,-0.8697357177734375
0.0640106201171875,0.2708282470703125,-0.952606201171875
0.0918121337890625,0.4593353271484375,-1.0426483154296875
0.09771728515625,0.4572296142578125,-1.059051513671875
0.098876953125,0.432830810546875,-1.0486907958984375
0.09906005859375,0.4487152099609375,-1.004852294921875
0.0989837646484375,0.4358367919921875,-0.972900390625
0.1013946533203125,0.4387969970703125,-0.910919189453125
0.089752197265625,0.4004669189453125,-0.810943603515625
0.06005859375,0.380157470703125,-0.749725341796875
0.0208587646484375,0.40899658203125,-0.7194671630859375
0.0129547119140625,0.4056854248046875,-0.6764068603515625
0.0477142333984375,0.3622589111328125,-0.6738739013671875
0.0770721435546875,0.2837371826171875,-0.743865966796875
0.033538818359375,0.2627716064453125,-0.8945159912109375
0.031951904296875,0.31536865234375,-1.03570556640625
0.0858306884765625,0.4053192138671875,-1.164886474609375
0.0661163330078125,0.645050048828125,-1.3948516845703125
0.2108612060546875,0.4448394775390625,-1.2521209716796875
0.2552642822265625,0.1943206787109375,-0.9738311767578124
0.1734466552734375,0.12725830078125,-0.9064483642578124
0.110931396484375,0.0957489013671875,-0.894866943359375
0.0930023193359375,0.2545166015625,-0.942535400390625
0.109619140625,0.48663330078125,-1.067413330078125
0.1494598388671875,0.521759033203125,-1.0530853271484375
0.187164306640625,0.3572998046875,-0.9240570068359376
0.128448486328125,0.29071044921875,-0.8628082275390625
0.074127197265625,0.319793701171875,-0.8372039794921875
0.05926513671875,0.364715576171875,-0.8241729736328125
0.0499420166015625,0.3807525634765625,-0.8265533447265625
0.037384033203125,0.3654022216796875,-0.8574371337890625
0.0400390625,0.3550262451171875,-0.89215087890625
0.0345306396484375,0.333404541015625,-0.93048095703125
0.051666259765625,0.259918212890625,-0.981201171875
0.0543212890625,0.263580322265625,-0.9385223388671876
0.00469970703125,0.358428955078125,-0.962646484375
-0.0203399658203125,0.4390411376953125,-1.064422607421875
0.0241851806640625,0.47149658203125,-1.1898651123046875
0.071441650390625,0.349365234375,-1.12188720703125
0.1186676025390625,0.313323974609375,-1.0938873291015625
0.1184844970703125,0.3852691650390625,-1.0566558837890625
0.1310272216796875,0.4044647216796875,-1.00494384765625
0.1412811279296875,0.36004638671875,-0.82635498046875
0.14862060546875,0.274505615234375,-0.750213623046875
0.2084197998046875,0.3970184326171875,-1.0158843994140625
0.2359619140625,0.4943389892578125,-1.073760986328125
0.2567138671875,0.4171295166015625,-1.0355377197265625
0.237884521484375,0.33349609375,-0.95867919921875
0.1947784423828125,0.3287506103515625,-0.91058349609375
0.1605072021484375,0.3603668212890625,-0.910186767578125
0.1583709716796875,0.349884033203125,-0.876708984375
0.1332855224609375,0.33782958984375,-0.8832550048828125
0.0465850830078125,0.3220672607421875,-0.8896026611328125
0.024810791015625,0.30914306640625,-0.8466339111328125
0.0061187744140625,0.299468994140625,-0.832733154296875
-0.01873779296875,0.3174591064453125,-0.84967041015625
-0.0258026123046875,0.300384521484375,-0.859039306640625
-0.093536376953125,0.3234405517578125,-0.8820343017578125
-0.111846923828125,0.292724609375,-0.9366607666015624
-0.0848236083984375,0.3130950927734375,-1.042572021484375
-0.0606689453125,0.4417724609375,-1.17230224609375
-0.023162841796875,0.3013763427734375,-1.09136962890625
-0.0233917236328125,0.1768798828125,-1.0418853759765625
-0.0411224365234375,0.1263275146484375,-0.9720458984375
-0.0267181396484375,0.0818023681640625,-0.9407806396484376
-0.012969970703125,0.1931915283203125,-1.0922698974609375
0.0725555419921875,0.3565673828125,-1.1566619873046875
0.147857666015625,0.3505859375,-1.0493621826171875
0.131134033203125,0.2579345703125,-0.9481048583984376
0.091064453125,0.219879150390625,-0.891937255859375
0.069580078125,0.2743988037109375,-0.880950927734375
0.051544189453125,0.375030517578125,-0.8652801513671875
0.05255126953125,0.390838623046875,-0.855224609375
0.0425872802734375,0.3918914794921875,-0.8745269775390625
0.03021240234375,0.3661956787109375,-0.8634490966796875
0.0466461181640625,0.394622802734375,-0.9018707275390624
0.0563201904296875,0.4718017578125,-0.944610595703125
0.0960540771484375,0.4443359375,-0.9049072265625
0.1027679443359375,0.4973602294921875,-0.965118408203125
0.1447296142578125,0.4357757568359375,-0.9041900634765624
0.1839752197265625,0.35321044921875,-0.86297607421875
0.2227783203125,0.4776153564453125,-0.9489898681640624
0.169952392578125,0.634033203125,-0.94671630859375
0.11651611328125,0.5732421875,-0.8626556396484375
0.09027099609375,0.4284820556640625,-0.9113311767578124
0.1139678955078125,0.3236846923828125,-0.9372406005859376
0.188079833984375,0.375732421875,-0.9346771240234376
0.264892578125,0.3916015625,-0.951416015625
0.296630859375,0.363067626953125,-0.9573516845703124
0.30303955078125,0.357879638671875,-0.9554595947265624
0.2996978759765625,0.34228515625,-0.9489898681640624
0.276092529296875,0.3164215087890625,-0.8926239013671875
0.20623779296875,0.3594970703125,-0.96343994140625
0.162384033203125,0.4012298583984375,-0.9945068359375
0.1735992431640625,0.3656463623046875,-0.9809417724609376
0.1627197265625,0.376190185546875,-0.97216796875
0.1744232177734375,0.3994140625,-0.969085693359375
0.186798095703125,0.4994354248046875,-1.0389556884765625
0.2031402587890625,0.5987396240234375,-1.0457305908203125
0.2210540771484375,0.492279052734375,-0.8710174560546875
0.2000579833984375,0.3565216064453125,-0.7910308837890625
0.1483917236328125,0.3033447265625,-0.7932586669921875
0.131134033203125,0.270782470703125,-0.8155670166015625
0.1153564453125,0.369354248046875,-0.8856353759765625
0.100555419921875,0.50286865234375,-0.932952880859375
0.1253204345703125,0.4955291748046875,-0.9275970458984376
0.102813720703125,0.3497314453125,-0.850372314453125
0.036346435546875,0.275482177734375,-0.8443145751953125
-0.0073089599609375,0.3235931396484375,-0.8441162109375
0.0208282470703125,0.3800506591796875,-0.83642578125
0.0603179931640625,0.3977508544921875,-0.86651611328125
0.07415771484375,0.3676910400390625,-0.9220123291015624
0.092681884765625,0.326416015625,-0.963348388671875
0.101654052734375,0.322052001953125,-0.9814300537109376
0.143310546875,0.3190155029296875,-0.965057373046875
0.129547119140625,0.3118438720703125,-0.9733428955078124
0.117279052734375,0.359649658203125,-1.05145263671875
0.1482391357421875,0.359588623046875,-1.0424346923828125
0.1760711669921875,0.3672332763671875,-1.11627197265625
0.174468994140625,0.444244384765625,-1.17950439453125
0.2281341552734375,0.4148101806640625,-1.12908935546875
0.2630767822265625,0.3759307861328125,-1.077667236328125
0.2551116943359375,0.1681671142578125,-0.857330322265625
0.2206878662109375,0.22076416015625,-0.9111480712890624
0.2330474853515625,0.470184326171875,-1.003204345703125
0.287811279296875,0.47637939453125,-0.9384918212890624
0.2965850830078125,0.396728515625,-0.9241485595703124
0.2389068603515625,0.3849945068359375,-0.9010009765625
0.228118896484375,0.3921661376953125,-0.8863983154296875
0.2504730224609375,0.4181060791015625,-0.8722381591796875
0.2682342529296875,0.4351654052734375,-0.8373870849609375
0.2539825439453125,0.4567108154296875,-0.8369903564453125
0.2111663818359375,0.4402008056640625,-0.8253326416015625
0.1954803466796875,0.399322509765625,-0.8191375732421875
0.1788787841796875,0.3690643310546875,-0.8218994140625
0.1824951171875,0.3202362060546875,-0.8151397705078125
0.1434173583984375,0.3292999267578125,-0.84869384765625
0.1290283203125,0.3352508544921875,-0.8900604248046875
0.090545654296875,0.36749267578125,-1.047393798828125
0.1450958251953125,0.55804443359375,-1.2980194091796875
0.1654052734375,0.4583282470703125,-1.0720672607421875
0.0319366455078125,0.2934417724609375,-1.0856170654296875
0.005523681640625,0.2073211669921875,-1.02679443359375
0.0251312255859375,0.1120758056640625,-0.913360595703125
-0.0186004638671875,0.2606964111328125,-1.0911865234375
0.0504302978515625,0.4373931884765625,-1.16815185546875
0.0888214111328125,0.4910888671875,-1.0318603515625
0.07672119140625,0.4298248291015625,-0.8280487060546875
0.061798095703125,0.370025634765625,-0.7263946533203125
0.021881103515625,0.3578948974609375,-0.7678375244140625
0.03814697265625,0.3625030517578125,-0.7759552001953125
0.0411376953125,0.357177734375,-0.7686614990234375
0.028564453125,0.367706298828125,-0.7823944091796875
0.059783935546875,0.340240478515625,-0.8233642578125
0.07623291015625,0.310302734375,-0.859130859375
0.068267822265625,0.296783447265625,-0.9172821044921876
0.071685791015625,0.3050537109375,-0.9447021484375
0.122161865234375,0.291473388671875,-0.962554931640625
0.09735107421875,0.3201446533203125,-1.02728271484375
0.1029205322265625,0.2881622314453125,-1.10968017578125
0.172210693359375,0.374298095703125,-1.29876708984375
0.1734161376953125,0.3615875244140625,-1.2030029296875
0.1529693603515625,0.299285888671875,-1.110260009765625
0.1129608154296875,0.320068359375,-1.1075439453125
0.1588897705078125,0.25225830078125,-1.0018310546875
0.15301513671875,0.1531219482421875,-0.840972900390625
0.134735107421875,0.196990966796875,-0.9227752685546876
0.17547607421875,0.386322021484375,-1.0795440673828125
0.2581787109375,0.431121826171875,-1.0706024169921875
0.282501220703125,0.3739471435546875,-0.97418212890625
0.212646484375,0.3699493408203125,-0.9370880126953124
0.174407958984375,0.40252685546875,-0.9296875
0.1905670166015625,0.441680908203125,-0.940673828125
0.181243896484375,0.4649200439453125,-0.9182281494140624
0.155059814453125,0.45098876953125,-0.9071807861328124
0.1353607177734375,0.419708251953125,-0.8783721923828125
0.1177978515625,0.416168212890625,-0.856170654296875
0.0894622802734375,0.4256439208984375,-0.8553466796875
0.04693603515625,0.4243927001953125,-0.857879638671875
0.0337066650390625,0.3703460693359375,-0.8293914794921875
0.0254058837890625,0.340118408203125,-0.825469970703125
0.0375518798828125,0.3958892822265625,-0.943603515625
0.0932769775390625,0.6014251708984375,-1.12164306640625
0.1330718994140625,0.4343109130859375,-0.8769073486328125
0.0598602294921875,0.2833251953125,-0.8665924072265625
-0.0080413818359375,0.2483062744140625,-0.8675079345703125
-0.0041351318359375,0.2547607421875,-0.903289794921875
0.037811279296875,0.4803314208984375,-1.0977630615234375
0.138519287109375,0.4656524658203125,-1.0356597900390625
0.0642852783203125,0.2733306884765625,-0.9739532470703124
0.13995361328125,0.1840972900390625,-0.8916473388671875
0.0937652587890625,0.24462890625,-0.930267333984375
0.1162261962890625,0.3172760009765625,-0.9505767822265624
0.1532440185546875,0.3669281005859375,-0.9735565185546876
0.1437530517578125,0.3399810791015625,-1.00494384765625
0.1235198974609375,0.2489776611328125,-0.985260009765625
0.1145782470703125,0.228302001953125,-1.0018157958984375
0.1376800537109375,0.2317657470703125,-1.0119476318359375
0.15673828125,0.2509918212890625,-0.969940185546875
0.151947021484375,0.278594970703125,-0.94635009765625
0.1593780517578125,0.2967529296875,-0.971099853515625
0.1725311279296875,0.3198089599609375,-0.96649169921875
0.1652374267578125,0.3266143798828125,-0.9522552490234376
0.1304779052734375,0.3084716796875,-0.954010009765625
0.1246490478515625,0.3016357421875,-0.9312286376953124
0.1196746826171875,0.3780364990234375,-1.023468017578125
0.1324615478515625,0.4458770751953125,-1.0486602783203125
0.1424407958984375,0.402374267578125,-0.9935302734375
0.1244964599609375,0.358642578125,-0.960296630859375
0.14593505859375,0.358367919921875,-0.90875244140625
0.172637939453125,0.362274169921875,-0.8669281005859375
0.1908416748046875,0.3618621826171875,-0.8511810302734375
0.216644287109375,0.35675048828125,-0.8281097412109375
0.2305145263671875,0.4495086669921875,-0.9453582763671876
0.2655181884765625,0.48138427734375,-1.0140228271484375
0.234954833984375,0.4561614990234375,-1.0181732177734375
0.189208984375,0.4226531982421875,-0.9909515380859376
0.138519287109375,0.3681488037109375,-0.97161865234375
0.14215087890625,0.38397216796875,-0.927520751953125
0.1558990478515625,0.3493194580078125,-0.9279632568359376
0.14678955078125,0.358245849609375,-0.9839630126953124
0.15130615234375,0.348876953125,-0.950439453125
0.1362762451171875,0.342315673828125,-0.9152679443359376
0.1577301025390625,0.3108673095703125,-0.8876190185546875
0.1453094482421875,0.3250732421875,-0.8758392333984375
0.1258392333984375,0.324981689453125,-0.8372802734375
0.0833740234375,0.336395263671875,-0.84222412109375
0.0577392578125,0.348236083984375,-0.8182525634765625
0.0539398193359375,0.356658935546875,-0.8377838134765625
0.065826416015625,0.3736114501953125,-0.8750762939453125
0.0923004150390625,0.3794097900390625,-0.926544189453125
0.0792083740234375,0.5241851806640625,-1.118682861328125
0.136199951171875,0.54345703125,-1.1661529541015625
0.191009521484375,0.3882904052734375,-1.020263671875
0.166107177734375,0.3232421875,-0.9903411865234376
0.1124420166015625,0.2834625244140625,-1.0086822509765625
0.103851318359375,0.2115325927734375,-0.970123291015625
0.0826416015625,0.187103271484375,-0.8724517822265625
0.06414794921875,0.2613067626953125,-0.9070281982421876
0.0778045654296875,0.417877197265625,-1.0635223388671875
0.0840301513671875,0.438812255859375,-1.06561279296875
0.0931396484375,0.29193115234375,-0.9393768310546876
0.026031494140625,0.2186279296875,-0.8934173583984375
-0.008392333984375,0.2590179443359375,-0.9317626953125
0.0157470703125,0.33978271484375,-0.9395294189453124
0.05401611328125,0.366241455078125,-0.937103271484375
0.0838165283203125,0.3477325439453125,-0.947540283203125
0.075836181640625,0.2920074462890625,-0.9405670166015624
0.0615692138671875,0.2843017578125,-0.9414520263671876
0.0636138916015625,0.2965240478515625,-0.926116943359375
0.035125732421875,0.28472900390625,-0.932525634765625
-0.000946044921875,0.3112945556640625,-0.9737701416015624
0.0015869140625,0.312652587890625,-0.9965057373046876
0.004913330078125,0.3123931884765625,-1.02294921875
0.004852294921875,0.3065948486328125,-1.0474700927734375
0.032257080078125,0.3174285888671875,-1.0281524658203125
0.08294677734375,0.39569091796875,-0.975921630859375
0.1108856201171875,0.4228515625,-0.9347381591796876
0.1543121337890625,0.4471893310546875,-0.8873443603515625
0.19122314453125,0.4261322021484375,-0.8203125
0.1805419921875,0.421661376953125,-0.8005218505859375
0.17547607421875,0.422210693359375,-0.840789794921875
0.2052154541015625,0.475494384765625,-0.9119415283203124
0.2452545166015625,0.4608001708984375,-0.9072723388671876
0.2333984375,0.421630859375,-0.926544189453125
0.2099609375,0.39739990234375,-0.9309844970703124
0.188385009765625,0.3792572021484375,-0.96746826171875
0.166015625,0.3730316162109375,-1.026275634765625
0.1599273681640625,0.339447021484375,-1.026611328125
0.1450653076171875,0.33160400390625,-0.9992218017578124
0.13275146484375,0.33868408203125,-0.96124267578125
0.134002685546875,0.3718719482421875,-0.9369964599609376
0.1300811767578125,0.369873046875,-0.8913726806640625
0.1292724609375,0.3739471435546875,-0.8539886474609375
0.12396240234375,0.3482513427734375,-0.8462371826171875
0.0954132080078125,0.3488922119140625,-0.9388275146484376
0.08612060546875,0.3639678955078125,-1.0125885009765625
0.10809326171875,0.3662261962890625,-1.04669189453125
0.15576171875,0.3597564697265625,-1.037841796875
0.1561431884765625,0.3239593505859375,-1.027130126953125
0.1398162841796875,0.30657958984375,-0.997344970703125
0.0811309814453125,0.312957763671875,-0.97967529296875
0.0449371337890625,0.30828857421875,-0.9456939697265624
0.0514373779296875,0.3238067626953125,-0.90008544921875
0.0567779541015625,0.3690338134765625,-0.907257080078125
0.0471343994140625,0.3644561767578125,-0.9376678466796876
0.06011962890625,0.360443115234375,-0.9448699951171876
0.0568695068359375,0.4164276123046875,-0.966796875
0.0540924072265625,0.365631103515625,-0.9379119873046876
0.031951904296875,0.286773681640625,-0.903900146484375
0.0065765380859375,0.287689208984375,-0.9210662841796876
-0.002349853515625,0.322235107421875,-0.934295654296875
0.0157318115234375,0.3280029296875,-0.940521240234375
0.01123046875,0.315704345703125,-0.978668212890625
-0.003997802734375,0.2771453857421875,-0.9975738525390624
-0.0107421875,0.280426025390625,-0.9659881591796876
0.0004730224609375,0.3099212646484375,-0.9416961669921876
0.01202392578125,0.332366943359375,-0.9230499267578124
0.0202178955078125,0.3216400146484375,-0.9327545166015624
0.0184326171875,0.31353759765625,-0.9532928466796876
0.0133209228515625,0.29705810546875,-0.9804229736328124
0.0123748779296875,0.2816009521484375,-0.984283447265625
0.0093536376953125,0.2908935546875,-1.0034942626953125
0.0326385498046875,0.28656005859375,-0.9864501953125
0.040130615234375,0.286895751953125,-0.9758453369140624
0.039794921875,0.2809600830078125,-0.9578704833984376
0.0303497314453125,0.28509521484375,-0.9534454345703124
0.02191162109375,0.2800140380859375,-0.9662628173828124
0.02069091796875,0.2694244384765625,-0.97100830078125
0.034698486328125,0.2729644775390625,-0.981658935546875
0.0546112060546875,0.2886810302734375,-0.9951019287109376
0.06463623046875,0.305938720703125,-1.01507568359375
0.0465240478515625,0.3004150390625,-1.03765869140625
0.036712646484375,0.281097412109375,-1.024871826171875
0.0409088134765625,0.2807464599609375,-0.976226806640625
0.0433502197265625,0.2976531982421875,-0.9601593017578124
0.0400390625,0.3456878662109375,-0.9636383056640624
0.0454559326171875,0.36419677734375,-0.936065673828125
0.0500030517578125,0.36126708984375,-0.91326904296875
0.042266845703125,0.3338470458984375,-0.90704345703125
0.0423736572265625,0.3355560302734375,-0.924102783203125
0.0437164306640625,0.334991455078125,-0.9263153076171876
0.0482177734375,0.3265838623046875,-0.91363525390625
0.0424652099609375,0.3325347900390625,-0.91748046875
0.03759765625,0.3366241455078125,-0.9384307861328124
0.0515594482421875,0.3424224853515625,-0.94256591796875
0.074554443359375,0.3427276611328125,-0.9427947998046876
0.0843048095703125,0.345428466796875,-0.9476776123046876
0.08856201171875,0.3392333984375,-0.9611968994140624
0.076385498046875,0.3231048583984375,-0.9483489990234376
0.0690765380859375,0.3079376220703125,-0.9454803466796876
0.0811767578125,0.31011962890625,-0.9308624267578124
0.082611083984375,0.3153533935546875,-0.9578094482421876
0.068084716796875,0.3206634521484375,-0.985931396484375
0.0489654541015625,0.28692626953125,-0.9959259033203124
0.04296875,0.2759246826171875,-0.9998931884765624
0.0670623779296875,0.2942657470703125,-0.9945831298828124
0.1058807373046875,0.2858428955078125,-0.9753570556640624
0.115692138671875,0.3063812255859375,-0.97021484375
0.1102752685546875,0.2947845458984375,-0.9534149169921876
0.0872039794921875,0.24896240234375,-0.9226837158203124
0.064178466796875,0.3149871826171875,-0.985595703125
0.0605316162109375,0.39691162109375,-1.062591552734375
0.0851593017578125,0.3644866943359375,-1.046295166015625
0.0606842041015625,0.3346710205078125,-1.0060272216796875
0.0432281494140625,0.302032470703125,-0.9707489013671876
0.0345001220703125,0.301116943359375,-0.930938720703125
0.00531005859375,0.3116302490234375,-0.917572021484375
-0.00848388671875,0.32177734375,-0.918121337890625
-0.0017242431640625,0.31982421875,-0.9107208251953124
0.032257080078125,0.2867889404296875,-0.91314697265625
0.07379150390625,0.272003173828125,-0.9119110107421876
0.1078338623046875,0.2503814697265625,-0.935882568359375
0.0890350341796875,0.215240478515625,-0.9202728271484376
0.064056396484375,0.1846771240234375,-0.9379119873046876
0.0550079345703125,0.17401123046875,-0.9476470947265624
0.041259765625,0.20452880859375,-0.9683685302734376
0.055633544921875,0.2044219970703125,-0.97613525390625
0.0458221435546875,0.1981048583984375,-0.9879302978515624
0.014556884765625,0.1986236572265625,-1.006622314453125
0.010406494140625,0.331573486328125,-1.1407318115234375
0.0578460693359375,0.4157257080078125,-1.1531219482421875
0.095703125,0.222259521484375,-0.9281768798828124
-0.0178985595703125,0.1869964599609375,-0.9485015869140624
-0.0684967041015625,0.2162933349609375,-1.0435028076171875
-0.019622802734375,0.2407684326171875,-1.031707763671875
0.011688232421875,0.2323150634765625,-0.958953857421875
0.0060272216796875,0.278167724609375,-0.9500274658203124
0.055023193359375,0.417388916015625,-1.060211181640625
0.09027099609375,0.503692626953125,-1.0717010498046875
0.061065673828125,0.48980712890625,-0.9741363525390624
0.0169677734375,0.41070556640625,-0.8496246337890625
-0.0535430908203125,0.3596954345703125,-0.807708740234375
-0.028167724609375,0.324493408203125,-0.7902984619140625
-0.0099334716796875,0.3253936767578125,-0.7985992431640625
-0.03778076171875,0.303863525390625,-0.8534088134765625
-0.0540618896484375,0.27130126953125,-0.908935546875
-0.0238494873046875,0.2665557861328125,-0.9137725830078124
-0.0056915283203125,0.29168701171875,-0.9333038330078124
-0.009185791015625,0.31854248046875,-0.9621429443359376
-0.006591796875,0.3176422119140625,-0.9819488525390624
-0.019683837890625,0.287811279296875,-0.9803314208984376
-0.03692626953125,0.271209716796875,-0.979034423828125
-0.0629730224609375,0.29461669921875,-0.99102783203125
-0.0499420166015625,0.349151611328125,-1.0164337158203125
-0.032257080078125,0.4254150390625,-1.0616607666015625
-0.0184326171875,0.368408203125,-1.009765625
0.0003204345703125,0.3496856689453125,-0.976165771484375
0.0237579345703125,0.4071807861328125,-1.0511932373046875
0.0445404052734375,0.3878021240234375,-1.0497589111328125
0.0742950439453125,0.3201141357421875,-0.98431396484375
0.0830230712890625,0.280914306640625,-0.8682708740234375
0.0917205810546875,0.343109130859375,-0.8686676025390625
0.0826416015625,0.4519500732421875,-0.9822845458984376
0.081085205078125,0.4889373779296875,-1.03887939453125
0.081878662109375,0.4420013427734375,-0.96514892578125
0.07318115234375,0.3777923583984375,-0.86346435546875
0.0601654052734375,0.376068115234375,-0.83087158203125
0.04498291015625,0.4102020263671875,-0.848480224609375
0.054443359375,0.4229888916015625,-0.82293701171875
0.07049560546875,0.422332763671875,-0.8063507080078125
0.0645599365234375,0.39605712890625,-0.8241729736328125
0.0980224609375,0.3765869140625,-0.8701629638671875
0.1314697265625,0.3316497802734375,-0.890411376953125
0.1288909912109375,0.297943115234375,-0.9392852783203124
0.1235198974609375,0.2844085693359375,-0.9984130859375
0.1396636962890625,0.30548095703125,-1.051300048828125
0.151153564453125,0.3029022216796875,-1.0622406005859375
0.1417236328125,0.3013763427734375,-1.1182861328125
0.137542724609375,0.452117919921875,-1.272674560546875
0.1437530517578125,0.3628692626953125,-1.0904083251953125
0.0944366455078125,0.24298095703125,-0.9649505615234376
0.0666656494140625,0.0863189697265625,-0.8892059326171875
0.0535125732421875,0.0372161865234375,-0.8917694091796875
0.05584716796875,0.2709197998046875,-1.110137939453125
0.0580596923828125,0.5112762451171875,-1.25726318359375
0.039276123046875,0.48577880859375,-1.09527587890625
-0.0001678466796875,0.3574066162109375,-0.963714599609375
-0.0332183837890625,0.3240203857421875,-0.9242401123046876
-0.0498199462890625,0.367584228515625,-0.89752197265625
-0.041717529296875,0.43011474609375,-0.87158203125
-0.020721435546875,0.4448699951171875,-0.81640625
0.00701904296875,0.3964691162109375,-0.7542877197265625
0.0152130126953125,0.34759521484375,-0.730255126953125
0.014556884765625,0.3232269287109375,-0.78131103515625
0.0161590576171875,0.3200531005859375,-0.8305511474609375
0.0230865478515625,0.3039398193359375,-0.9022369384765624
0.0179290771484375,0.304840087890625,-1.008941650390625
0.0500640869140625,0.2585296630859375,-1.0496368408203125
0.0747833251953125,0.225250244140625,-1.0899810791015625
0.0894775390625,0.2431182861328125,-1.0859527587890625
0.1225738525390625,0.3515777587890625,-1.2120361328125
0.1256103515625,0.33087158203125,-1.1448822021484375
0.1303253173828125,0.2343292236328125,-1.04754638671875
0.11553955078125,0.2885284423828125,-1.0802001953125
0.1583099365234375,0.3048553466796875,-1.01202392578125
0.1989288330078125,0.2687530517578125,-0.9036102294921876
0.205780029296875,0.254974365234375,-0.852386474609375
0.2355499267578125,0.322723388671875,-0.870574951171875
0.286407470703125,0.4370880126953125,-0.9736328125
0.2738037109375,0.4608154296875,-0.994049072265625
0.22735595703125,0.4162750244140625,-0.953857421875
0.2025909423828125,0.3745574951171875,-0.9073028564453124
0.1984710693359375,0.390716552734375,-0.88861083984375
0.22064208984375,0.4069366455078125,-0.903839111328125
0.213714599609375,0.421234130859375,-1.0327606201171875
0.20654296875,0.3963470458984375,-0.90704345703125
0.222198486328125,0.412445068359375,-0.892364501953125
0.2050323486328125,0.4150390625,-0.8543853759765625
0.1825103759765625,0.402618408203125,-0.882415771484375
0.174652099609375,0.391693115234375,-0.85919189453125
0.1725311279296875,0.3814697265625,-0.853912353515625
0.1453094482421875,0.4061279296875,-0.8838958740234375
0.130584716796875,0.4249420166015625,-0.921173095703125
0.1136474609375,0.40167236328125,-0.937469482421875
0.1225128173828125,0.459686279296875,-1.100006103515625
0.1610870361328125,0.4220123291015625,-1.045196533203125
0.15478515625,0.320831298828125,-0.952789306640625
0.1101226806640625,0.266265869140625,-0.95513916015625
0.1383819580078125,0.202972412109375,-0.9112091064453124
0.1473846435546875,0.156768798828125,-0.90228271484375
0.1752777099609375,0.13623046875,-0.907440185546875
0.247802734375,0.2207489013671875,-1.0063323974609375
0.326202392578125,0.2659149169921875,-1.119140625
0.2793121337890625,0.2908477783203125,-1.0737762451171875
0.2455902099609375,0.2598724365234375,-1.035888671875
0.24176025390625,0.227935791015625,-0.96929931640625
0.215240478515625,0.2904052734375,-0.9217681884765624
0.1770782470703125,0.3357696533203125,-0.90887451171875
0.1655426025390625,0.3453521728515625,-0.8882904052734375
0.1574249267578125,0.355499267578125,-0.860015869140625
0.1474761962890625,0.346527099609375,-0.8317108154296875
0.1401519775390625,0.35699462890625,-0.8357391357421875
0.13726806640625,0.413726806640625,-0.876129150390625
0.1160736083984375,0.4492340087890625,-0.9048309326171876
0.106658935546875,0.4189605712890625,-0.8854827880859375
0.0769500732421875,0.4791107177734375,-0.964599609375
0.055938720703125,0.4331817626953125,-0.9305419921875
0.039306640625,0.3183135986328125,-0.8813018798828125
0.0157470703125,0.3812408447265625,-0.9264678955078124
0.0700836181640625,0.4855499267578125,-0.9745330810546876
0.124908447265625,0.49072265625,-0.9365997314453124
0.1296844482421875,0.4291229248046875,-0.9618072509765624
0.11712646484375,0.375030517578125,-1.0154571533203125
0.1551971435546875,0.328582763671875,-1.0021514892578125
0.18768310546875,0.3265380859375,-0.9535675048828124
0.1494140625,0.3545989990234375,-0.9441070556640624
0.1400604248046875,0.3450775146484375,-0.92584228515625
0.14239501953125,0.3553924560546875,-0.922882080078125
0.1546478271484375,0.3472442626953125,-0.928619384765625
0.160400390625,0.3554840087890625,-0.9393463134765624
0.156402587890625,0.3320465087890625,-0.947601318359375
0.1545257568359375,0.3326873779296875,-0.957733154296875
0.1722869873046875,0.3964385986328125,-1.007598876953125
0.1937103271484375,0.4081573486328125,-1.009613037109375
0.207427978515625,0.4058380126953125,-1.00067138671875
0.210968017578125,0.42010498046875,-1.0230865478515625
0.2385406494140625,0.4256134033203125,-1.007781982421875
0.2313079833984375,0.43048095703125,-0.9623260498046876
0.220733642578125,0.4371185302734375,-0.931488037109375
0.2134552001953125,0.4560089111328125,-0.9082794189453124
0.1937408447265625,0.506591796875,-0.949188232421875
0.168304443359375,0.53240966796875,-1.0159912109375
0.2026214599609375,0.5024261474609375,-1.02838134765625
0.2263031005859375,0.4071502685546875,-0.9926300048828124
0.185791015625,0.3517608642578125,-0.974639892578125
0.18170166015625,0.3112945556640625,-0.960968017578125
0.19189453125,0.30108642578125,-0.8841705322265625
0.1751556396484375,0.2814483642578125,-0.8873291015625
0.1938629150390625,0.244415283203125,-0.919097900390625
0.204437255859375,0.217926025390625,-0.9942474365234376
0.17279052734375,0.2203369140625,-0.9520263671875
0.14630126953125,0.24810791015625,-0.947784423828125
0.1592864990234375,0.18389892578125,-0.9480438232421876
0.146087646484375,0.1493072509765625,-0.943389892578125
-0.032684326171875,0.1568756103515625,-0.9563751220703124
0.0521392822265625,-0.009979248046875,-1.0303497314453125
0.2191162109375,0.0309600830078125,-1.0076446533203125
0.1103363037109375,0.0365142822265625,-1.1121978759765625
0.1322021484375,-0.0054931640625,-0.9375152587890624
0.0852508544921875,0.03594970703125,-1.0322723388671875
0.0491180419921875,-0.0139312744140625,-0.99755859375
0.0582427978515625,-0.0259246826171875,-0.9678802490234376
0.0074310302734375,-0.051849365234375,-1.0035247802734375
-0.0631561279296875,-0.1024322509765625,-1.0380096435546875
-0.047576904296875,-0.0547943115234375,-0.903594970703125
-0.02154541015625,0.1309356689453125,-0.9181060791015624
0.031402587890625,-0.0063323974609375,-1.1020965576171875
-0.0384368896484375,-0.067962646484375,-1.0213775634765625
-0.0155181884765625,-0.1381988525390625,-0.9442596435546876
-0.00714111328125,-0.1158447265625,-0.9053192138671876
0.0057830810546875,-0.086212158203125,-0.9353179931640624
-0.00958251953125,-0.1503143310546875,-0.915802001953125
-0.0267486572265625,-0.18170166015625,-0.9718780517578124
-0.0226287841796875,-0.1690521240234375,-0.96136474609375
-0.0310516357421875,-0.1615447998046875,-0.958343505859375
-0.0601806640625,-0.172882080078125,-0.9582977294921876
-0.0333709716796875,-0.1760711669921875,-0.9708099365234376
-0.0250244140625,-0.1837921142578125,-0.983856201171875
-0.026214599609375,-0.167510986328125,-1.0119781494140625
0.004638671875,-0.181243896484375,-1.1044921875
-0.008819580078125,-0.0940704345703125,-1.069244384765625
0.0387725830078125,-0.0819244384765625,-1.1143798828125
-0.0147857666015625,0.01519775390625,-1.2411041259765625
-0.0425872802734375,0.0184478759765625,-1.0604400634765625
-0.063446044921875,0.01629638671875,-0.9828033447265624
-0.0353546142578125,-0.01751708984375,-0.95184326171875
-0.030426025390625,-0.0108642578125,-0.9054718017578124
-0.0233154296875,0.038360595703125,-0.90924072265625
0.0010833740234375,0.0962677001953125,-0.9975128173828124
0.0348663330078125,0.1086578369140625,-1.1172637939453125
-0.0059814453125,0.081695556640625,-1.10198974609375
0.0167999267578125,-0.01239013671875,-1.0634002685546875
0.0457916259765625,-0.01763916015625,-0.999664306640625
0.0592803955078125,-0.034027099609375,-0.9776153564453124
0.053375244140625,-0.02081298828125,-0.92724609375
0.0456695556640625,-0.001953125,-0.884674072265625
0.092559814453125,0.0115814208984375,-0.9180450439453124
0.1384429931640625,-0.0428924560546875,-0.89990234375
0.1734619140625,-0.0407867431640625,-0.896026611328125
0.21923828125,-0.04034423828125,-0.946929931640625
0.305023193359375,-0.0269012451171875,-0.9554595947265624
0.4759521484375,-0.0579681396484375,-0.887115478515625
0.5152435302734375,-0.053192138671875,-0.84033203125
0.55670166015625,-0.0333709716796875,-0.92132568359375
0.5451507568359375,-0.126739501953125,-0.929962158203125
0.5951080322265625,-0.0640411376953125,-0.897308349609375
0.5418701171875,0.0587310791015625,-0.88323974609375
0.418731689453125,0.09136962890625,-0.7601776123046875
0.387176513671875,0.0920257568359375,-0.7709197998046875
0.371490478515625,0.1453857421875,-0.78131103515625
0.3593597412109375,0.2253570556640625,-0.8909912109375
0.34075927734375,0.2490234375,-0.959808349609375
0.3250274658203125,0.2722320556640625,-0.9448089599609376
0.3137664794921875,0.24127197265625,-0.9900970458984376
0.2576751708984375,0.2824249267578125,-1.03240966796875
0.2511138916015625,0.31304931640625,-1.0132293701171875
0.2080841064453125,0.301513671875,-0.9865264892578124
0.16015625,0.269775390625,-0.9562530517578124
0.1384429931640625,0.2794342041015625,-0.9487457275390624
0.1086883544921875,0.261077880859375,-0.9578094482421876
0.0660400390625,0.3172149658203125,-1.0147247314453125
0.11407470703125,0.30963134765625,-1.0246734619140625
0.16302490234375,0.287384033203125,-1.0401153564453125
0.1648712158203125,0.3059539794921875,-1.04718017578125
0.1822052001953125,0.3628692626953125,-1.12750244140625
0.1745147705078125,0.4702911376953125,-1.2320404052734375
0.1890716552734375,0.407806396484375,-1.036224365234375
0.236663818359375,0.163604736328125,-0.8262786865234375
0.177947998046875,0.257476806640625,-0.888031005859375
0.1318359375,0.4239349365234375,-1.0458221435546875
0.16046142578125,0.505767822265625,-1.084136962890625
0.1188507080078125,0.51092529296875,-1.039794921875
0.098724365234375,0.4448699951171875,-1.005859375
0.1254119873046875,0.4270172119140625,-0.985992431640625
0.1110382080078125,0.4993133544921875,-0.93011474609375
0.1152191162109375,0.493194580078125,-0.866973876953125
0.1231842041015625,0.45745849609375,-0.833221435546875
0.097198486328125,0.429168701171875,-0.803924560546875
0.05096435546875,0.4229583740234375,-0.7889404296875
0.0326995849609375,0.4022369384765625,-0.767303466796875
0.018768310546875,0.3704376220703125,-0.74945068359375
0.058074951171875,0.3346710205078125,-0.7635345458984375
0.0545654296875,0.3066864013671875,-0.8410491943359375
0.00439453125,0.30169677734375,-0.9172210693359376
-0.025177001953125,0.3281097412109375,-1.0047454833984375
-0.055633544921875,0.445831298828125,-1.115936279296875
-0.04815673828125,0.4936370849609375,-1.157684326171875
-0.0237884521484375,0.414398193359375,-1.154296875
0.052337646484375,0.4016265869140625,-1.0830535888671875
0.0854644775390625,0.2171173095703125,-1.0987548828125
0.1727294921875,0.3571929931640625,-1.0609588623046875
0.28570556640625,0.52099609375,-0.8711395263671875
0.1786346435546875,0.40130615234375,-0.9632415771484376
0.123321533203125,0.2518768310546875,-1.0935821533203125
0.10009765625,0.206695556640625,-0.96246337890625
0.083038330078125,0.2994537353515625,-0.759735107421875
0.008148193359375,0.32421875,-0.526580810546875
0.1826934814453125,0.1950531005859375,-0.7709197998046875
0.10882568359375,0.1686859130859375,-0.8060455322265625
0.20068359375,0.1548309326171875,-0.8115386962890625
0.1824493408203125,0.050994873046875,-0.99993896484375
0.16461181640625,0.0789642333984375,-0.99273681640625
0.143585205078125,0.092437744140625,-1.01995849609375
0.1074371337890625,0.188507080078125,-1.07684326171875
0.05792236328125,0.2931365966796875,-1.1569671630859375
0.0928497314453125,0.3254547119140625,-1.117431640625
0.129974365234375,0.3428955078125,-0.8857421875
0.11151123046875,0.345123291015625,-0.8294830322265625
0.1130218505859375,0.405609130859375,-0.86083984375
0.1477508544921875,0.4334716796875,-0.82928466796875
0.0765838623046875,0.4502410888671875,-0.89593505859375
0.082916259765625,0.4354095458984375,-0.819000244140625
0.0553741455078125,0.3749542236328125,-0.7393951416015625
-0.0257415771484375,0.3661346435546875,-0.7827301025390625
-0.009796142578125,0.4488983154296875,-0.8101959228515625
-0.00701904296875,0.4559326171875,-0.8195037841796875
0.0122222900390625,0.39337158203125,-0.8747711181640625
0.05377197265625,0.3528900146484375,-0.86920166015625
-0.028350830078125,0.3497161865234375,-0.9881134033203124
-0.0182342529296875,0.245819091796875,-1.078094482421875
-0.0637969970703125,0.266265869140625,-1.1985321044921875
-0.0024261474609375,0.2672882080078125,-1.1415252685546875
0.0782012939453125,0.2376556396484375,-1.052459716796875
0.1025238037109375,0.1560516357421875,-1.02880859375
0.1572418212890625,-0.0190277099609375,-1.063018798828125
0.25006103515625,-0.112518310546875,-1.3192901611328125
0.2313995361328125,-0.0575408935546875,-1.4430389404296875
0.1958465576171875,-0.038787841796875,-1.2006378173828125
0.112579345703125,-0.04595947265625,-0.964935302734375
-0.089019775390625,-0.0302886962890625,-0.845184326171875
0.01019287109375,-0.1554718017578125,-0.9141998291015624
0.0397491455078125,-0.30322265625,-0.9339599609375
0.1065521240234375,-0.1646728515625,-1.061920166015625
0.072509765625,-0.20477294921875,-1.06597900390625
-0.072998046875,-0.211212158203125,-0.9210662841796876
-0.311920166015625,-0.2540435791015625,-0.8901214599609375
-0.34332275390625,-0.23883056640625,-0.9461822509765624
-0.2804718017578125,-0.072967529296875,-0.95001220703125
-0.1016693115234375,-0.059661865234375,-0.927581787109375
-0.0270843505859375,-0.1356964111328125,-0.9410400390625
-0.061248779296875,-0.1708526611328125,-0.748138427734375
0.012115478515625,-0.5157012939453125,-0.91082763671875
0.0565948486328125,-0.2265777587890625,-0.9389190673828124
-0.0489959716796875,-0.2394866943359375,-1.12982177734375
-0.0838623046875,-0.1952056884765625,-1.1742401123046875
0.022216796875,-0.1725616455078125,-1.004302978515625
0.200439453125,-0.1820526123046875,-0.911346435546875
0.2170257568359375,-0.264678955078125,-0.8993682861328125
0.215057373046875,-0.2560577392578125,-0.8495635986328125
0.1441802978515625,-0.31512451171875,-0.972808837890625
0.040802001953125,-0.311767578125,-0.9964752197265624
0.003143310546875,-0.29071044921875,-0.9290924072265624
0.03009033203125,-0.3072509765625,-0.959808349609375
0.0434417724609375,-0.3222198486328125,-0.96514892578125
0.01763916015625,-0.3203887939453125,-0.940643310546875
0.011016845703125,-0.321197509765625,-0.922393798828125
0.0285797119140625,-0.330230712890625,-0.9614105224609376
0.0467681884765625,-0.3036041259765625,-0.9989166259765624
