AccelerationX,AccelerationY,AccelerationZ
-0.401947021484375,0.6924896240234375,-0.5795745849609375
-0.4185333251953125,0.6903533935546875,-0.571380615234375
-0.4277191162109375,0.6932373046875,-0.5897369384765625
-0.4232025146484375,0.68878173828125,-0.56353759765625
-0.424652099609375,0.6858978271484375,-0.5812835693359375
-0.409759521484375,0.660858154296875,-0.5202178955078125
-0.437957763671875,0.7008209228515625,-0.6072235107421875
-0.424163818359375,0.67156982421875,-0.548309326171875
-0.431732177734375,0.6734161376953125,-0.5261077880859375
-0.4651947021484375,0.678955078125,-0.5876922607421875
-0.4600067138671875,0.703216552734375,-0.583648681640625
-0.4432525634765625,0.677825927734375,-0.5596466064453125
-0.4338226318359375,0.6802825927734375,-0.5219268798828125
-0.4629058837890625,0.69830322265625,-0.52294921875
-0.4633026123046875,0.6946563720703125,-0.435089111328125
-0.5198516845703125,0.7049713134765625,-0.45751953125
-0.5257568359375,0.724029541015625,-0.5217437744140625
-0.5323028564453125,0.7143707275390625,-0.356292724609375
-0.5842132568359375,0.7363128662109375,-0.441741943359375
-0.573211669921875,0.7099761962890625,-0.4581146240234375
-0.5642547607421875,0.6713409423828125,-0.3188323974609375
-0.5554351806640625,0.65216064453125,-0.3282623291015625
-0.5537109375,0.6501922607421875,-0.3551788330078125
-0.5913238525390625,0.638641357421875,-0.274566650390625
-0.54998779296875,0.676513671875,-0.266143798828125
-0.686767578125,0.73590087890625,-0.177398681640625
-0.89752197265625,0.7400970458984375,-0.00213623046875
-0.86431884765625,0.715179443359375,-0.10089111328125
-0.8207855224609375,0.751251220703125,-0.1644287109375
-0.805145263671875,0.80938720703125,-0.0742034912109375
-0.7680206298828125,0.792633056640625,-0.2167816162109375
-0.7956085205078125,0.7526702880859375,-0.1989593505859375
-0.7932891845703125,0.750701904296875,-0.053253173828125
-0.7601165771484375,0.81005859375,-0.0550537109375
-0.7662353515625,0.8421630859375,-0.1041717529296875
-0.7161865234375,0.7591705322265625,-0.1976776123046875
-0.7296142578125,0.7082061767578125,-0.1482696533203125
-0.804840087890625,0.7998504638671875,-0.104827880859375
-0.706329345703125,0.8368682861328125,-0.0251922607421875
-0.6105194091796875,0.722625732421875,0.0343170166015625
-0.6134033203125,0.646392822265625,-0.003448486328125
-0.5557098388671875,0.662841796875,-0.0880584716796875
-0.6129150390625,0.653564453125,0.0194854736328125
-0.5821075439453125,0.6109466552734375,0.07012939453125
-0.61077880859375,0.67266845703125,0.0231170654296875
-0.5734405517578125,0.818511962890625,0.0167236328125
-0.563446044921875,0.8798980712890625,0.07562255859375
-0.54559326171875,0.827423095703125,0.1163787841796875
-0.74334716796875,0.838470458984375,0.1033935546875
-0.7511749267578125,0.81427001953125,-0.024749755859375
-0.6757354736328125,0.7019195556640625,-0.0995941162109375
-0.7884979248046875,0.695770263671875,-0.058197021484375
-0.8619232177734375,0.82568359375,-0.0493316650390625
-0.8663787841796875,0.843017578125,-0.0599517822265625
-0.783050537109375,0.634033203125,-0.07861328125
-0.7545623779296875,0.50201416015625,-0.092803955078125
-0.710113525390625,0.546875,-0.0489501953125
-0.6588897705078125,0.5926971435546875,0.026824951171875
-0.6631011962890625,0.6148834228515625,0.03472900390625
-0.750396728515625,0.668182373046875,0.0209503173828125
-0.861358642578125,0.8143463134765625,-0.02044677734375
-0.873809814453125,0.83319091796875,-0.0702056884765625
-0.818389892578125,0.773193359375,-0.142120361328125
-0.8078155517578125,0.8120574951171875,-0.163055419921875
-0.7595367431640625,0.8899688720703125,-0.1792755126953125
-0.696990966796875,0.795623779296875,-0.193267822265625
-0.7342529296875,0.6835784912109375,-0.1827239990234375
-0.7664337158203125,0.7535400390625,-0.2107696533203125
-0.7018280029296875,0.853912353515625,-0.169189453125
-0.67144775390625,0.824249267578125,-0.109161376953125
-0.646270751953125,0.7230224609375,-0.040557861328125
-0.6434326171875,0.6860198974609375,-0.059722900390625
-0.5994415283203125,0.7059783935546875,-0.072265625
-0.555694580078125,0.663482666015625,-0.010650634765625
-0.5512542724609375,0.7145538330078125,0.0294647216796875
-0.5511322021484375,0.8410491943359375,-0.0055389404296875
-0.5136871337890625,0.9101409912109376,-0.0591278076171875
-0.5333099365234375,0.8174896240234375,-0.1194000244140625
-0.691253662109375,0.81024169921875,-0.0796051025390625
-0.6436004638671875,0.7739410400390625,-0.0711212158203125
-0.5684661865234375,0.6163177490234375,-0.1155242919921875
-0.672637939453125,0.7429351806640625,-0.0281982421875
-0.67376708984375,0.882904052734375,-0.014801025390625
-0.7041778564453125,0.7954864501953125,-0.0992889404296875
-0.7021484375,0.66943359375,-0.1382293701171875
-0.6904449462890625,0.645721435546875,-0.1637420654296875
-0.6927490234375,0.676116943359375,-0.089508056640625
-0.7679901123046875,0.6320037841796875,-0.03936767578125
-0.8214874267578125,0.60491943359375,-0.0386199951171875
-0.8865509033203125,0.716461181640625,-0.121978759765625
-0.9657440185546876,0.8096466064453125,-0.148681640625
-0.952789306640625,0.7495880126953125,-0.12164306640625
-0.9246368408203124,0.7027740478515625,-0.1745758056640625
-0.9611053466796876,0.836456298828125,-0.233978271484375
-0.832977294921875,0.9202880859375,-0.2140960693359375
-0.75067138671875,0.804229736328125,-0.2509613037109375
-0.830078125,0.8332672119140625,-0.229217529296875
-0.798919677734375,0.9515533447265624,-0.23223876953125
-0.7217254638671875,1.044464111328125,-0.321868896484375
-0.5881500244140625,0.9734039306640624,-0.443603515625
-0.5720367431640625,0.91455078125,-0.4452056884765625
-0.503753662109375,0.8535308837890625,-0.2530364990234375
-0.43218994140625,0.76104736328125,-0.0615997314453125
-0.4081878662109375,0.772003173828125,0.0020904541015625
-0.4308013916015625,0.8356170654296875,-0.066253662109375
-0.39483642578125,0.89605712890625,-6.103515625e-05
-0.352203369140625,0.93682861328125,0.080718994140625
-0.3088226318359375,0.888458251953125,0.00872802734375
-0.3754425048828125,0.7328033447265625,-0.023681640625
-0.5378570556640625,0.8277130126953125,0.0799560546875
-0.466339111328125,0.8703460693359375,-0.02239990234375
-0.6502685546875,1.0373687744140625,-0.207672119140625
-0.763885498046875,1.1456146240234375,-0.307403564453125
-0.8282318115234375,0.9771270751953124,-0.2839508056640625
-0.8441162109375,0.693756103515625,-0.2047882080078125
-0.7762908935546875,0.625274658203125,-0.066802978515625
-0.7474822998046875,0.662200927734375,0.0362396240234375
-0.7025299072265625,0.7144012451171875,0.0015716552734375
-0.7336883544921875,0.6952362060546875,-0.1212158203125
-0.9048919677734376,0.7965240478515625,-0.1248626708984375
-0.964141845703125,0.925384521484375,-0.056915283203125
-0.8610076904296875,0.895416259765625,-0.0494842529296875
-0.7837677001953125,0.8067779541015625,-0.102752685546875
-0.7840576171875,0.8258819580078125,-0.0816192626953125
-0.724700927734375,0.9331207275390624,-0.1256103515625
-0.720184326171875,0.8429412841796875,-0.2035064697265625
-0.886871337890625,0.94354248046875,-0.279815673828125
-0.8631439208984375,1.04559326171875,-0.3095550537109375
-0.8130340576171875,1.0699615478515625,-0.34075927734375
-0.75946044921875,1.0068206787109375,-0.31329345703125
-0.6508331298828125,0.9349822998046876,-0.2755889892578125
-0.512603759765625,0.9152374267578124,-0.2052459716796875
-0.35247802734375,0.8351287841796875,-0.1510162353515625
-0.30389404296875,0.7834320068359375,-0.117706298828125
-0.3108673095703125,0.805389404296875,-0.081939697265625
-0.3079986572265625,0.84552001953125,-0.0431060791015625
-0.329620361328125,0.8428802490234375,-0.0187835693359375
-0.4188079833984375,0.7591400146484375,0.0146331787109375
-0.5408477783203125,0.8685760498046875,0.1087188720703125
-0.4787750244140625,0.832061767578125,-0.0748291015625
-0.7182159423828125,0.833404541015625,-0.1017303466796875
-0.91497802734375,0.9396209716796876,-0.089111328125
-0.92974853515625,0.81353759765625,-0.067626953125
-0.903533935546875,0.62152099609375,-0.06756591796875
-0.84124755859375,0.5606689453125,-0.111572265625
-0.816650390625,0.6787109375,-0.07037353515625
-0.781951904296875,0.7049102783203125,-0.116180419921875
-0.788482666015625,0.6499176025390625,-0.200653076171875
-0.8395233154296875,0.6554107666015625,-0.2412261962890625
-0.92095947265625,0.7466888427734375,-0.240997314453125
-0.8921661376953125,0.737548828125,-0.2997283935546875
-0.8409576416015625,0.736724853515625,-0.363433837890625
-0.903167724609375,0.9895172119140624,-0.3373260498046875
-0.7564544677734375,0.9171905517578124,-0.2913360595703125
-0.7418365478515625,0.7886810302734375,-0.3116455078125
-0.71209716796875,0.844970703125,-0.369873046875
-0.6912994384765625,0.9149017333984376,-0.2968292236328125
-0.717437744140625,0.90087890625,-0.2089385986328125
-0.743988037109375,0.86505126953125,-0.15228271484375
-0.6791839599609375,0.840667724609375,-0.13275146484375
-0.57452392578125,0.8324127197265625,-0.1188507080078125
-0.470245361328125,0.760772705078125,-0.074310302734375
-0.4247589111328125,0.7422943115234375,-0.048614501953125
-0.386566162109375,0.77191162109375,-0.051055908203125
-0.3560791015625,0.7920074462890625,-0.0257568359375
-0.3607635498046875,0.7395782470703125,-0.072113037109375
-0.5695953369140625,0.7834930419921875,-0.0510711669921875
-0.47857666015625,0.9524688720703124,-0.1438446044921875
-0.4535675048828125,0.8306732177734375,-0.3436431884765625
-0.712432861328125,0.8439483642578125,-0.2960052490234375
-0.8008270263671875,0.9611053466796876,-0.3391876220703125
-0.8033294677734375,0.86126708984375,-0.4012451171875
-0.754425048828125,0.6523895263671875,-0.407867431640625
-0.745391845703125,0.6350860595703125,-0.2925567626953125
-0.7091217041015625,0.72125244140625,-0.176605224609375
-0.7039642333984375,0.6918792724609375,-0.1160430908203125
-0.8214569091796875,0.6593780517578125,-0.195343017578125
-0.8973236083984375,0.7444610595703125,-0.257171630859375
-0.86468505859375,0.8130340576171875,-0.2526092529296875
-0.8815155029296875,0.7713470458984375,-0.2725067138671875
-0.852935791015625,0.707763671875,-0.2745819091796875
-0.82550048828125,0.828399658203125,-0.2530517578125
-0.7580718994140625,0.8915252685546875,-0.2774200439453125
-0.7885894775390625,0.8400421142578125,-0.343505859375
-0.7579345703125,0.88330078125,-0.655242919921875
-0.7006378173828125,0.8996429443359375,-0.553619384765625
-0.6590118408203125,0.76947021484375,-0.40106201171875
-0.66845703125,0.793060302734375,-0.3136749267578125
-0.6270599365234375,0.8907470703125,-0.2992095947265625
-0.5616302490234375,0.9481048583984376,-0.26220703125
-0.472747802734375,0.9678955078125,-0.3101348876953125
-0.4150543212890625,0.9670257568359376,-0.32244873046875
-0.49969482421875,0.9513092041015624,-0.2017822265625
-0.48480224609375,0.869781494140625,-0.0170440673828125
-0.379638671875,0.772674560546875,-0.033660888671875
-0.431915283203125,0.7253265380859375,-0.03729248046875
-0.45831298828125,0.817352294921875,0.045684814453125
-0.401214599609375,0.734466552734375,-0.0445098876953125
-0.6075897216796875,0.7872772216796875,0.0164337158203125
-0.683563232421875,0.9092559814453124,0.0810394287109375
-0.7214813232421875,0.9144439697265624,-0.0192108154296875
-0.695953369140625,0.7906341552734375,-0.1358489990234375
-0.6934814453125,0.711578369140625,-0.076690673828125
-0.690521240234375,0.7266998291015625,0.0241851806640625
-0.719390869140625,0.7363739013671875,0.0471038818359375
-0.7451171875,0.727752685546875,0.0073089599609375
-0.8098907470703125,0.8141021728515625,-0.077239990234375
-0.8717041015625,0.94024658203125,-0.1681976318359375
-0.8862152099609375,0.898681640625,-0.20526123046875
-0.856719970703125,0.763397216796875,-0.237884521484375
-0.8715972900390625,0.7729339599609375,-0.25335693359375
-0.8188934326171875,0.9438018798828124,-0.2056427001953125
-0.6782989501953125,0.8562164306640625,-0.2173004150390625
-0.74755859375,0.7986907958984375,-0.2784271240234375
-0.7857818603515625,0.8196868896484375,-0.219512939453125
-0.7559814453125,0.9190521240234376,-0.1787261962890625
-0.701324462890625,0.925445556640625,-0.2330780029296875
-0.699066162109375,0.9059600830078124,-0.2611236572265625
-0.6735687255859375,0.9345703125,-0.1549835205078125
-0.5432281494140625,0.9205474853515624,-0.10479736328125
-0.4320068359375,0.8690948486328125,-0.1276397705078125
-0.3812255859375,0.8185882568359375,-0.134735107421875
-0.39996337890625,0.871856689453125,-0.0841217041015625
-0.3445587158203125,0.8643341064453125,-0.036865234375
-0.4080810546875,0.7367401123046875,-0.009429931640625
-0.5969085693359375,0.7866058349609375,0.0567169189453125
-0.4664306640625,0.86016845703125,-0.081329345703125
-0.4826202392578125,0.7817230224609375,-0.16986083984375
-0.653289794921875,0.858367919921875,-0.109832763671875
-0.7174835205078125,0.96563720703125,-0.117156982421875
-0.669677734375,0.8453826904296875,-0.1281890869140625
-0.6853179931640625,0.7139739990234375,-0.08172607421875
-0.7148895263671875,0.701507568359375,-0.0336761474609375
-0.720703125,0.774383544921875,-0.0373382568359375
-0.7081146240234375,0.788055419921875,-0.0994415283203125
-0.7299957275390625,0.7623748779296875,-0.13104248046875
-0.806732177734375,0.841583251953125,-0.13037109375
-0.8149566650390625,0.901885986328125,-0.148406982421875
-0.7859649658203125,0.8000946044921875,-0.205413818359375
-0.798126220703125,0.7061004638671875,-0.2113800048828125
-0.8432464599609375,0.8080291748046875,-0.2191314697265625
-0.8280181884765625,0.8461456298828125,-0.200469970703125
-0.814422607421875,0.7655792236328125,-0.2131805419921875
-0.8477325439453125,0.8740386962890625,-0.2776031494140625
-0.8199615478515625,1.033416748046875,-0.271392822265625
-0.765655517578125,1.0711822509765625,-0.2885284423828125
-0.7208251953125,1.0106658935546875,-0.29986572265625
-0.687530517578125,1.0068206787109375,-0.28631591796875
-0.588287353515625,1.007293701171875,-0.207305908203125
-0.4447021484375,0.92999267578125,-0.1624603271484375
-0.3641204833984375,0.815277099609375,-0.15350341796875
-0.3455810546875,0.7961883544921875,-0.143646240234375
-0.2840118408203125,0.77313232421875,-0.0861053466796875
-0.335601806640625,0.683746337890625,-0.044647216796875
-0.4003143310546875,0.67913818359375,-0.0122833251953125
-0.4521026611328125,0.8018341064453125,-0.0126495361328125
-0.5177001953125,0.8912811279296875,-0.046478271484375
-0.5753631591796875,0.8498687744140625,-0.014434814453125
-0.6087646484375,0.764617919921875,0.037506103515625
-0.74566650390625,0.870513916015625,-0.0224456787109375
-0.8727569580078125,1.0086669921875,0.0016326904296875
-0.855743408203125,0.9932708740234376,0.05706787109375
-0.842071533203125,0.8917388916015625,0.025726318359375
-0.8162841796875,0.838165283203125,0.012969970703125
-0.7544708251953125,0.7627410888671875,0.0877685546875
-0.710479736328125,0.7247467041015625,0.1623382568359375
-0.6886138916015625,0.71368408203125,0.178314208984375
-0.7109527587890625,0.776123046875,0.097137451171875
-0.740936279296875,0.82861328125,0.04052734375
-0.733551025390625,0.8338165283203125,-0.011260986328125
-0.6928558349609375,0.893951416015625,-0.0855255126953125
-0.5830078125,0.9099273681640624,-0.218048095703125
-0.488311767578125,0.855316162109375,-0.2240142822265625
-0.4622344970703125,0.8602294921875,-0.1828460693359375
-0.442962646484375,0.9031982421875,-0.3134765625
-0.437103271484375,0.9008331298828124,-0.4674072265625
-0.4084320068359375,0.88616943359375,-0.6089630126953125
-0.419219970703125,0.8607177734375,-0.7215423583984375
-0.5160675048828125,0.862823486328125,-0.666595458984375
-0.5642242431640625,0.8548431396484375,-0.60333251953125
-0.64385986328125,0.868011474609375,-0.518890380859375
-0.7958984375,0.8497314453125,-0.463470458984375
-0.73089599609375,0.9117889404296876,-0.3816375732421875
-0.6095733642578125,0.9725189208984376,-0.2027435302734375
-0.5980072021484375,1.0298004150390625,-0.3054962158203125
-0.5547943115234375,1.055755615234375,-0.3396453857421875
-0.4997711181640625,1.017242431640625,-0.32696533203125
-0.4570159912109375,0.984161376953125,-0.25689697265625
-0.4288787841796875,0.9156036376953124,-0.19677734375
-0.4341278076171875,0.9134674072265624,-0.191619873046875
-0.274261474609375,0.9473724365234376,-0.228179931640625
-0.1520538330078125,0.9345855712890624,-0.2434234619140625
-0.2081298828125,0.9012603759765624,-0.193023681640625
-0.2801666259765625,0.9520416259765624,-0.0339202880859375
-0.2444610595703125,1.000091552734375,0.0697174072265625
-0.227752685546875,0.9443206787109376,0.1564178466796875
-0.2932586669921875,0.9676055908203124,0.1439056396484375
-0.4036407470703125,1.008209228515625,0.139862060546875
-0.516754150390625,1.0313262939453125,0.1299285888671875
-0.6026611328125,1.0441741943359375,0.1161041259765625
-0.6886138916015625,0.9942626953125,0.127899169921875
-0.738983154296875,0.934417724609375,0.140625
-0.8209228515625,0.87359619140625,0.1578216552734375
-0.8531951904296875,0.896575927734375,0.0641021728515625
-0.7750091552734375,0.9033355712890624,-0.04522705078125
-0.75506591796875,0.8439483642578125,-0.144287109375
-0.82879638671875,0.9015045166015624,-0.1330108642578125
-0.7823028564453125,0.9510650634765624,-0.088348388671875
-0.704254150390625,0.8170928955078125,-0.115753173828125
-0.756805419921875,0.828399658203125,-0.14276123046875
-0.7618560791015625,0.9942626953125,-0.1090087890625
-0.7451324462890625,1.1781005859375,-0.1749114990234375
-0.6632537841796875,1.14605712890625,-0.2509307861328125
-0.6395416259765625,1.1007537841796875,-0.2624969482421875
-0.565521240234375,1.1342926025390625,-0.2471466064453125
-0.422332763671875,1.09124755859375,-0.19256591796875
-0.3456878662109375,0.97216796875,-0.141357421875
-0.34869384765625,0.91363525390625,-0.0495452880859375
-0.3005523681640625,0.9321136474609376,-0.0677032470703125
-0.227294921875,0.8824005126953125,-0.0699310302734375
-0.2358551025390625,0.7453155517578125,-0.0714569091796875
-0.359954833984375,0.744598388671875,0.027435302734375
-0.3094635009765625,0.815216064453125,0.0692291259765625
-0.356719970703125,0.833221435546875,-0.0084381103515625
-0.550872802734375,0.98272705078125,0.03424072265625
-0.6591796875,1.1507568359375,0.0108642578125
-0.6925201416015625,1.06768798828125,-0.1012420654296875
-0.733428955078125,0.87982177734375,-0.1119384765625
-0.7332611083984375,0.774505615234375,-3.0517578125e-05
-0.694793701171875,0.8172149658203125,0.0681915283203125
-0.6435546875,0.8241119384765625,0.0387115478515625
-0.6905364990234375,0.817962646484375,-0.049285888671875
-0.752197265625,0.91583251953125,-0.0571746826171875
-0.7295684814453125,0.9976654052734376,-0.0564117431640625
-0.7140045166015625,0.9095001220703124,-0.1109771728515625
-0.7244720458984375,0.7909088134765625,-0.103302001953125
-0.7414703369140625,0.855224609375,-0.0528564453125
-0.7281341552734375,0.960662841796875,-0.073028564453125
-0.70440673828125,0.8268585205078125,-0.139801025390625
-0.7757568359375,0.8008270263671875,-0.144317626953125
-0.7638397216796875,0.9544677734375,-0.0496673583984375
-0.7015380859375,1.0889129638671875,-0.1157073974609375
-0.6219024658203125,1.0438995361328125,-0.181304931640625
-0.578033447265625,0.951324462890625,-0.149261474609375
-0.496490478515625,0.9167327880859376,-0.083648681640625
-0.3794097900390625,0.86602783203125,-0.09588623046875
-0.360107421875,0.7875213623046875,-0.028839111328125
-0.3878021240234375,0.7830657958984375,0.0130157470703125
-0.37518310546875,0.8646392822265625,-0.000457763671875
-0.399749755859375,0.8946380615234375,0.003662109375
-0.393096923828125,0.8372802734375,-0.0657806396484375
-0.4758148193359375,0.738128662109375,0.00433349609375
-0.549285888671875,0.887939453125,0.0401458740234375
-0.4505615234375,1.0400238037109375,-0.057342529296875
-0.59686279296875,0.9741058349609376,-0.112060546875
-0.89306640625,0.8992919921875,-0.0577850341796875
-0.95819091796875,0.8931121826171875,0.007110595703125
-0.9654388427734376,0.7650299072265625,0.015594482421875
-1.01690673828125,0.60565185546875,-0.0314178466796875
-1.0316925048828125,0.56866455078125,-0.099090576171875
-0.8575592041015625,0.598388671875,-0.0200958251953125
-0.709197998046875,0.656341552734375,0.0524444580078125
-0.7105255126953125,0.7538909912109375,0.03253173828125
-0.7533721923828125,0.90277099609375,-0.0059051513671875
-0.785888671875,0.996337890625,0.044464111328125
-0.7910308837890625,0.9768218994140624,0.2154083251953125
-0.7531890869140625,0.91229248046875,0.299896240234375
-0.717376708984375,0.95574951171875,0.2274627685546875
-0.6064910888671875,0.9725341796875,0.1855621337890625
-0.50518798828125,0.8514404296875,0.130401611328125
-0.5541839599609375,0.74224853515625,0.11871337890625
-0.5582733154296875,0.752960205078125,0.08990478515625
-0.481109619140625,0.8265533447265625,-0.017974853515625
-0.48907470703125,0.789520263671875,-0.1080322265625
-0.5515594482421875,0.689849853515625,-0.1130523681640625
-0.59136962890625,0.6878509521484375,-0.117279052734375
-0.4959259033203125,0.700042724609375,-0.1212158203125
-0.4245758056640625,0.7140350341796875,-0.0538330078125
-0.4434356689453125,0.729400634765625,-0.031982421875
-0.476959228515625,0.8029937744140625,0.0122528076171875
-0.504486083984375,0.9454345703125,-0.0597381591796875
-0.5247039794921875,1.02874755859375,-0.12451171875
-0.57708740234375,0.9998779296875,-0.10150146484375
-0.7216796875,1.07208251953125,-0.0151824951171875
-0.6681365966796875,1.1109161376953125,-0.0667266845703125
-0.598236083984375,0.8280029296875,-0.090545654296875
-0.7261962890625,0.799468994140625,-0.1255340576171875
-0.792724609375,0.87457275390625,-0.1817779541015625
-0.758148193359375,0.7749786376953125,-0.144287109375
-0.76397705078125,0.6392822265625,-0.131927490234375
-0.753692626953125,0.6020660400390625,-0.10662841796875
-0.68017578125,0.667724609375,-0.0358428955078125
-0.6799163818359375,0.7502593994140625,0.02099609375
-0.67376708984375,0.8529052734375,0.051300048828125
-0.7089080810546875,0.9507293701171876,-0.0352783203125
-0.741973876953125,1.0382843017578125,-0.09478759765625
-0.620086669921875,1.0126190185546875,-0.109222412109375
-0.5423431396484375,0.9571990966796876,-0.1065826416015625
-0.6539459228515625,1.095794677734375,-0.1276702880859375
-0.64215087890625,1.0788116455078125,-0.1503143310546875
-0.6667633056640625,0.8771820068359375,-0.1898956298828125
-0.7502899169921875,0.8371734619140625,-0.228668212890625
-0.7163848876953125,0.97381591796875,-0.20184326171875
-0.5594635009765625,0.9990234375,-0.167572021484375
-0.5463104248046875,0.894073486328125,-0.2121124267578125
-0.56915283203125,0.8467864990234375,-0.185089111328125
-0.4872894287109375,0.8104248046875,-0.1002197265625
-0.3961334228515625,0.716156005859375,-0.0462188720703125
-0.355712890625,0.697052001953125,-0.013214111328125
-0.3414154052734375,0.7525634765625,-0.00738525390625
-0.31866455078125,0.8505096435546875,-0.0633392333984375
-0.28118896484375,0.8983306884765625,-0.089752197265625
-0.3873138427734375,0.8542633056640625,-0.0902557373046875
-0.6203765869140625,1.0047760009765625,0.0333404541015625
-0.49481201171875,0.9649200439453124,-0.054412841796875
-0.6005401611328125,1.0005340576171875,-0.0407257080078125
-0.7046356201171875,1.114898681640625,-0.0440521240234375
-0.7519989013671875,1.104736328125,0.021209716796875
-0.7352447509765625,0.853302001953125,-0.014556884765625
-0.753692626953125,0.702056884765625,-0.0269622802734375
-0.7377777099609375,0.7006378173828125,-0.0440521240234375
-0.7051849365234375,0.7254638671875,-0.0509033203125
-0.6415557861328125,0.688690185546875,-0.0507354736328125
-0.6317596435546875,0.728240966796875,0.0008087158203125
-0.635284423828125,0.8828887939453125,0.01947021484375
-0.59613037109375,0.9666900634765624,-0.0707550048828125
-0.65325927734375,0.917938232421875,-0.20208740234375
-0.77349853515625,0.8906707763671875,-0.169036865234375
-0.7746429443359375,1.005126953125,-0.1236572265625
-0.693756103515625,0.95684814453125,-0.098236083984375
-0.69525146484375,0.81787109375,-0.110809326171875
-0.7338409423828125,0.9232177734375,-0.119232177734375
-0.7247467041015625,1.069183349609375,-0.0994873046875
-0.6758270263671875,1.0444488525390625,-0.1680145263671875
-0.64141845703125,0.9446868896484376,-0.2198944091796875
-0.5757904052734375,0.9014434814453124,-0.2115325927734375
-0.4634246826171875,0.89178466796875,-0.161041259765625
-0.3562774658203125,0.8541107177734375,-0.047210693359375
-0.3386993408203125,0.8519744873046875,-0.0137939453125
-0.3382415771484375,0.9147491455078124,-0.065765380859375
-0.2901763916015625,0.9310760498046876,-0.063629150390625
-0.268951416015625,0.8373565673828125,-0.0604248046875
-0.3901824951171875,0.7313690185546875,-0.0235748291015625
-0.46966552734375,0.9002227783203125,0.028167724609375
-0.3728485107421875,0.9514312744140624,-0.1545867919921875
-0.527557373046875,0.9740142822265624,-0.1168975830078125
-0.664337158203125,1.076019287109375,-0.146636962890625
-0.75762939453125,1.0378875732421875,-0.1396636962890625
-0.7623291015625,0.80731201171875,0.03302001953125
-0.7564239501953125,0.710845947265625,0.08978271484375
-0.749176025390625,0.760650634765625,0.0150146484375
-0.7562103271484375,0.7471771240234375,-0.0298004150390625
-0.816497802734375,0.658294677734375,-0.047637939453125
-0.90771484375,0.73504638671875,-0.097625732421875
-0.8797454833984375,0.8517608642578125,-0.2355804443359375
-0.8371124267578125,0.9119720458984376,-0.2898406982421875
-0.810546875,0.9309539794921876,-0.1075286865234375
-0.78424072265625,1.022735595703125,0.0366058349609375
-0.73095703125,1.1461639404296875,-0.0248870849609375
-0.6857452392578125,1.03857421875,-0.124755859375
-0.760101318359375,0.93359375,0.0131378173828125
-0.723541259765625,1.0874176025390625,0.1997528076171875
-0.558502197265625,1.1896820068359375,0.1718292236328125
-0.4141998291015625,1.043792724609375,0.0814666748046875
-0.440887451171875,0.861785888671875,-0.003875732421875
-0.41082763671875,0.79791259765625,0.070953369140625
-0.3445892333984375,0.71759033203125,0.196014404296875
-0.346038818359375,0.608123779296875,0.2438507080078125
-0.4801025390625,0.587799072265625,0.198455810546875
-0.4202728271484375,0.6737823486328125,0.153564453125
-0.5017547607421875,0.7544403076171875,0.077301025390625
-0.68768310546875,0.8293914794921875,0.03985595703125
-0.773773193359375,0.884765625,0.0544891357421875
-0.8355865478515625,1.0240325927734375,-0.0796051025390625
-0.718719482421875,1.0635986328125,-0.2299041748046875
-0.71234130859375,0.9010772705078124,-0.2184295654296875
-0.838653564453125,0.843353271484375,-0.0800933837890625
-0.8618927001953125,0.9103851318359376,-0.0575408935546875
-0.790771484375,0.8637237548828125,-0.1165618896484375
-0.735595703125,0.6653594970703125,-0.0989227294921875
-0.7212982177734375,0.58868408203125,-0.079254150390625
-0.6868896484375,0.6370086669921875,-0.086517333984375
-0.692230224609375,0.662994384765625,-0.075042724609375
-0.693145751953125,0.6470947265625,0.01190185546875
-0.7649078369140625,0.673858642578125,0.038909912109375
-0.857086181640625,0.75439453125,0.0766448974609375
-0.8506011962890625,0.8056182861328125,0.05389404296875
-0.8933258056640625,0.7771453857421875,-0.0237274169921875
-0.9855499267578124,0.845458984375,-0.0489959716796875
-0.9364166259765624,0.99725341796875,-0.0390167236328125
-0.845672607421875,0.9011383056640624,-0.0175018310546875
-0.916046142578125,0.9593658447265624,-0.069183349609375
-0.86212158203125,1.1107940673828125,-0.065826416015625
-0.777496337890625,1.1875152587890625,-0.0577392578125
-0.6951446533203125,1.1207122802734375,-0.083099365234375
-0.643951416015625,0.9981536865234376,-0.07806396484375
-0.559600830078125,0.9387359619140624,-0.0659332275390625
-0.4472503662109375,0.87939453125,-0.028472900390625
-0.399688720703125,0.783905029296875,-0.004180908203125
-0.3893890380859375,0.7680511474609375,-0.0068359375
-0.342529296875,0.8309173583984375,-0.0305023193359375
-0.2835693359375,0.840118408203125,-0.054840087890625
-0.3631134033203125,0.7855224609375,-0.009246826171875
-0.500640869140625,0.80975341796875,0.0694122314453125
-0.46710205078125,0.856170654296875,0.0101776123046875
-0.477630615234375,0.8389892578125,0.041412353515625
-0.6406707763671875,0.993377685546875,0.0789337158203125
-0.753753662109375,1.2263336181640625,-0.0087890625
-0.83843994140625,1.16058349609375,-0.0607147216796875
-0.908966064453125,0.887481689453125,-0.0314178466796875
-0.93365478515625,0.7571868896484375,0.0285186767578125
-0.9075164794921876,0.7353057861328125,0.047271728515625
-0.840728759765625,0.7429046630859375,0.0280303955078125
-0.8220672607421875,0.7505035400390625,0.005767822265625
-0.796417236328125,0.7621917724609375,0.03216552734375
-0.7864532470703125,0.8314056396484375,0.00970458984375
-0.7444915771484375,0.83447265625,-0.0510406494140625
-0.74957275390625,0.770782470703125,-0.0754241943359375
-0.8082427978515625,0.86712646484375,-0.0480194091796875
-0.8123779296875,0.9933013916015624,-0.103057861328125
-0.76324462890625,0.94287109375,-0.1701507568359375
-0.78564453125,0.8706817626953125,-0.1680755615234375
-0.8161773681640625,0.970184326171875,-0.15582275390625
-0.75311279296875,1.1604461669921875,-0.212738037109375
-0.610626220703125,1.1423492431640625,-0.280364990234375
-0.5479736328125,1.0085601806640625,-0.27752685546875
-0.53460693359375,0.922943115234375,-0.205291748046875
-0.4604949951171875,0.8526458740234375,-0.1343231201171875
-0.371978759765625,0.7927703857421875,-0.128082275390625
-0.32708740234375,0.7574005126953125,-0.164215087890625
-0.3451995849609375,0.8151702880859375,-0.1567840576171875
-0.3163909912109375,0.829864501953125,-0.14898681640625
-0.3910980224609375,0.77117919921875,-0.037994384765625
-0.4712371826171875,0.774322509765625,0.07354736328125
-0.49615478515625,0.9773101806640624,0.1401214599609375
-0.378265380859375,1.04022216796875,0.0301666259765625
-0.5782012939453125,0.8997039794921875,0.023834228515625
-0.7208404541015625,0.7584381103515625,0.196319580078125
-0.7754974365234375,0.8312530517578125,0.279571533203125
-0.8173065185546875,0.9719696044921876,0.15863037109375
-0.8526611328125,0.9705963134765624,-0.0108795166015625
-0.88995361328125,0.8798370361328125,-0.168914794921875
-0.824188232421875,0.774322509765625,-0.220123291015625
-0.7701568603515625,0.6904144287109375,-0.107177734375
-0.7686004638671875,0.664703369140625,-0.0458221435546875
-0.7824859619140625,0.6851806640625,-0.0366058349609375
-0.7655181884765625,0.7339935302734375,-0.08905029296875
-0.762451171875,0.7934112548828125,-0.1047515869140625
-0.75018310546875,0.821258544921875,-0.0697174072265625
-0.559600830078125,0.9721527099609376,-0.0572967529296875
-0.3430328369140625,1.070709228515625,-0.2054901123046875
-0.3007659912109375,1.0034332275390625,-0.2509002685546875
-0.317596435546875,0.9236907958984376,-0.15130615234375
-0.25732421875,0.9124298095703124,-0.1500091552734375
-0.249053955078125,0.9445648193359376,-0.2741241455078125
-0.26068115234375,0.867431640625,-0.380096435546875
-0.3022613525390625,0.8239593505859375,-0.3310089111328125
-0.3795318603515625,0.8379364013671875,-0.21820068359375
-0.5013275146484375,0.887664794921875,-0.237579345703125
-0.5859375,0.894134521484375,-0.3646392822265625
-0.6241302490234375,0.8697662353515625,-0.34332275390625
-0.6544342041015625,0.869842529296875,-0.26025390625
-0.6697998046875,0.890228271484375,-0.2203216552734375
-0.6972198486328125,0.9072113037109376,-0.2376251220703125
-0.7060699462890625,0.9408416748046876,-0.31048583984375
-0.70245361328125,0.968475341796875,-0.3214874267578125
-0.6843109130859375,0.9997406005859376,-0.2730560302734375
-0.633514404296875,0.9963531494140624,-0.2977142333984375
-0.5743408203125,0.978515625,-0.2970733642578125
-0.5068206787109375,0.938140869140625,-0.2449951171875
-0.4140625,0.8982696533203125,-0.235748291015625
-0.4152679443359375,0.8509521484375,-0.219146728515625
-0.3687744140625,0.80279541015625,-0.2085418701171875
-0.337371826171875,0.79779052734375,-0.1711883544921875
-0.342376708984375,0.8458251953125,-0.105316162109375
-0.2935638427734375,0.8817138671875,-0.03515625
-0.35198974609375,0.9122467041015624,-0.0329437255859375
-0.3572845458984375,0.945770263671875,0.014617919921875
-0.322967529296875,0.9512939453125,0.0438079833984375
-0.383636474609375,0.9694671630859376,0.0960540771484375
-0.49139404296875,1.0015411376953125,0.1062164306640625
-0.5776214599609375,1.00054931640625,0.063079833984375
-0.6497039794921875,0.956390380859375,0.04962158203125
-0.6844482421875,0.928802490234375,0.0726165771484375
-0.759033203125,0.8707122802734375,0.04473876953125
-0.7675933837890625,0.8694305419921875,0.0283050537109375
-0.786956787109375,0.881561279296875,-0.0173492431640625
-0.7576751708984375,0.8857269287109375,-0.1079254150390625
-0.7783966064453125,0.8654937744140625,-0.1716156005859375
-0.7724609375,0.847930908203125,-0.1712799072265625
-0.79412841796875,0.898040771484375,-0.118072509765625
-0.80218505859375,0.8649749755859375,-0.050689697265625
-0.8854522705078125,0.9651031494140624,-0.1266326904296875
-0.8704071044921875,1.14813232421875,-0.2057952880859375
-0.750762939453125,1.22735595703125,-0.300384521484375
-0.6348876953125,1.1986083984375,-0.3427276611328125
-0.535064697265625,1.130340576171875,-0.3139190673828125
-0.411102294921875,1.0503387451171875,-0.2919769287109375
-0.3188018798828125,0.9474639892578124,-0.2002716064453125
-0.274139404296875,0.8977203369140625,-0.1565399169921875
-0.2681427001953125,0.86614990234375,-0.0869903564453125
-0.3117218017578125,0.8853302001953125,-0.0308837890625
-0.2657470703125,0.8667144775390625,-0.0468292236328125
-0.34918212890625,0.824462890625,-0.080474853515625
-0.441192626953125,0.8860321044921875,0.029022216796875
-0.4133148193359375,0.874755859375,0.005615234375
-0.543212890625,0.94757080078125,-0.0097198486328125
-0.6653289794921875,1.0687103271484375,-0.0050506591796875
-0.69036865234375,1.0849761962890625,-0.0570526123046875
-0.673095703125,0.9285430908203124,-0.10107421875
-0.6857452392578125,0.82696533203125,-0.036468505859375
-0.7039947509765625,0.8251495361328125,0.001373291015625
-0.6865997314453125,0.8237457275390625,0.006500244140625
-0.70880126953125,0.788604736328125,0.0143280029296875
-0.7532501220703125,0.867828369140625,0.0189361572265625
-0.7829437255859375,0.9936370849609376,-0.10791015625
-0.794525146484375,0.9374847412109376,-0.2306060791015625
-0.84619140625,0.8133697509765625,-0.1755828857421875
-0.88592529296875,0.8533477783203125,0.003570556640625
-0.818450927734375,0.9775543212890624,0.008636474609375
-0.7300872802734375,0.918548583984375,-0.1294403076171875
-0.8003387451171875,0.9596099853515624,-0.188720703125
-0.757049560546875,1.1246185302734375,-0.1699981689453125
-0.6566162109375,1.18585205078125,-0.2115936279296875
-0.5908050537109375,1.1066436767578125,-0.2177581787109375
-0.5657196044921875,0.9822540283203124,-0.213226318359375
-0.482879638671875,0.9111785888671876,-0.1749267578125
-0.392120361328125,0.859832763671875,-0.088226318359375
-0.2925262451171875,0.824737548828125,-0.0478057861328125
-0.2437744140625,0.8251190185546875,-0.0416259765625
-0.2335662841796875,0.8409881591796875,-0.0451202392578125
-0.2251434326171875,0.8570556640625,-0.064422607421875
-0.3246002197265625,0.8063812255859375,-0.1129150390625
-0.489593505859375,0.852630615234375,0.06317138671875
-0.413238525390625,0.9678497314453124,-0.0366058349609375
-0.4397125244140625,0.965576171875,-0.118560791015625
-0.621795654296875,1.0588531494140625,0.0214691162109375
-0.734039306640625,1.1686248779296875,-0.0052642822265625
-0.8092041015625,1.101043701171875,-0.1413116455078125
-0.8560943603515625,0.901214599609375,-0.0776824951171875
-0.880950927734375,0.81005859375,-0.0087432861328125
-0.8213348388671875,0.75592041015625,0.0502471923828125
-0.71539306640625,0.7529754638671875,0.0284271240234375
-0.65008544921875,0.79278564453125,-0.024810791015625
-0.6759796142578125,0.8477935791015625,-0.0327301025390625
-0.7357330322265625,0.8717498779296875,-0.1091156005859375
-0.7633514404296875,0.8314056396484375,-0.1321563720703125
-0.788055419921875,0.8031768798828125,-0.239654541015625
-0.8152923583984375,0.9504241943359376,-0.2755584716796875
-0.64404296875,1.0886993408203125,-0.311065673828125
-0.599853515625,1.0178070068359375,-0.3753509521484375
-0.6812744140625,1.045867919921875,-0.4324798583984375
-0.667022705078125,1.2371673583984375,-0.2697906494140625
-0.5468902587890625,1.18109130859375,-0.2742767333984375
-0.546783447265625,1.0181884765625,-0.3931732177734375
-0.4624176025390625,0.97747802734375,-0.320068359375
-0.358551025390625,0.9408416748046876,-0.1688690185546875
-0.2589111328125,0.8677520751953125,-0.0662078857421875
-0.2473907470703125,0.868743896484375,-0.059051513671875
-0.2416534423828125,0.9364776611328124,-0.0894775390625
-0.2592315673828125,0.951690673828125,-0.06793212890625
-0.240570068359375,0.923797607421875,-0.028533935546875
-0.343719482421875,0.8738861083984375,-0.0032196044921875
-0.4781646728515625,0.9312591552734376,0.0846405029296875
-0.3383026123046875,0.916778564453125,-0.0303192138671875
-0.4356231689453125,0.9713134765625,-0.1722869873046875
-0.5338592529296875,1.102386474609375,-0.081298828125
-0.613189697265625,1.1849212646484375,-0.0445556640625
-0.6496734619140625,1.0434112548828125,-0.0948028564453125
-0.6894989013671875,0.877105712890625,-0.088714599609375
-0.6910552978515625,0.813385009765625,-0.0134735107421875
-0.697235107421875,0.82696533203125,-0.02569580078125
-0.7047271728515625,0.84649658203125,-0.1126708984375
-0.7115325927734375,0.8532257080078125,-0.109466552734375
-0.74749755859375,0.8837890625,-0.1033935546875
-0.706298828125,0.9672393798828124,-0.1320953369140625
-0.592529296875,0.953704833984375,-0.194732666015625
-0.5857086181640625,0.9587860107421876,-0.240631103515625
-0.6642303466796875,1.1294097900390625,-0.17718505859375
-0.639862060546875,1.0189971923828125,-0.093841552734375
-0.83782958984375,0.9413604736328124,-0.133758544921875
-0.863311767578125,1.0133819580078125,-0.1001434326171875
-0.803680419921875,1.1835784912109375,-0.1380767822265625
-0.67132568359375,1.2386016845703125,-0.2431488037109375
-0.5724945068359375,1.1817779541015625,-0.2873077392578125
-0.44921875,1.0975341796875,-0.228302001953125
-0.290008544921875,0.987060546875,-0.1957855224609375
-0.1936187744140625,0.864532470703125,-0.18463134765625
-0.199005126953125,0.8064727783203125,-0.12005615234375
-0.1840667724609375,0.8446502685546875,-0.1021728515625
-0.182403564453125,0.8535614013671875,-0.115142822265625
-0.294647216796875,0.78741455078125,-0.1402587890625
-0.401947021484375,0.9279327392578124,-0.0221099853515625
-0.270477294921875,0.967254638671875,-0.1453399658203125
-0.44549560546875,1.020477294921875,-0.1617584228515625
-0.659820556640625,1.163818359375,-0.0824127197265625
-0.692779541015625,1.1295928955078125,-0.043670654296875
-0.7111663818359375,0.9463958740234376,-0.0422821044921875
-0.751068115234375,0.8499603271484375,-0.027862548828125
-0.780517578125,0.865631103515625,0.00439453125
-0.7165374755859375,0.847412109375,-0.0489959716796875
-0.694122314453125,0.795989990234375,-0.128997802734375
-0.734771728515625,0.855133056640625,-0.1207733154296875
-0.7481536865234375,0.93621826171875,-0.0435791015625
-0.7304840087890625,0.91241455078125,-0.1002044677734375
-0.7284088134765625,0.8545684814453125,-0.1937103271484375
-0.785247802734375,1.0008544921875,-0.2169189453125
-0.6920013427734375,1.0044708251953125,-0.167144775390625
-0.725128173828125,0.94476318359375,-0.200653076171875
-0.8067474365234375,1.0137481689453125,-0.2245635986328125
-0.7838897705078125,1.1039581298828125,-0.179779052734375
-0.7004852294921875,1.165435791015625,-0.186065673828125
-0.5922088623046875,1.1465606689453125,-0.1864166259765625
-0.514739990234375,1.0950469970703125,-0.19232177734375
-0.390045166015625,1.0230255126953125,-0.107086181640625
-0.268402099609375,0.8912353515625,-0.030242919921875
-0.237396240234375,0.8032684326171875,-4.57763671875e-05
-0.202484130859375,0.796295166015625,-0.0096588134765625
-0.149810791015625,0.7790985107421875,-0.0097198486328125
-0.1396026611328125,0.7650909423828125,-0.063720703125
-0.2107391357421875,0.7769317626953125,-0.1693267822265625
-0.382476806640625,0.9498748779296876,-0.04949951171875
-0.31268310546875,1.0312042236328125,-0.14190673828125
-0.545318603515625,1.164031982421875,-0.2953338623046875
-0.75347900390625,1.3414154052734375,-0.331024169921875
-0.7884368896484375,1.2226715087890625,-0.3984832763671875
-0.852081298828125,0.9320220947265624,-0.391265869140625
-0.88775634765625,0.8022003173828125,-0.22943115234375
-0.7808685302734375,0.843292236328125,0.0031890869140625
-0.636199951171875,0.8750457763671875,0.0273590087890625
-0.5706329345703125,0.8234100341796875,-0.05181884765625
-0.6444854736328125,0.8383331298828125,-0.184722900390625
-0.75970458984375,0.9061279296875,-0.236907958984375
-0.7957611083984375,0.908599853515625,-0.2279815673828125
-0.828033447265625,0.832794189453125,-0.222503662109375
-0.8257293701171875,0.818328857421875,-0.17340087890625
-0.7722625732421875,0.9730224609375,-0.17523193359375
-0.7223663330078125,1.086151123046875,-0.2637786865234375
-0.764617919921875,1.1039886474609375,-0.343963623046875
-0.7972564697265625,1.0904693603515625,-0.32647705078125
-0.723724365234375,1.046783447265625,-0.340789794921875
-0.642913818359375,1.0003509521484375,-0.366607666015625
-0.59173583984375,1.0407257080078125,-0.3681640625
-0.4978790283203125,1.1529693603515625,-0.3932037353515625
-0.3666534423828125,1.1568450927734375,-0.36480712890625
-0.33740234375,1.10723876953125,-0.3872222900390625
-0.336944580078125,1.0430145263671875,-0.40020751953125
-0.2989501953125,0.990570068359375,-0.2744293212890625
-0.217529296875,0.8828277587890625,-0.144500732421875
-0.1941375732421875,0.73974609375,-0.059783935546875
-0.26324462890625,0.757110595703125,0.076171875
-0.1865081787109375,0.7223663330078125,0.0769500732421875
-0.3589324951171875,0.8404083251953125,0.0410919189453125
-0.5357666015625,1.108306884765625,0.0897064208984375
-0.639373779296875,1.254852294921875,0.059539794921875
-0.76422119140625,1.1256561279296875,0.06903076171875
-0.7994537353515625,1.0494232177734375,0.1471099853515625
-0.803375244140625,1.066131591796875,0.11102294921875
-0.8062591552734375,0.969482421875,0.0584716796875
-0.8316497802734375,0.8817901611328125,0.017333984375
-0.8432769775390625,0.8866424560546875,-0.00140380859375
-0.738128662109375,0.967376708984375,-0.05377197265625
-0.62042236328125,0.9433135986328124,-0.212005615234375
-0.6188812255859375,0.8398284912109375,-0.26324462890625
-0.8002471923828125,0.92291259765625,-0.202484130859375
-0.8202056884765625,0.926422119140625,-0.0854339599609375
-0.9400482177734376,0.9351348876953124,-0.0657806396484375
-1.00494384765625,1.118621826171875,-0.1976165771484375
-0.887969970703125,1.26556396484375,-0.2549896240234375
-0.7783355712890625,1.340362548828125,-0.34576416015625
-0.6785125732421875,1.3724517822265625,-0.3675384521484375
-0.5573577880859375,1.322296142578125,-0.290985107421875
-0.3898468017578125,1.2103271484375,-0.18572998046875
-0.2719573974609375,1.0367279052734375,-0.1390838623046875
-0.2420196533203125,0.9249267578125,-0.1220855712890625
-0.2176055908203125,0.8551788330078125,-0.0914306640625
-0.1192626953125,0.796661376953125,-0.04888916015625
-0.082427978515625,0.697662353515625,-0.07666015625
-0.227447509765625,0.79522705078125,0.024658203125
-0.1253509521484375,0.9022979736328124,0.02490234375
-0.3669586181640625,0.9990692138671876,-0.037750244140625
-0.605316162109375,1.2140045166015625,0.02801513671875
-0.7217254638671875,1.4328155517578125,-0.0677032470703125
-0.7660675048828125,1.3082733154296875,-0.180450439453125
-0.847625732421875,1.139923095703125,-0.200439453125
-0.8805389404296875,1.051513671875,-0.1463775634765625
-0.857025146484375,1.0007476806640625,-0.1245574951171875
-0.788848876953125,0.8851165771484375,-0.1397247314453125
-0.759368896484375,0.8069000244140625,-0.15032958984375
-0.7511749267578125,0.8480987548828125,-0.0911865234375
-0.681304931640625,0.8651275634765625,-0.06756591796875
-0.6524658203125,0.813751220703125,-0.188262939453125
-0.7583770751953125,0.87664794921875,-0.2553253173828125
-0.7603759765625,0.9587554931640624,-0.209869384765625
-0.72979736328125,0.914215087890625,-0.184906005859375
-0.82818603515625,0.97222900390625,-0.1510009765625
-0.8560638427734375,1.143951416015625,-0.1324462890625
-0.793243408203125,1.276611328125,-0.211578369140625
-0.692169189453125,1.2949981689453125,-0.3338470458984375
-0.6119842529296875,1.23388671875,-0.34051513671875
-0.518218994140625,1.1488494873046875,-0.25543212890625
-0.363555908203125,1.0348968505859375,-0.2070770263671875
-0.2553253173828125,0.87615966796875,-0.17083740234375
-0.2606353759765625,0.799713134765625,-0.106170654296875
-0.266876220703125,0.82916259765625,-0.0568389892578125
-0.2349700927734375,0.829376220703125,-0.04327392578125
-0.324676513671875,0.7835540771484375,-0.0412750244140625
-0.4621429443359375,0.814910888671875,0.0037078857421875
-0.4580078125,0.8808135986328125,-0.06915283203125
-0.4071807861328125,0.88311767578125,-0.1182098388671875
-0.47296142578125,0.8545379638671875,-0.077545166015625
-0.607208251953125,1.00274658203125,-0.0382537841796875
-0.703338623046875,1.1163177490234375,0.024658203125
-0.7870330810546875,1.058624267578125,0.10931396484375
-0.886199951171875,0.9762725830078124,0.0405731201171875
-0.86297607421875,0.875640869140625,0.0323486328125
-0.77642822265625,0.786346435546875,0.046478271484375
-0.7400665283203125,0.7666168212890625,0.0605926513671875
-0.707794189453125,0.7753448486328125,0.0563507080078125
-0.641448974609375,0.7980194091796875,-0.0147247314453125
-0.601104736328125,0.8072052001953125,-0.1067962646484375
-0.5733184814453125,0.7973785400390625,-0.068756103515625
-0.57568359375,0.89910888671875,-0.0499725341796875
-0.5224456787109375,1.01324462890625,-0.125396728515625
-0.475372314453125,0.95660400390625,-0.1950836181640625
-0.498504638671875,0.8868865966796875,-0.1370697021484375
-0.4918365478515625,0.928985595703125,-0.1553497314453125
-0.365447998046875,0.9678955078125,-0.2773895263671875
-0.265777587890625,0.991119384765625,-0.46209716796875
-0.1721649169921875,0.958587646484375,-0.598358154296875
-0.17266845703125,0.9647216796875,-0.542510986328125
-0.2185821533203125,0.9805145263671876,-0.5496368408203125
-0.2355194091796875,0.9510040283203124,-0.579345703125
-0.28106689453125,0.9387664794921876,-0.51171875
-0.363800048828125,0.8768310546875,-0.4942779541015625
-0.3359375,0.8757781982421875,-0.4275360107421875
-0.3412322998046875,0.939849853515625,-0.3155059814453125
-0.3569488525390625,0.9851837158203124,-0.4319000244140625
-0.26763916015625,1.10003662109375,-0.289886474609375
-0.25323486328125,1.12188720703125,-0.3011322021484375
-0.302001953125,1.08209228515625,-0.3082275390625
-0.3199920654296875,1.103057861328125,-0.205810546875
-0.223541259765625,1.177490234375,-0.1827392578125
0.189208984375,1.2603607177734375,-0.1054229736328125
0.52105712890625,1.1098785400390625,-0.12896728515625
0.29656982421875,1.049652099609375,-0.2078857421875
0.0229949951171875,1.02496337890625,-0.011993408203125
-0.0299224853515625,1.1320343017578125,0.1171112060546875
0.0201416015625,1.1236419677734375,0.0447845458984375
-0.1720428466796875,1.04345703125,0.1807403564453125
-0.325592041015625,0.9627685546875,0.3265838623046875
-0.35797119140625,0.9870758056640624,0.399444580078125
-0.530975341796875,0.9483184814453124,0.4035186767578125
-0.6802520751953125,0.817291259765625,0.420257568359375
-0.78515625,0.7671356201171875,0.363983154296875
-0.8480072021484375,0.7548370361328125,0.26068115234375
-0.8255615234375,0.74737548828125,0.1638641357421875
-0.777313232421875,0.761474609375,0.033233642578125
-0.862060546875,0.94329833984375,-0.0276031494140625
-0.74847412109375,0.9854736328125,-0.089385986328125
-0.7321319580078125,0.92327880859375,-0.078521728515625
-0.8565826416015625,1.1168365478515625,-0.18463134765625
-0.7757720947265625,1.3673248291015625,-0.17181396484375
-0.6580810546875,1.43994140625,-0.3093414306640625
-0.5238800048828125,1.3119964599609375,-0.386962890625
-0.5432891845703125,1.32440185546875,-0.3640899658203125
-0.3447265625,1.1817474365234375,-0.2993621826171875
-0.205596923828125,1.0323944091796875,-0.2035980224609375
-0.1979522705078125,0.9276275634765624,-0.1768035888671875
-0.257049560546875,0.8962860107421875,-0.0771331787109375
-0.201812744140625,0.9546966552734376,-0.0418243408203125
-0.1472930908203125,0.949981689453125,-0.08624267578125
-0.1863250732421875,0.80352783203125,-0.0891265869140625
-0.2754058837890625,0.8466033935546875,0.1159820556640625
-0.1826324462890625,0.8997955322265625,0.2022552490234375
-0.35711669921875,0.9809722900390624,0.15155029296875
-0.4327850341796875,1.1280364990234375,0.138336181640625
-0.5187225341796875,1.192413330078125,0.0455322265625
-0.62115478515625,1.1281890869140625,-0.0374603271484375
-0.660491943359375,1.0553436279296875,-0.030792236328125
-0.675994873046875,1.0170440673828125,-0.0275115966796875
-0.70135498046875,0.9488525390625,-0.05755615234375
-0.7311859130859375,0.86187744140625,-0.073150634765625
-0.7891082763671875,0.89630126953125,-0.0510101318359375
-0.797637939453125,0.9835052490234376,-0.0260772705078125
-0.719085693359375,0.980560302734375,-0.092803955078125
-0.6728057861328125,0.8792266845703125,-0.1662445068359375
-0.8056182861328125,0.9818267822265624,-0.1683197021484375
-0.786224365234375,1.0288848876953125,-0.11102294921875
-0.7900390625,0.8963470458984375,-0.111968994140625
-0.8109893798828125,0.9107513427734376,-0.072296142578125
-0.7427520751953125,1.0396270751953125,-0.0114288330078125
-0.628326416015625,1.1757965087890625,-0.080841064453125
-0.5377197265625,1.1587371826171875,-0.213287353515625
-0.4811553955078125,1.1200714111328125,-0.210357666015625
-0.424041748046875,1.0635528564453125,-0.1246795654296875
-0.3307647705078125,0.9885406494140624,0.0078277587890625
-0.261505126953125,0.9206695556640624,-0.066925048828125
-0.20819091796875,0.912567138671875,-0.1103668212890625
-0.1497344970703125,0.9652099609375,-0.0991058349609375
-0.1217803955078125,0.9254150390625,-0.092010498046875
-0.3426055908203125,0.85540771484375,-0.018768310546875
-0.296661376953125,0.9358062744140624,0.041229248046875
-0.3214569091796875,0.931915283203125,-0.065460205078125
-0.4927520751953125,0.9786529541015624,0.0301971435546875
-0.6176910400390625,1.2059478759765625,0.022857666015625
-0.640716552734375,1.2068939208984375,-0.18017578125
-0.640380859375,0.92254638671875,-0.2289581298828125
-0.7745819091796875,0.7897186279296875,-0.141693115234375
-0.8309326171875,0.719085693359375,0.0989532470703125
-0.8009490966796875,0.6782379150390625,0.0215911865234375
-0.7719573974609375,0.6662750244140625,-0.13568115234375
-0.8464202880859375,0.7399749755859375,-0.143035888671875
-0.8927764892578125,0.8734283447265625,-0.117095947265625
-0.8438568115234375,1.016357421875,-0.184783935546875
-0.7497406005859375,1.0034942626953125,-0.1328582763671875
-0.731903076171875,1.0378265380859375,-0.02984619140625
-0.673431396484375,1.06585693359375,0.0441741943359375
-0.5363311767578125,1.002044677734375,-0.068206787109375
-0.5104217529296875,0.847381591796875,-0.0902557373046875
-0.5994720458984375,0.976776123046875,-0.06494140625
-0.5588226318359375,1.0959320068359375,-0.097869873046875
-0.4761505126953125,0.9799957275390624,-0.149993896484375
-0.48126220703125,0.850616455078125,-0.1239776611328125
-0.4467926025390625,0.7801055908203125,-0.0509490966796875
-0.33935546875,0.7475738525390625,0.0284271240234375
-0.3358612060546875,0.7113037109375,0.016326904296875
-0.3916168212890625,0.7343597412109375,-0.013519287109375
-0.4480438232421875,0.7578582763671875,0.01104736328125
-0.629547119140625,0.844085693359375,-0.038177490234375
-0.6480712890625,0.884765625,-0.12445068359375
-0.5746917724609375,0.769500732421875,-0.266693115234375
-0.5954742431640625,0.786895751953125,-0.404052734375
-0.39495849609375,0.829986572265625,-0.395294189453125
-0.5154571533203125,0.9212188720703124,-0.3131103515625
-0.66583251953125,0.899688720703125,-0.1826171875
-0.66461181640625,0.8131103515625,-0.2755279541015625
-0.5929412841796875,0.7122650146484375,-0.4178924560546875
-0.5771026611328125,0.64544677734375,-0.3356475830078125
-0.6570281982421875,0.6981048583984375,-0.156524658203125
-0.6908721923828125,0.7680816650390625,-0.0709686279296875
-0.686492919921875,0.798095703125,-0.0206146240234375
-0.795135498046875,0.838836669921875,-0.0479736328125
-0.8724517822265625,0.9257659912109376,-0.1557769775390625
-0.808441162109375,0.9304962158203124,-0.2900390625
-0.733245849609375,0.9117584228515624,-0.4312591552734375
-0.711639404296875,1.076934814453125,-0.3936614990234375
-0.5657958984375,1.049713134765625,-0.261749267578125
-0.5730438232421875,0.882568359375,-0.31622314453125
-0.6266326904296875,0.93121337890625,-0.3307342529296875
-0.618255615234375,1.0084686279296875,-0.21917724609375
-0.5946807861328125,0.9019927978515624,-0.2295684814453125
-0.5819549560546875,0.833221435546875,-0.269744873046875
-0.5070648193359375,0.83685302734375,-0.21307373046875
-0.4535064697265625,0.8001708984375,-0.0948944091796875
-0.36151123046875,0.7098236083984375,-0.011260986328125
-0.3502197265625,0.7857818603515625,0.017974853515625
-0.311553955078125,0.923583984375,-0.033203125
-0.29156494140625,1.04071044921875,-0.1171875
-0.282928466796875,0.982025146484375,-0.189422607421875
-0.361572265625,1.0031280517578125,-0.20111083984375
-0.2647552490234375,0.9389801025390624,-0.148590087890625
-0.41162109375,0.8169403076171875,0.033447265625
-0.5588836669921875,0.9853668212890624,0.2057952880859375
-0.486419677734375,1.2298431396484375,-0.068756103515625
-0.5360565185546875,1.13983154296875,-0.2872772216796875
-0.74298095703125,0.9533843994140624,-0.2177581787109375
-0.804656982421875,0.85723876953125,-0.0756683349609375
-0.76409912109375,0.7843475341796875,0.0296630859375
-0.772674560546875,0.65570068359375,0.06219482421875
-0.798492431640625,0.69061279296875,0.09814453125
-0.8261260986328125,0.9667205810546876,0.0538330078125
-0.767120361328125,1.0630950927734375,-0.0382080078125
-0.7182159423828125,0.967926025390625,-0.1209716796875
-0.6763153076171875,0.8587493896484375,-0.1046905517578125
-0.65966796875,0.9579010009765624,-0.0594329833984375
-0.5889892578125,1.0377349853515625,-0.079864501953125
-0.5954132080078125,0.977447509765625,-0.0915679931640625
-0.7056427001953125,1.0101165771484375,-0.178924560546875
-0.7160186767578125,1.098724365234375,-0.192962646484375
-0.6339111328125,1.0523834228515625,-0.2390289306640625
-0.5851898193359375,0.9587554931640624,-0.262359619140625
-0.514495849609375,0.9239044189453124,-0.24652099609375
-0.4065399169921875,0.9685821533203124,-0.1474609375
-0.3004913330078125,0.9454498291015624,-0.0764312744140625
-0.26263427734375,0.895843505859375,-0.02618408203125
-0.2316131591796875,0.8989410400390625,-0.0447235107421875
-0.1601104736328125,0.900177001953125,-0.0697021484375
-0.1507568359375,0.8567962646484375,-0.071563720703125
-0.350830078125,0.877227783203125,0.007568359375
-0.33514404296875,0.9696502685546876,0.0574188232421875
-0.355224609375,0.882598876953125,-0.0966339111328125
-0.5536651611328125,0.924591064453125,-0.0269317626953125
-0.638275146484375,1.1362152099609375,0.0205535888671875
-0.7171783447265625,1.119384765625,-0.0008697509765625
-0.7410888671875,0.8730010986328125,-0.096923828125
-0.7498321533203125,0.7291412353515625,-0.172607421875
-0.7616119384765625,0.706085205078125,-0.147705078125
-0.81646728515625,0.6953887939453125,-0.0089569091796875
-0.8614501953125,0.7410888671875,-0.0007781982421875
-0.843536376953125,0.90899658203125,-0.0602264404296875
-0.7943115234375,1.0323486328125,-0.20050048828125
-0.7563629150390625,1.0126800537109375,-0.2483978271484375
-0.82794189453125,1.018402099609375,-0.1162872314453125
-0.80133056640625,1.0657958984375,-0.01776123046875
-0.729522705078125,0.9911346435546876,-0.127044677734375
-0.8137054443359375,1.1388702392578125,-0.1358184814453125
-0.7328338623046875,1.2781219482421875,-0.0572967529296875
-0.526947021484375,1.233428955078125,-0.0774078369140625
-0.442962646484375,1.0709991455078125,-0.1309051513671875
-0.3694610595703125,0.93914794921875,-0.0943145751953125
-0.261962890625,0.839111328125,0.060760498046875
-0.160003662109375,0.7373046875,0.0633697509765625
-0.1637420654296875,0.6623077392578125,0.0604248046875
-0.1845855712890625,0.693939208984375,0.080718994140625
-0.1758880615234375,0.7640838623046875,0.0107421875
-0.267578125,0.8308563232421875,-0.065032958984375
-0.3927154541015625,0.92718505859375,-0.076416015625
-0.509674072265625,1.127105712890625,-0.1096649169921875
-0.468780517578125,1.323638916015625,-0.2359619140625
-0.5859222412109375,1.341766357421875,-0.396453857421875
-0.812744140625,1.3563995361328125,-0.4217529296875
-0.8934783935546875,1.2181549072265625,-0.3924407958984375
-0.855987548828125,0.9247589111328124,-0.3761749267578125
-0.7931671142578125,0.7071533203125,-0.2881622314453125
-0.7346954345703125,0.7218780517578125,-0.1016998291015625
-0.588775634765625,0.8269195556640625,0.079437255859375
-0.382659912109375,0.8441925048828125,0.126434326171875
-0.3549652099609375,0.8536224365234375,-0.022796630859375
-0.5120086669921875,0.9737548828125,-0.2328948974609375
-0.6377716064453125,0.99554443359375,-0.3194122314453125
-0.841583251953125,0.896087646484375,-0.273651123046875
-1.0354156494140625,0.887115478515625,-0.180145263671875
-0.9346466064453124,0.9597930908203124,-0.04119873046875
-0.771942138671875,0.951446533203125,-0.0379180908203125
-0.7262725830078125,1.0615081787109375,-0.11383056640625
-0.683349609375,1.2199249267578125,-0.1649322509765625
-0.639678955078125,1.31500244140625,-0.25067138671875
-0.6201171875,1.2879791259765625,-0.28399658203125
-0.6324920654296875,1.247802734375,-0.2531585693359375
-0.571624755859375,1.222991943359375,-0.2368011474609375
-0.4442901611328125,1.157928466796875,-0.2007904052734375
-0.343841552734375,1.0552520751953125,-0.1668243408203125
-0.2615203857421875,0.945831298828125,-0.15155029296875
-0.169189453125,0.8155059814453125,-0.1282806396484375
-0.15960693359375,0.761993408203125,-0.081268310546875
-0.097503662109375,0.77099609375,0.0077362060546875
-0.135223388671875,0.6654510498046875,-0.0265655517578125
-0.3125457763671875,0.6945037841796875,-0.0500030517578125
-0.4518585205078125,0.9097747802734376,-0.0167999267578125
-0.5092315673828125,1.2222137451171875,0.05511474609375
-0.650146484375,1.2857818603515625,0.0147552490234375
-0.84173583984375,1.14453125,0.0345458984375
-0.8733062744140625,1.0636138916015625,0.08453369140625
-0.84954833984375,0.9698638916015624,0.0828094482421875
-0.789825439453125,0.90447998046875,0.0775299072265625
-0.7295684814453125,0.918792724609375,0.067352294921875
-0.6361236572265625,0.8727569580078125,0.0228118896484375
-0.5798797607421875,0.7734375,0.0655517578125
-0.53277587890625,0.6001434326171875,0.1222381591796875
-0.4544830322265625,0.3408050537109375,0.164398193359375
-0.44207763671875,0.1226348876953125,0.1655731201171875
-0.4846954345703125,0.0877685546875,0.1064453125
-0.5452880859375,0.271087646484375,-0.0670623779296875
-0.65142822265625,0.6920318603515625,-0.22479248046875
-1.29644775390625,1.051544189453125,-0.1717681884765625
-1.393829345703125,1.629791259765625,-0.3528594970703125
-0.753204345703125,2.216903686523437,-0.7234039306640625
-0.213958740234375,1.8018798828125,-0.5338592529296875
-0.27691650390625,1.0898590087890625,-0.371185302734375
-0.6422882080078125,0.7756195068359375,-0.38311767578125
-0.773834228515625,0.683990478515625,-0.414154052734375
-0.946746826171875,0.628753662109375,-0.5562591552734375
-0.8171844482421875,0.7671966552734375,-0.6297454833984375
-1.0292816162109375,0.7933807373046875,-0.527740478515625
-1.0687255859375,0.715484619140625,-0.2908935546875
-0.9969635009765624,0.7648773193359375,-0.3603668212890625
-1.057037353515625,0.71014404296875,-0.1926116943359375
-1.16082763671875,0.62432861328125,-0.14031982421875
-1.04974365234375,0.577484130859375,-0.1132354736328125
-0.8450775146484375,0.56817626953125,-0.273529052734375
-0.7968597412109375,0.6141357421875,-0.38787841796875
-0.772796630859375,0.5960693359375,-0.2658843994140625
-0.66546630859375,0.5710601806640625,-0.3397674560546875
-0.638458251953125,0.4629974365234375,-0.4319000244140625
-0.6292572021484375,0.384521484375,-0.7792816162109375
-0.71282958984375,0.2809295654296875,-0.663970947265625
-0.795013427734375,0.2740020751953125,-0.4789886474609375
-0.7166748046875,0.303955078125,-0.671600341796875
-0.55206298828125,0.1569366455078125,-1.0388946533203125
-0.4835968017578125,0.052642822265625,-0.959442138671875
-0.52093505859375,-0.1096343994140625,-0.7921600341796875
-0.4091339111328125,-0.095245361328125,-0.60931396484375
-0.195526123046875,-0.2400360107421875,-0.4871978759765625
-0.113494873046875,-0.4218902587890625,-0.6561737060546875
-0.4297943115234375,-0.5158538818359375,-0.7209625244140625
-0.234954833984375,-0.5710296630859375,-0.5698394775390625
0.0200347900390625,-0.7177581787109375,-0.43359375
-0.0554046630859375,-0.7910308837890625,-0.7475128173828125
-0.02606201171875,-0.748138427734375,-0.9182586669921876
0.23944091796875,-0.6315765380859375,-0.9414825439453124
0.1927947998046875,-0.5902557373046875,-0.84307861328125
0.0111541748046875,-0.592926025390625,-0.9303741455078124
0.08026123046875,-0.525543212890625,-0.8653411865234375
0.164459228515625,-0.4735565185546875,-0.856231689453125
0.0362396240234375,-0.519012451171875,-0.7647857666015625
-0.002197265625,-0.5613861083984375,-0.860504150390625
0.0747528076171875,-0.51458740234375,-0.8980560302734375
