AccelerationX,AccelerationY,AccelerationZ
-0.4937744140625,0.5229949951171875,-0.6549835205078125
-0.5450897216796875,0.5107421875,-0.542388916015625
-0.61016845703125,0.558013916015625,-0.6171875
-0.5352630615234375,0.545806884765625,-0.5913238525390625
-0.5583343505859375,0.5299835205078125,-0.5498046875
-0.5516357421875,0.534027099609375,-0.5771636962890625
-0.5422821044921875,0.53631591796875,-0.5902252197265625
-0.542724609375,0.5554656982421875,-0.6565399169921875
-0.5715484619140625,0.5664520263671875,-0.688079833984375
-0.6030731201171875,0.552734375,-0.591766357421875
-0.6218414306640625,0.58209228515625,-0.5970611572265625
-0.569549560546875,0.5971221923828125,-0.5926055908203125
-0.5431671142578125,0.5625,-0.6174468994140625
-0.49346923828125,0.503265380859375,-0.417755126953125
-0.4853973388671875,0.535919189453125,-0.3087921142578125
-0.583526611328125,0.66778564453125,-0.6014556884765625
-0.5691680908203125,0.6360015869140625,-0.4535980224609375
-0.6528167724609375,0.576568603515625,-0.08917236328125
-0.7583770751953125,0.6517486572265625,-0.2085113525390625
-0.7620391845703125,0.6941680908203125,-0.3545684814453125
-0.7898406982421875,0.709442138671875,-0.18109130859375
-0.873504638671875,0.698974609375,0.0150146484375
-0.875885009765625,0.7260894775390625,-0.0540771484375
-0.9129486083984376,0.738983154296875,-0.0850982666015625
-0.8897247314453125,0.7807464599609375,-0.1417694091796875
-0.9035186767578124,0.8478240966796875,-0.1005859375
-0.889892578125,0.862548828125,-0.0205841064453125
-0.7921142578125,0.6685333251953125,0.0751800537109375
-0.7837677001953125,0.7092132568359375,0.0534210205078125
-0.7974700927734375,0.851318359375,-0.0460968017578125
-0.703704833984375,0.8148956298828125,0.00421142578125
-0.5858917236328125,0.7259674072265625,0.1251983642578125
-0.661956787109375,0.661773681640625,-0.045684814453125
-0.632781982421875,0.7370147705078125,-0.0989227294921875
-0.5821685791015625,0.7401275634765625,0.0042724609375
-0.5441741943359375,0.735107421875,0.045654296875
-0.54833984375,0.7695465087890625,0.0583953857421875
-0.5674591064453125,0.871124267578125,0.0822906494140625
-0.5568695068359375,0.923919677734375,0.0285491943359375
-0.685333251953125,0.9498291015625,-0.103240966796875
-0.622955322265625,0.9857635498046876,0.0570068359375
-0.502105712890625,0.9145660400390624,0.003204345703125
-0.405029296875,0.6855621337890625,0.027557373046875
-0.5522308349609375,0.7689361572265625,0.10552978515625
-0.5781402587890625,0.881134033203125,0.076934814453125
-0.565582275390625,0.82574462890625,0.015045166015625
-0.5713653564453125,0.663909912109375,-0.0233917236328125
-0.613739013671875,0.637603759765625,0.0304412841796875
-0.6381072998046875,0.70928955078125,0.04302978515625
-0.6806640625,0.7171783447265625,0.0278167724609375
-0.7386474609375,0.6795196533203125,0.0295257568359375
-0.8238677978515625,0.7313232421875,-0.047210693359375
-0.8864593505859375,0.8077239990234375,-0.0928802490234375
-0.8860015869140625,0.8163909912109375,-0.1421356201171875
-0.824432373046875,0.7770233154296875,-0.1645050048828125
-0.855682373046875,0.955810546875,-0.11639404296875
-0.8179931640625,1.1000518798828125,-0.1324462890625
-0.6431884765625,0.8525390625,-0.145263671875
-0.6919097900390625,0.805572509765625,-0.1678466796875
-0.6721954345703125,0.941925048828125,-0.124176025390625
-0.513702392578125,0.9448394775390624,-0.120391845703125
-0.4920196533203125,0.7971343994140625,-0.068939208984375
-0.5549774169921875,0.7056427001953125,-0.0636444091796875
-0.509246826171875,0.6974029541015625,-0.04461669921875
-0.4558258056640625,0.7118072509765625,-0.02593994140625
-0.4123687744140625,0.7035064697265625,-0.01129150390625
-0.4248504638671875,0.7331390380859375,-0.0121307373046875
-0.4511566162109375,0.8430328369140625,-0.03179931640625
-0.4521026611328125,0.9329376220703124,-0.072906494140625
-0.5186004638671875,0.868133544921875,-0.08209228515625
-0.7324676513671875,0.9853973388671876,-0.0298614501953125
-0.70513916015625,0.9609375,-0.0814361572265625
-0.6386566162109375,0.769012451171875,-0.1392364501953125
-0.779296875,0.74383544921875,-0.1221771240234375
-0.8787841796875,0.8494110107421875,-0.08172607421875
-0.8648529052734375,0.7208251953125,-0.0992431640625
-0.8557891845703125,0.5826416015625,-0.107452392578125
-0.8431854248046875,0.553009033203125,-0.0914459228515625
-0.7967681884765625,0.6174468994140625,-0.0354156494140625
-0.71856689453125,0.689056396484375,-0.012451171875
-0.657928466796875,0.71978759765625,-0.0904693603515625
-0.6911468505859375,0.7975006103515625,-0.186248779296875
-0.7431793212890625,0.87066650390625,-0.205413818359375
-0.7740325927734375,0.879150390625,-0.24102783203125
-0.7498016357421875,0.8335113525390625,-0.2718353271484375
-0.79901123046875,0.9847564697265624,-0.320343017578125
-0.7436676025390625,1.075927734375,-0.346099853515625
-0.5880889892578125,0.80145263671875,-0.25677490234375
-0.662384033203125,0.693145751953125,-0.201568603515625
-0.6743927001953125,0.7872314453125,-0.1585693359375
-0.524444580078125,0.7952728271484375,-0.1529693603515625
-0.4237823486328125,0.668243408203125,-0.1712646484375
-0.4882659912109375,0.65399169921875,-0.2243499755859375
-0.49005126953125,0.7096405029296875,-0.1962890625
-0.4714813232421875,0.74993896484375,-0.118560791015625
-0.4694976806640625,0.7962799072265625,-0.1161956787109375
-0.54754638671875,0.9038238525390624,-0.137786865234375
-0.5549163818359375,0.9358367919921876,-0.117431640625
-0.5323638916015625,0.8170623779296875,-0.108642578125
-0.6747283935546875,0.87933349609375,-0.0493621826171875
-0.6041107177734375,0.99688720703125,-0.0203704833984375
-0.580657958984375,0.7760009765625,-0.066253662109375
-0.753082275390625,0.738128662109375,0.065460205078125
-0.7578582763671875,0.74713134765625,0.16571044921875
-0.698089599609375,0.68951416015625,0.1022186279296875
-0.60235595703125,0.628265380859375,0.007568359375
-0.56903076171875,0.6634979248046875,-0.09991455078125
-0.5710296630859375,0.745819091796875,-0.1275634765625
-0.6005859375,0.74725341796875,-0.066009521484375
-0.67730712890625,0.730712890625,0.004547119140625
-0.76519775390625,0.7758636474609375,0.005706787109375
-0.8293304443359375,0.8520965576171875,-0.0721435546875
-0.8492431640625,0.8567962646484375,-0.116943359375
-0.852752685546875,0.8209075927734375,-0.137786865234375
-0.9099884033203124,1.0084381103515625,-0.1546173095703125
-0.805877685546875,1.109283447265625,-0.1444091796875
-0.731170654296875,0.847503662109375,-0.0928802490234375
-0.765106201171875,0.8404083251953125,-0.146820068359375
-0.68255615234375,0.933074951171875,-0.168975830078125
-0.488739013671875,0.876312255859375,-0.2080230712890625
-0.442962646484375,0.7913360595703125,-0.1675872802734375
-0.458953857421875,0.8023681640625,-0.118072509765625
-0.4380035400390625,0.7791290283203125,-0.0588226318359375
-0.3979339599609375,0.7370758056640625,-0.0216827392578125
-0.3530426025390625,0.7382659912109375,-0.00445556640625
-0.3524627685546875,0.7564544677734375,-0.0830535888671875
-0.4203033447265625,0.84576416015625,-0.0429534912109375
-0.437713623046875,0.8929443359375,-0.0404815673828125
-0.63677978515625,0.9889984130859376,-0.011016845703125
-0.59368896484375,1.1536865234375,-0.03704833984375
-0.5587005615234375,0.9268798828125,-0.18548583984375
-0.687103271484375,0.7785186767578125,-0.027801513671875
-0.7221527099609375,0.8443145751953125,0.0252685546875
-0.660980224609375,0.8920440673828125,-0.0510406494140625
-0.5886688232421875,0.7541351318359375,-0.115997314453125
-0.585235595703125,0.68585205078125,-0.1113433837890625
-0.5566558837890625,0.7060089111328125,-0.1106719970703125
-0.522308349609375,0.7138824462890625,-0.1008758544921875
-0.5020751953125,0.7434539794921875,-0.075439453125
-0.562896728515625,0.788177490234375,-0.022674560546875
-0.652557373046875,0.8292694091796875,0.0394287109375
-0.7139129638671875,0.87689208984375,0.077545166015625
-0.7602081298828125,0.86767578125,-0.028045654296875
-0.84405517578125,0.9417572021484376,-0.0869293212890625
-0.823211669921875,1.15069580078125,-0.1270904541015625
-0.671417236328125,0.9809417724609376,-0.0955047607421875
-0.7402191162109375,0.807037353515625,0.011749267578125
-0.768707275390625,0.89208984375,-0.01416015625
-0.65301513671875,1.011566162109375,-0.0475311279296875
-0.5207977294921875,0.9161224365234376,-0.100067138671875
-0.5503082275390625,0.8097686767578125,-0.1333465576171875
-0.515777587890625,0.7917938232421875,-0.108642578125
-0.420654296875,0.785552978515625,-0.0880584716796875
-0.3657073974609375,0.7472076416015625,-0.0637664794921875
-0.3603515625,0.7458648681640625,-0.0307159423828125
-0.338897705078125,0.74700927734375,-0.015838623046875
-0.4175567626953125,0.778900146484375,-0.01617431640625
-0.4118194580078125,0.8281707763671875,-0.0661163330078125
-0.5692596435546875,0.935699462890625,-0.050537109375
-0.6018524169921875,1.081024169921875,-0.0843353271484375
-0.641876220703125,0.9865264892578124,-0.13580322265625
-0.68634033203125,0.8029327392578125,-0.0842132568359375
-0.74285888671875,0.776153564453125,-0.0535888671875
-0.7711181640625,0.8354644775390625,-0.06207275390625
-0.7333984375,0.7772979736328125,-0.1266326904296875
-0.670623779296875,0.6699066162109375,-0.1492919921875
-0.662078857421875,0.6586761474609375,-0.07110595703125
-0.615814208984375,0.6459503173828125,-0.0411529541015625
-0.6432952880859375,0.634613037109375,-0.1015625
-0.769989013671875,0.635711669921875,-0.1583251953125
-0.873565673828125,0.6976165771484375,-0.2158355712890625
-0.9363250732421876,0.7898406982421875,-0.27191162109375
-0.944091796875,0.9174957275390624,-0.3152008056640625
-0.9071044921875,0.9583587646484376,-0.236846923828125
-0.869232177734375,1.00152587890625,-0.2048797607421875
-0.7840423583984375,1.0883026123046875,-0.2965850830078125
-0.630523681640625,0.96173095703125,-0.34295654296875
-0.6048431396484375,0.759185791015625,-0.204498291015625
-0.703155517578125,0.838165283203125,-0.060546875
-0.654052734375,0.8863525390625,-0.0645599365234375
-0.505828857421875,0.779144287109375,-0.1591949462890625
-0.448028564453125,0.6688232421875,-0.230072021484375
-0.4372711181640625,0.6356048583984375,-0.232666015625
-0.39990234375,0.633941650390625,-0.1432037353515625
-0.333740234375,0.6433258056640625,-0.0365753173828125
-0.3573455810546875,0.7064666748046875,0.02349853515625
-0.5006561279296875,0.7977142333984375,0.0654449462890625
-0.59246826171875,0.842132568359375,0.1340789794921875
-0.60028076171875,0.8167572021484375,0.1353912353515625
-0.7440643310546875,0.9150848388671876,0.094696044921875
-0.7672271728515625,1.1341400146484375,0.006011962890625
-0.6700897216796875,0.8112030029296875,-0.00982666015625
-0.7710113525390625,0.763580322265625,-0.02764892578125
-0.7712249755859375,0.796600341796875,-0.0568695068359375
-0.726531982421875,0.70648193359375,-0.0247039794921875
-0.7009735107421875,0.613983154296875,-0.0553741455078125
-0.6723785400390625,0.6502227783203125,-0.093475341796875
-0.636322021484375,0.7380218505859375,-0.1249542236328125
-0.5774993896484375,0.740264892578125,-0.1399383544921875
-0.6131134033203125,0.7269287109375,-0.12298583984375
-0.66680908203125,0.745025634765625,-0.10467529296875
-0.7133636474609375,0.7592926025390625,-0.0931854248046875
-0.76617431640625,0.7640380859375,-0.0790557861328125
-0.77899169921875,0.7845306396484375,-0.106201171875
-0.8495025634765625,0.8776702880859375,-0.1284942626953125
-0.857391357421875,1.06036376953125,-0.1897430419921875
-0.7304840087890625,0.9577484130859376,-0.267059326171875
-0.734954833984375,0.80963134765625,-0.240081787109375
-0.7433929443359375,0.88873291015625,-0.2119903564453125
-0.64471435546875,0.9918212890625,-0.18408203125
-0.484954833984375,0.9197235107421876,-0.2009124755859375
-0.468597412109375,0.7892303466796875,-0.20404052734375
-0.474822998046875,0.7466888427734375,-0.2036895751953125
-0.4102783203125,0.75994873046875,-0.1401519775390625
-0.3731536865234375,0.7191314697265625,-0.1118621826171875
-0.3905181884765625,0.7030181884765625,-0.0593719482421875
-0.4389801025390625,0.7711639404296875,-0.0526580810546875
-0.5170745849609375,0.8927459716796875,-0.0338134765625
-0.56201171875,0.898406982421875,0.0247039794921875
-0.7166900634765625,0.903594970703125,0.0091705322265625
-0.7254791259765625,1.0485687255859375,-0.00885009765625
-0.59619140625,0.912353515625,-0.1523590087890625
-0.6206817626953125,0.7547149658203125,-0.15802001953125
-0.6781005859375,0.7237701416015625,-0.0155029296875
-0.7380828857421875,0.7335662841796875,0.0590667724609375
-0.703826904296875,0.699310302734375,0.03173828125
-0.6653594970703125,0.639312744140625,-0.0408935546875
-0.6071014404296875,0.6811065673828125,-0.100250244140625
-0.57098388671875,0.71630859375,-0.1561737060546875
-0.58612060546875,0.680328369140625,-0.11541748046875
-0.6285858154296875,0.6534271240234375,-0.0587615966796875
-0.6762847900390625,0.6877899169921875,-0.019805908203125
-0.7517852783203125,0.7861785888671875,-0.0399169921875
-0.791473388671875,0.820159912109375,-0.0743560791015625
-0.7719573974609375,0.7712249755859375,-0.1158905029296875
-0.8183441162109375,0.8076324462890625,-0.1377105712890625
-0.8482818603515625,1.0442352294921875,-0.1672821044921875
-0.7964019775390625,0.934783935546875,-0.1768035888671875
-0.8307342529296875,0.7223358154296875,-0.1347503662109375
-0.866241455078125,0.840423583984375,-0.1336517333984375
-0.7500457763671875,0.992950439453125,-0.1473541259765625
-0.61669921875,0.915771484375,-0.1855621337890625
-0.652252197265625,0.8527679443359375,-0.2175140380859375
-0.61370849609375,0.8433380126953125,-0.1664276123046875
-0.4714508056640625,0.8274993896484375,-0.0963897705078125
-0.3470458984375,0.7601318359375,-0.04144287109375
-0.2593536376953125,0.67523193359375,-0.0175018310546875
-0.235687255859375,0.63250732421875,-0.0212249755859375
-0.285858154296875,0.6761016845703125,0.0074005126953125
-0.3764801025390625,0.754058837890625,0.0374603271484375
-0.51007080078125,0.83050537109375,0.00091552734375
-0.760009765625,1.0913848876953125,0.0063629150390625
-0.8082427978515625,1.198883056640625,-0.0900726318359375
-0.8067474365234375,1.09765625,-0.232177734375
-0.8658447265625,0.8754730224609375,-0.2788848876953125
-0.960601806640625,0.759124755859375,-0.1623687744140625
-0.972930908203125,0.7498779296875,-0.0921173095703125
-0.918670654296875,0.661895751953125,-0.0946807861328125
-0.785003662109375,0.625274658203125,-0.01397705078125
-0.6871795654296875,0.66961669921875,-0.0513916015625
-0.6798095703125,0.694976806640625,-0.1365814208984375
-0.67230224609375,0.720977783203125,-0.1144256591796875
-0.7263031005859375,0.6464996337890625,-0.25860595703125
-0.773529052734375,0.64019775390625,-0.1795501708984375
-0.8399505615234375,0.606170654296875,-0.1728057861328125
-0.8596954345703125,0.5729522705078125,-0.018829345703125
-0.8388824462890625,0.5630035400390625,0.1190948486328125
-0.8205718994140625,0.5870208740234375,0.1446380615234375
-0.8035430908203125,0.638641357421875,-0.0244293212890625
-0.7889251708984375,0.7610931396484375,-0.1346893310546875
-0.7307281494140625,0.7713165283203125,-0.0981903076171875
-0.834686279296875,0.786224365234375,-0.254150390625
-0.534881591796875,0.5492401123046875,-0.0900115966796875
-0.496551513671875,0.6185455322265625,-0.106658935546875
-0.656494140625,0.678497314453125,-0.2078704833984375
-0.709991455078125,0.6477203369140625,-0.2749786376953125
-0.7762908935546875,0.6607666015625,-0.3424072265625
-0.727783203125,0.6285247802734375,-0.40093994140625
-0.6701202392578125,0.65081787109375,-0.34320068359375
-0.65496826171875,0.7328033447265625,-0.3340606689453125
-0.746307373046875,0.7402801513671875,-0.4087982177734375
-0.7643585205078125,0.7265167236328125,-0.3734588623046875
-0.7906494140625,0.7091827392578125,-0.2991180419921875
-0.7665863037109375,0.685577392578125,-0.2459869384765625
-0.7375030517578125,0.745147705078125,-0.1612701416015625
-0.7190704345703125,0.815338134765625,-0.1887969970703125
-0.7187347412109375,0.89910888671875,-0.18603515625
-0.7265625,0.9807586669921876,-0.0894012451171875
-0.64935302734375,0.9189300537109376,-0.0327606201171875
-0.6177215576171875,0.855804443359375,0.04669189453125
-0.5922698974609375,0.929443359375,0.0827484130859375
-0.4626617431640625,0.9314727783203124,0.0362548828125
-0.466094970703125,0.846466064453125,-0.0937957763671875
-0.4291839599609375,0.963775634765625,0.0036468505859375
-0.3096466064453125,0.9319610595703124,0.1339263916015625
-0.2175445556640625,0.8531341552734375,0.1819305419921875
-0.112701416015625,0.8128814697265625,0.3305511474609375
-0.0281982421875,0.748687744140625,0.618499755859375
-0.1583404541015625,0.7147216796875,0.7220306396484375
-0.2949066162109375,0.744598388671875,0.5922698974609375
-0.3910369873046875,0.8108673095703125,0.565582275390625
-0.4951934814453125,0.8918914794921875,0.5803985595703125
-0.5711822509765625,0.912628173828125,0.5278167724609375
-0.6301727294921875,0.8861236572265625,0.5654296875
-0.6431732177734375,0.8519134521484375,0.6164093017578125
-0.6846771240234375,0.813507080078125,0.5953826904296875
-0.7557373046875,0.8660125732421875,0.4691925048828125
-0.8300933837890625,0.9959869384765624,0.2676239013671875
-0.837615966796875,0.9281463623046876,0.1561737060546875
-0.778411865234375,0.6893463134765625,0.14324951171875
-0.7802734375,0.813934326171875,0.2371368408203125
-0.7385101318359375,1.06103515625,0.280731201171875
-0.5993194580078125,1.073516845703125,0.2348785400390625
-0.5526123046875,1.02447509765625,0.0733795166015625
-0.53179931640625,1.051116943359375,0.0927886962890625
-0.4376983642578125,1.0162200927734375,0.021759033203125
-0.364105224609375,0.95947265625,0.0960693359375
-0.306854248046875,0.8716888427734375,0.17449951171875
-0.25506591796875,0.824798583984375,0.2061309814453125
-0.24505615234375,0.8341522216796875,0.2071685791015625
-0.2469482421875,0.8502044677734375,0.232269287109375
-0.299072265625,0.8043365478515625,0.25103759765625
-0.456695556640625,0.940277099609375,0.2565765380859375
-0.411102294921875,1.001617431640625,0.2678680419921875
-0.4217681884765625,0.9251556396484376,0.21484375
-0.594024658203125,0.876495361328125,0.2190093994140625
-0.7104644775390625,0.9038238525390624,0.2571563720703125
-0.6731719970703125,0.9156341552734376,0.2884979248046875
-0.57781982421875,0.7934112548828125,0.240814208984375
-0.5840606689453125,0.75238037109375,0.147735595703125
-0.537750244140625,0.7732696533203125,0.09442138671875
-0.439483642578125,0.78656005859375,0.0920867919921875
-0.4894561767578125,0.7741851806640625,0.104583740234375
-0.5449676513671875,0.8127593994140625,0.1509246826171875
-0.645904541015625,0.8697662353515625,0.2013092041015625
-0.7039031982421875,0.9167938232421876,0.2541351318359375
-0.7191925048828125,0.89251708984375,0.1865692138671875
-0.7544097900390625,0.898406982421875,0.1480712890625
-0.7367095947265625,1.0561065673828125,0.180450439453125
-0.593017578125,1.07794189453125,0.1868133544921875
-0.5834503173828125,0.9329681396484376,0.164276123046875
-0.65032958984375,0.9835662841796876,0.1149749755859375
-0.5838165283203125,1.009033203125,0.0985870361328125
-0.479827880859375,0.9395599365234376,0.0733795166015625
-0.453399658203125,0.8606414794921875,0.0720062255859375
-0.439361572265625,0.8388519287109375,0.109588623046875
-0.3890380859375,0.8123626708984375,0.1359100341796875
-0.3309173583984375,0.7679595947265625,0.1384429931640625
-0.2833251953125,0.7598419189453125,0.13311767578125
-0.2770233154296875,0.77239990234375,0.06597900390625
-0.314300537109375,0.8650665283203125,0.1114044189453125
-0.327117919921875,0.9002532958984375,0.1435394287109375
-0.4659271240234375,0.972564697265625,0.1823272705078125
-0.4793701171875,1.103912353515625,0.1796417236328125
-0.535186767578125,1.10064697265625,0.0919952392578125
-0.5744171142578125,0.9442138671875,0.0589599609375
-0.6389923095703125,0.8165283203125,0.1171875
-0.749786376953125,0.85675048828125,0.1490631103515625
-0.7295684814453125,0.83673095703125,0.1493072509765625
-0.6294097900390625,0.727569580078125,0.1162872314453125
-0.5395965576171875,0.712432861328125,0.083770751953125
-0.4642791748046875,0.760345458984375,0.1049957275390625
-0.4523468017578125,0.761505126953125,0.138763427734375
-0.5982666015625,0.7186737060546875,0.197174072265625
-0.7796783447265625,0.773040771484375,0.174468994140625
-0.8185882568359375,0.8828125,0.1440277099609375
-0.7670440673828125,0.92803955078125,0.04766845703125
-0.762786865234375,0.9680938720703124,0.0031890869140625
-0.75347900390625,1.0409088134765625,0.0400390625
-0.725494384765625,1.2245025634765625,0.13287353515625
-0.560333251953125,1.1330718994140625,0.1594390869140625
-0.5049591064453125,0.8468017578125,0.1442413330078125
-0.577972412109375,0.8771820068359375,0.2067718505859375
-0.4656219482421875,0.9922637939453124,0.19915771484375
-0.3001861572265625,0.934967041015625,0.16363525390625
-0.2130889892578125,0.812225341796875,0.1502838134765625
-0.2500762939453125,0.7407073974609375,0.0333251953125
-0.2759246826171875,0.721038818359375,0.0245513916015625
-0.2750701904296875,0.70947265625,0.0992889404296875
-0.3566436767578125,0.7428131103515625,0.1393890380859375
-0.4731597900390625,0.84197998046875,0.1461334228515625
-0.5273590087890625,0.8862457275390625,0.1590118408203125
-0.5999908447265625,0.965057373046875,0.146514892578125
-0.661346435546875,1.0368499755859375,-0.0864715576171875
-0.7837982177734375,1.06195068359375,-0.2263946533203125
-0.6780242919921875,1.116302490234375,-0.138336181640625
-0.5337677001953125,0.9067535400390624,-0.1383819580078125
-0.5897979736328125,0.605743408203125,-0.1436767578125
-0.6201934814453125,0.6120452880859375,0.0596160888671875
-0.5395660400390625,0.7310333251953125,0.09423828125
-0.4604644775390625,0.7794036865234375,-0.0252685546875
-0.4778594970703125,0.7683563232421875,-0.146270751953125
-0.54876708984375,0.81085205078125,-0.1433563232421875
-0.550140380859375,0.8118133544921875,-0.0413818359375
-0.5522003173828125,0.79193115234375,0.06298828125
-0.6002044677734375,0.80181884765625,0.14599609375
-0.68695068359375,0.82733154296875,0.206512451171875
-0.724029541015625,0.8924560546875,0.141815185546875
-0.69293212890625,0.9045867919921876,0.052825927734375
-0.7318572998046875,0.8429412841796875,0.0489044189453125
-0.88690185546875,1.01043701171875,0.03265380859375
-0.794525146484375,1.052886962890625,-0.1936492919921875
-0.630767822265625,0.8160247802734375,-0.12762451171875
-0.746124267578125,0.68853759765625,-0.1640777587890625
-0.676177978515625,0.8233489990234375,-0.21978759765625
-0.69329833984375,0.904754638671875,-0.0806427001953125
-0.7068023681640625,0.8184814453125,-0.003570556640625
-0.5656890869140625,0.761932373046875,-0.0647125244140625
-0.431854248046875,0.71112060546875,-0.18994140625
-0.440765380859375,0.7190704345703125,-0.1536865234375
-0.4279327392578125,0.764312744140625,0.0485382080078125
-0.3360595703125,0.6980133056640625,0.05059814453125
-0.3773956298828125,0.7497406005859375,0.0321502685546875
-0.5223388671875,0.872528076171875,0.0072021484375
-0.5831451416015625,0.906005859375,0.0874786376953125
-0.702301025390625,0.992889404296875,0.074859619140625
-0.6241912841796875,1.0406494140625,0.0136871337890625
-0.5721435546875,0.8552093505859375,-0.1429443359375
-0.7962188720703125,0.7050933837890625,-0.0983428955078125
-0.801666259765625,0.723297119140625,-0.077056884765625
-0.757965087890625,0.7371978759765625,-0.1591033935546875
-0.75286865234375,0.6044921875,-0.2120513916015625
-0.7510223388671875,0.58514404296875,-0.1722869873046875
-0.676788330078125,0.627410888671875,-0.0720062255859375
-0.65069580078125,0.6644287109375,-0.0879364013671875
-0.65606689453125,0.6838836669921875,-0.221405029296875
-0.664520263671875,0.6928253173828125,-0.239501953125
-0.715667724609375,0.726593017578125,-0.173248291015625
-0.83612060546875,0.7798309326171875,-0.16119384765625
-0.8507537841796875,0.7624053955078125,-0.1841888427734375
-0.8119659423828125,0.7934417724609375,-0.193084716796875
-0.7766265869140625,0.9678802490234376,-0.2599334716796875
-0.7295684814453125,0.9591064453125,-0.2484130859375
-0.7518310546875,0.817596435546875,-0.2265472412109375
-0.760009765625,0.871978759765625,-0.2486419677734375
-0.6430206298828125,0.9388885498046876,-0.293121337890625
-0.5593109130859375,0.8308563232421875,-0.2870941162109375
-0.5421905517578125,0.7303466796875,-0.1732635498046875
-0.47760009765625,0.7318267822265625,-0.1806488037109375
-0.3805999755859375,0.71881103515625,-0.1894378662109375
-0.32421875,0.6866302490234375,-0.11761474609375
-0.3277130126953125,0.686492919921875,-0.058258056640625
-0.3473052978515625,0.758636474609375,-0.088623046875
-0.4177398681640625,0.868804931640625,-0.12261962890625
-0.487213134765625,0.9492034912109376,-0.141143798828125
-0.6497955322265625,0.987762451171875,-0.1444091796875
-0.7275848388671875,1.0766754150390625,-0.1483917236328125
-0.6918487548828125,1.02203369140625,-0.2138824462890625
-0.6627960205078125,0.786865234375,-0.16705322265625
-0.76226806640625,0.7208099365234375,-0.119537353515625
-0.8021392822265625,0.8094482421875,-0.1633758544921875
-0.71881103515625,0.8193359375,-0.2332000732421875
-0.6307525634765625,0.68585205078125,-0.277191162109375
-0.584991455078125,0.648040771484375,-0.2602386474609375
-0.48919677734375,0.667327880859375,-0.1687469482421875
-0.426239013671875,0.6833648681640625,-0.15447998046875
-0.4340362548828125,0.68841552734375,-0.1534881591796875
-0.5033111572265625,0.7181396484375,-0.19451904296875
-0.6051483154296875,0.7962188720703125,-0.2327880859375
-0.7329559326171875,0.8453521728515625,-0.2495269775390625
-0.8001861572265625,0.8321685791015625,-0.2477569580078125
-0.895660400390625,0.887420654296875,-0.2235260009765625
-0.8550262451171875,1.041473388671875,-0.2003021240234375
-0.715606689453125,0.964080810546875,-0.2029876708984375
-0.7107086181640625,0.819488525390625,-0.23052978515625
-0.72796630859375,0.8909759521484375,-0.2310943603515625
-0.66241455078125,0.9531097412109376,-0.1594085693359375
-0.5657196044921875,0.8260955810546875,-0.1080780029296875
-0.573883056640625,0.72900390625,-0.149261474609375
-0.5213165283203125,0.738037109375,-0.12139892578125
-0.4304962158203125,0.7935638427734375,-0.0953369140625
-0.355865478515625,0.755859375,-0.0856781005859375
-0.3470611572265625,0.72845458984375,-0.118896484375
-0.3396759033203125,0.7811737060546875,-0.1475982666015625
-0.3109130859375,0.9087982177734376,-0.19964599609375
-0.3298187255859375,0.876617431640625,-0.300994873046875
-0.5777130126953125,0.8523712158203125,-0.261566162109375
-0.6371002197265625,0.95977783203125,-0.1175384521484375
-0.515777587890625,0.99139404296875,-0.235931396484375
-0.5706939697265625,0.82037353515625,-0.34075927734375
-0.663055419921875,0.8513641357421875,-0.3612518310546875
-0.680206298828125,0.870147705078125,-0.403167724609375
-0.6729736328125,0.7093963623046875,-0.3104095458984375
-0.6631011962890625,0.6345672607421875,-0.2353515625
-0.6646575927734375,0.6822662353515625,-0.2140045166015625
-0.645294189453125,0.714324951171875,-0.2145233154296875
-0.63421630859375,0.7238311767578125,-0.206298828125
-0.6576690673828125,0.77716064453125,-0.214630126953125
-0.725799560546875,0.8359832763671875,-0.2249603271484375
-0.768798828125,0.8579254150390625,-0.1898040771484375
-0.7869720458984375,0.827117919921875,-0.1921539306640625
-0.7961883544921875,0.80572509765625,-0.2462615966796875
-0.8347015380859375,0.930694580078125,-0.2583465576171875
-0.8037567138671875,0.9718780517578124,-0.2612762451171875
-0.7044677734375,0.7093048095703125,-0.277130126953125
-0.6930389404296875,0.740264892578125,-0.2936553955078125
-0.6358795166015625,0.956512451171875,-0.2908172607421875
-0.55206298828125,0.992950439453125,-0.3626708984375
-0.462066650390625,0.8282012939453125,-0.3657073974609375
-0.44573974609375,0.770660400390625,-0.3113250732421875
-0.3974151611328125,0.748199462890625,-0.2386474609375
-0.3590850830078125,0.7138214111328125,-0.1896209716796875
-0.3606109619140625,0.716644287109375,-0.112457275390625
-0.3647003173828125,0.744964599609375,-0.078094482421875
-0.4140472412109375,0.756591796875,-0.1186370849609375
-0.482574462890625,0.8091583251953125,-0.1053924560546875
-0.51373291015625,0.8711090087890625,-0.1617279052734375
-0.6234588623046875,0.8646392822265625,-0.18896484375
-0.693389892578125,1.018402099609375,-0.20562744140625
-0.57904052734375,0.9007415771484376,-0.322418212890625
-0.6342010498046875,0.7715301513671875,-0.3140106201171875
-0.7070465087890625,0.8293914794921875,-0.2568817138671875
-0.7526092529296875,0.8496551513671875,-0.250152587890625
-0.662200927734375,0.6879119873046875,-0.2987060546875
-0.5958709716796875,0.5662841796875,-0.27032470703125
-0.5303192138671875,0.6177215576171875,-0.1815032958984375
-0.5147247314453125,0.7049713134765625,-0.173126220703125
-0.5173187255859375,0.7071075439453125,-0.205474853515625
-0.610443115234375,0.7169036865234375,-0.2682952880859375
-0.73480224609375,0.7347564697265625,-0.2746429443359375
-0.8272247314453125,0.8197479248046875,-0.2635345458984375
-0.7946319580078125,0.8450775146484375,-0.2875823974609375
-0.7243194580078125,0.816741943359375,-0.2991943359375
-0.7358856201171875,0.93017578125,-0.2949676513671875
-0.7113494873046875,1.021087646484375,-0.3235626220703125
-0.6230621337890625,0.8846588134765625,-0.36236572265625
-0.6414337158203125,0.745819091796875,-0.34857177734375
-0.6232757568359375,0.84552001953125,-0.3110809326171875
-0.5582122802734375,0.969329833984375,-0.2901611328125
-0.458343505859375,0.861907958984375,-0.3088226318359375
-0.4553985595703125,0.737457275390625,-0.313140869140625
-0.4513397216796875,0.72247314453125,-0.24267578125
-0.400787353515625,0.7262115478515625,-0.2042694091796875
-0.360076904296875,0.69610595703125,-0.1890106201171875
-0.33343505859375,0.688568115234375,-0.18597412109375
-0.3271942138671875,0.7347259521484375,-0.20965576171875
-0.3838043212890625,0.797454833984375,-0.1685333251953125
-0.440948486328125,0.850799560546875,-0.1424407958984375
-0.5059356689453125,0.862213134765625,-0.1936492919921875
-0.6607513427734375,0.8788299560546875,-0.241455078125
-0.7682647705078125,1.0833740234375,-0.221099853515625
-0.67523193359375,1.03070068359375,-0.3331298828125
-0.669708251953125,0.7589263916015625,-0.346466064453125
-0.7388763427734375,0.654510498046875,-0.286956787109375
-0.7993011474609375,0.71630859375,-0.2987060546875
-0.7850799560546875,0.7425537109375,-0.3409576416015625
-0.7030487060546875,0.6620635986328125,-0.3695526123046875
-0.6171112060546875,0.680450439453125,-0.3448486328125
-0.5450439453125,0.7377166748046875,-0.2742919921875
-0.5183868408203125,0.739959716796875,-0.21429443359375
-0.48583984375,0.712310791015625,-0.206695556640625
-0.590484619140625,0.7621307373046875,-0.18255615234375
-0.6163330078125,0.78204345703125,-0.22027587890625
-0.6482696533203125,0.822784423828125,-0.19488525390625
-0.72833251953125,0.83026123046875,-0.169219970703125
-0.6990509033203125,0.8515777587890625,-0.1578826904296875
-0.6967620849609375,0.800628662109375,-0.160858154296875
-0.7554168701171875,0.777008056640625,-0.175689697265625
-0.80242919921875,0.8912811279296875,-0.225128173828125
-0.7036590576171875,0.84765625,-0.2086944580078125
-0.7511138916015625,0.6860504150390625,-0.215301513671875
-0.668975830078125,0.5449066162109375,-0.3005828857421875
-0.5475311279296875,0.563201904296875,-0.325531005859375
-0.44744873046875,0.5714111328125,-0.2945709228515625
-0.4894561767578125,0.6173858642578125,-0.373138427734375
-0.5320892333984375,0.6754302978515625,-0.4112701416015625
-0.5545196533203125,0.6535491943359375,-0.35125732421875
-0.5877227783203125,0.7319793701171875,-0.3345947265625
-0.7805328369140625,0.865325927734375,-0.4324798583984375
-0.702301025390625,0.66571044921875,-0.3478240966796875
-0.833770751953125,0.657073974609375,-0.345245361328125
-0.799072265625,0.6451416015625,-0.2954254150390625
-0.8146209716796875,0.6764373779296875,-0.2541046142578125
-0.815338134765625,0.7126617431640625,-0.296295166015625
-0.750091552734375,0.794586181640625,-0.3397216796875
-0.7399749755859375,0.8284759521484375,-0.429901123046875
-0.762603759765625,0.877105712890625,-0.4413299560546875
-0.708465576171875,0.8949127197265625,-0.4159393310546875
-0.58734130859375,0.854034423828125,-0.3625640869140625
-0.5662689208984375,0.82305908203125,-0.347381591796875
-0.533050537109375,0.8704071044921875,-0.2345428466796875
-0.4926910400390625,0.8563385009765625,-0.1336822509765625
-0.50848388671875,0.78271484375,-0.05108642578125
-0.5038909912109375,0.7340240478515625,-0.070159912109375
-0.474822998046875,0.7615814208984375,-0.0305938720703125
-0.4257049560546875,0.8234710693359375,-0.018218994140625
-0.3906402587890625,0.8361053466796875,0.048858642578125
-0.4092254638671875,0.7923736572265625,0.119293212890625
-0.4446868896484375,0.765045166015625,0.1288909912109375
-0.4719085693359375,0.776031494140625,0.1316070556640625
-0.5350341796875,0.7991485595703125,0.124725341796875
-0.608673095703125,0.8452911376953125,0.077117919921875
-0.6495819091796875,0.8765106201171875,0.026275634765625
-0.6947784423828125,0.892852783203125,0.019439697265625
-0.7421417236328125,0.8701171875,0.0141448974609375
-0.82220458984375,0.85064697265625,-0.0311126708984375
-0.8817901611328125,0.79791259765625,-0.10150146484375
-0.8977813720703125,0.75042724609375,-0.136962890625
-0.871124267578125,0.7162322998046875,-0.1881256103515625
-0.840606689453125,0.73858642578125,-0.21331787109375
-0.77593994140625,0.7899932861328125,-0.237579345703125
-0.7497406005859375,0.8436737060546875,-0.29345703125
-0.73553466796875,0.908233642578125,-0.3747711181640625
-0.6547088623046875,0.809326171875,-0.3827667236328125
-0.695404052734375,0.8068084716796875,-0.319732666015625
-0.6639251708984375,0.9482879638671876,-0.301727294921875
-0.5778656005859375,1.039337158203125,-0.345001220703125
-0.4499969482421875,0.95440673828125,-0.338043212890625
-0.4115142822265625,0.77398681640625,-0.3348541259765625
-0.4370880126953125,0.72320556640625,-0.2864532470703125
-0.4124755859375,0.7404022216796875,-0.2128753662109375
-0.35760498046875,0.7342071533203125,-0.2376556396484375
-0.3911285400390625,0.7280731201171875,-0.2760009765625
-0.452728271484375,0.785064697265625,-0.2035675048828125
-0.529327392578125,0.9232940673828124,-0.105712890625
-0.539947509765625,0.95587158203125,-0.07269287109375
-0.652099609375,0.8810882568359375,-0.1132965087890625
-0.7571563720703125,1.0233917236328125,-0.135040283203125
-0.5887908935546875,0.9375,-0.272216796875
-0.5831451416015625,0.7638397216796875,-0.2758941650390625
-0.6767425537109375,0.7236328125,-0.147430419921875
-0.7431793212890625,0.7683563232421875,-0.0979766845703125
-0.707763671875,0.7261962890625,-0.109619140625
-0.64556884765625,0.637054443359375,-0.1318206787109375
-0.59051513671875,0.6444244384765625,-0.145538330078125
-0.5113067626953125,0.6992340087890625,-0.1256103515625
-0.468414306640625,0.6804046630859375,-0.1333160400390625
-0.466827392578125,0.6856842041015625,-0.1250152587890625
-0.5322113037109375,0.75384521484375,-0.108734130859375
-0.645416259765625,0.8655242919921875,-0.07562255859375
-0.73297119140625,0.9300994873046876,-0.0724334716796875
-0.776885986328125,0.846099853515625,-0.1668853759765625
-0.785064697265625,0.7817535400390625,-0.190826416015625
-0.751373291015625,0.9043731689453124,-0.23760986328125
-0.6403350830078125,0.92681884765625,-0.3220367431640625
-0.69354248046875,0.854949951171875,-0.32745361328125
-0.7398529052734375,0.9398345947265624,-0.289764404296875
-0.6764984130859375,0.9586639404296876,-0.2973480224609375
-0.55267333984375,0.80804443359375,-0.29962158203125
-0.5558013916015625,0.69818115234375,-0.2384490966796875
-0.5262298583984375,0.717315673828125,-0.162689208984375
-0.4462890625,0.7568511962890625,-0.1201934814453125
-0.3637847900390625,0.759796142578125,-0.08502197265625
-0.345428466796875,0.75506591796875,-0.0859222412109375
-0.375823974609375,0.7653045654296875,-0.1251983642578125
-0.43115234375,0.7901458740234375,-0.121002197265625
-0.45208740234375,0.8421173095703125,-0.204620361328125
-0.485595703125,0.8836517333984375,-0.252410888671875
-0.5694580078125,0.9394073486328124,-0.2141876220703125
-0.6103057861328125,0.9871978759765624,-0.282623291015625
-0.6112518310546875,0.931396484375,-0.34906005859375
-0.6046295166015625,0.7711181640625,-0.3067474365234375
-0.69854736328125,0.7350311279296875,-0.2574920654296875
-0.745513916015625,0.7855987548828125,-0.3060302734375
-0.7120819091796875,0.759033203125,-0.3599700927734375
-0.6480560302734375,0.654510498046875,-0.36212158203125
-0.6198883056640625,0.6308746337890625,-0.3040313720703125
-0.6092987060546875,0.6905364990234375,-0.250274658203125
-0.6490020751953125,0.7154693603515625,-0.20166015625
-0.661346435546875,0.740081787109375,-0.175750732421875
-0.69024658203125,0.789306640625,-0.285736083984375
-0.6833648681640625,0.82861328125,-0.3841400146484375
-0.6535797119140625,0.85906982421875,-0.4348907470703125
-0.6000823974609375,0.8583984375,-0.41143798828125
-0.609375,0.882568359375,-0.4013824462890625
-0.5723419189453125,0.985076904296875,-0.4149017333984375
-0.4657745361328125,0.95159912109375,-0.4198760986328125
-0.461639404296875,0.7573089599609375,-0.4156951904296875
-0.5512237548828125,0.767120361328125,-0.414642333984375
-0.5586090087890625,0.8683013916015625,-0.4047393798828125
-0.4647216796875,0.7930755615234375,-0.3491973876953125
-0.4659881591796875,0.6689453125,-0.356536865234375
-0.5181427001953125,0.6765899658203125,-0.4102935791015625
-0.5018768310546875,0.71917724609375,-0.2979736328125
-0.4407806396484375,0.7406158447265625,-0.2434234619140625
-0.4232635498046875,0.797088623046875,-0.2416229248046875
-0.46197509765625,0.8508148193359375,-0.20733642578125
-0.512969970703125,0.911590576171875,-0.1597747802734375
-0.5403900146484375,0.9340362548828124,-0.17681884765625
-0.5657196044921875,0.830657958984375,-0.2423858642578125
-0.657073974609375,0.8909454345703125,-0.1602630615234375
-0.54351806640625,0.94049072265625,-0.1456298828125
-0.410430908203125,0.734222412109375,-0.2322540283203125
-0.5404205322265625,0.688446044921875,-0.259521484375
-0.6700439453125,0.7828826904296875,-0.20819091796875
-0.7037200927734375,0.8112945556640625,-0.1786346435546875
-0.6419525146484375,0.672210693359375,-0.2415618896484375
-0.6599578857421875,0.6371307373046875,-0.3145751953125
-0.647125244140625,0.68450927734375,-0.33233642578125
-0.585693359375,0.6730194091796875,-0.2542266845703125
-0.581329345703125,0.6888427734375,-0.24835205078125
-0.630615234375,0.7837066650390625,-0.27691650390625
-0.676239013671875,0.8407440185546875,-0.2974700927734375
-0.713836669921875,0.86724853515625,-0.3315582275390625
-0.71124267578125,0.857025146484375,-0.3431396484375
-0.6986236572265625,0.8373870849609375,-0.2833709716796875
-0.7476043701171875,0.9839324951171876,-0.296600341796875
-0.6767578125,0.97894287109375,-0.32208251953125
-0.653900146484375,0.806854248046875,-0.3180084228515625
-0.67047119140625,0.861419677734375,-0.3628082275390625
-0.6432952880859375,0.9583282470703124,-0.3222808837890625
-0.516448974609375,0.8912353515625,-0.3465576171875
-0.45343017578125,0.800628662109375,-0.3720550537109375
-0.3814239501953125,0.77142333984375,-0.35931396484375
-0.299163818359375,0.73260498046875,-0.24896240234375
-0.270355224609375,0.6854705810546875,-0.1805419921875
-0.26336669921875,0.674163818359375,-0.146148681640625
-0.309844970703125,0.7154083251953125,-0.1609649658203125
-0.4095306396484375,0.814117431640625,-0.1586761474609375
-0.476409912109375,0.9158782958984376,-0.14996337890625
-0.5295867919921875,0.92694091796875,-0.2477264404296875
-0.66644287109375,1.1376953125,-0.3081207275390625
-0.60675048828125,1.1313018798828125,-0.390899658203125
-0.557342529296875,0.87274169921875,-0.419647216796875
-0.6672515869140625,0.74884033203125,-0.3412933349609375
-0.77252197265625,0.7869415283203125,-0.2553253173828125
-0.758941650390625,0.8154144287109375,-0.237396240234375
-0.6397247314453125,0.7215576171875,-0.319122314453125
-0.59906005859375,0.7001190185546875,-0.383056640625
-0.5334320068359375,0.708099365234375,-0.3692626953125
-0.458465576171875,0.6820220947265625,-0.279571533203125
-0.420074462890625,0.6490936279296875,-0.2314605712890625
-0.478759765625,0.71734619140625,-0.196868896484375
-0.519866943359375,0.78216552734375,-0.1576385498046875
-0.5430908203125,0.8055419921875,-0.156951904296875
-0.6464080810546875,0.861724853515625,-0.2825164794921875
-0.80511474609375,1.119171142578125,-0.327972412109375
-0.6967315673828125,0.89794921875,-0.31134033203125
-0.8606109619140625,0.8052978515625,-0.2733917236328125
-0.9517059326171876,1.0088043212890625,-0.24749755859375
-0.8087310791015625,1.1244964599609375,-0.2247314453125
-0.6042938232421875,1.081695556640625,-0.316009521484375
-0.4158477783203125,0.949432373046875,-0.3167724609375
-0.305023193359375,0.842987060546875,-0.1853790283203125
-0.224639892578125,0.7491607666015625,-0.0697784423828125
-0.2052001953125,0.6834564208984375,-0.0888824462890625
-0.245269775390625,0.671478271484375,-0.1796875
-0.304595947265625,0.7192535400390625,-0.1641845703125
-0.354827880859375,0.7801361083984375,-0.2082366943359375
-0.3839263916015625,0.877197265625,-0.27679443359375
-0.4404144287109375,0.9571685791015624,-0.363067626953125
-0.58685302734375,1.0837860107421875,-0.418182373046875
-0.6895751953125,1.2825469970703125,-0.43878173828125
-0.625823974609375,1.26824951171875,-0.529541015625
-0.5591278076171875,0.91717529296875,-0.616851806640625
-0.7716217041015625,0.76202392578125,-0.5297393798828125
-1.0013885498046875,0.7105255126953125,-0.48443603515625
-0.9209442138671876,0.7045135498046875,-0.4145050048828125
-0.722808837890625,0.673126220703125,-0.3437042236328125
-0.5398101806640625,0.681488037109375,-0.367919921875
-0.4122467041015625,0.655670166015625,-0.4060821533203125
-0.3816070556640625,0.6246185302734375,-0.3787384033203125
-0.3623504638671875,0.571746826171875,-0.397064208984375
-0.41156005859375,0.55975341796875,-0.4701690673828125
-0.4903106689453125,0.6231689453125,-0.5578765869140625
-0.5726470947265625,0.679412841796875,-0.713104248046875
-0.6248779296875,0.702789306640625,-0.7525482177734375
-0.63128662109375,0.6735076904296875,-0.6600799560546875
-0.627197265625,0.7512054443359375,-0.6219635009765625
-0.5905609130859375,0.8243865966796875,-0.648956298828125
-0.459625244140625,0.790985107421875,-0.6381988525390625
-0.4263763427734375,0.65936279296875,-0.6021728515625
-0.4637908935546875,0.7252044677734375,-0.4534912109375
-0.4533538818359375,0.80279541015625,-0.3970489501953125
-0.390533447265625,0.6705169677734375,-0.4940185546875
-0.37054443359375,0.5512847900390625,-0.50457763671875
-0.3507232666015625,0.5480499267578125,-0.4889068603515625
-0.3948211669921875,0.580963134765625,-0.4313507080078125
-0.4165191650390625,0.5902557373046875,-0.3704071044921875
-0.3752593994140625,0.58551025390625,-0.3903656005859375
-0.3419342041015625,0.645599365234375,-0.3993377685546875
-0.3861846923828125,0.7521209716796875,-0.4343109130859375
-0.494720458984375,0.86029052734375,-0.424774169921875
-0.5696563720703125,0.9396209716796876,-0.44158935546875
-0.58526611328125,1.212127685546875,-0.4771270751953125
-0.5133514404296875,1.14404296875,-0.6451568603515625
-0.5067596435546875,0.7441253662109375,-0.58746337890625
-0.6305694580078125,0.5968475341796875,-0.4034423828125
-0.7495574951171875,0.716033935546875,-0.320892333984375
-0.7510223388671875,0.7433624267578125,-0.392608642578125
-0.7298431396484375,0.6827239990234375,-0.3494720458984375
-0.621002197265625,0.661163330078125,-0.2036285400390625
-0.556549072265625,0.6510162353515625,-0.099578857421875
-0.5446014404296875,0.6428070068359375,-0.0500946044921875
-0.5877227783203125,0.661224365234375,-0.0654296875
-0.6401824951171875,0.6800384521484375,0.021331787109375
-0.7572784423828125,0.69622802734375,-0.0030364990234375
-0.8362579345703125,0.769775390625,-0.1284027099609375
-0.8779754638671875,0.7516937255859375,-0.107330322265625
-0.9074249267578124,0.7009429931640625,-0.1279754638671875
-0.9813690185546876,0.80712890625,-0.1304931640625
-0.9444427490234376,0.8751220703125,-0.2303924560546875
-0.7384490966796875,0.649444580078125,-0.3434906005859375
-0.7705841064453125,0.517547607421875,-0.3688507080078125
-0.7852935791015625,0.6771240234375,-0.39178466796875
-0.674652099609375,0.7543792724609375,-0.28533935546875
-0.68182373046875,0.68035888671875,-0.2511444091796875
-0.622100830078125,0.64251708984375,-0.385498046875
-0.501739501953125,0.60711669921875,-0.3819580078125
-0.4524383544921875,0.68572998046875,-0.1962738037109375
-0.4551239013671875,0.6789398193359375,-0.133148193359375
-0.437225341796875,0.6769256591796875,-0.092987060546875
-0.48406982421875,0.6927490234375,-0.08880615234375
-0.597747802734375,0.758819580078125,-0.084014892578125
-0.63934326171875,0.789764404296875,-0.069732666015625
-0.747802734375,0.8031768798828125,-0.0139007568359375
-0.89166259765625,0.94000244140625,0.010650634765625
-0.87249755859375,0.914031982421875,-0.1285858154296875
-0.853424072265625,0.6634063720703125,-0.1454620361328125
-0.9218597412109376,0.608123779296875,-0.157562255859375
-0.9647064208984376,0.6297760009765625,-0.1389617919921875
-0.8606719970703125,0.6447601318359375,-0.191436767578125
-0.7443389892578125,0.61004638671875,-0.260894775390625
-0.6398468017578125,0.632843017578125,-0.2978668212890625
-0.5832366943359375,0.628021240234375,-0.25823974609375
-0.567718505859375,0.6186065673828125,-0.2122344970703125
-0.6187286376953125,0.6110076904296875,-0.197418212890625
-0.7544097900390625,0.622528076171875,-0.28619384765625
-0.828216552734375,0.6760101318359375,-0.355712890625
-0.80120849609375,0.7451171875,-0.3557586669921875
-0.772705078125,0.790069580078125,-0.34088134765625
-0.7864990234375,0.933746337890625,-0.35894775390625
-0.7427825927734375,1.014373779296875,-0.38226318359375
-0.7055511474609375,1.003570556640625,-0.370758056640625
-0.616729736328125,0.7605743408203125,-0.3021697998046875
-0.6490325927734375,0.699859619140625,-0.2178955078125
-0.6180419921875,0.8098907470703125,-0.24761962890625
-0.5166473388671875,0.9023895263671876,-0.298126220703125
-0.42987060546875,0.768280029296875,-0.3475189208984375
-0.4743499755859375,0.6920623779296875,-0.33221435546875
-0.4716339111328125,0.72686767578125,-0.2769622802734375
-0.432586669921875,0.74847412109375,-0.2479248046875
-0.4307098388671875,0.7415618896484375,-0.2565155029296875
-0.4830169677734375,0.7392120361328125,-0.20135498046875
-0.50341796875,0.7167510986328125,-0.0702362060546875
-0.5825347900390625,0.81048583984375,-0.004302978515625
-0.5673065185546875,0.9598236083984376,0.026275634765625
-0.557952880859375,0.916473388671875,-0.071319580078125
-0.62957763671875,0.8380279541015625,-0.12841796875
-0.6981201171875,0.740203857421875,-0.028564453125
-0.83453369140625,0.7794189453125,-0.0094757080078125
-0.8712921142578125,0.884490966796875,-0.12640380859375
-0.8529510498046875,0.7736663818359375,-0.2308349609375
-0.827972412109375,0.6751556396484375,-0.3486328125
-0.75628662109375,0.626739501953125,-0.334014892578125
-0.673797607421875,0.5963134765625,-0.21453857421875
-0.6150665283203125,0.57122802734375,-0.161224365234375
-0.5755157470703125,0.53594970703125,-0.148101806640625
-0.56890869140625,0.5675811767578125,-0.1724700927734375
-0.5226593017578125,0.520233154296875,-0.1505584716796875
-0.5569610595703125,0.50103759765625,-0.0902252197265625
-0.566619873046875,0.5817108154296875,-0.096160888671875
-0.5268707275390625,0.596832275390625,-0.065826416015625
-0.5586395263671875,0.614959716796875,-0.09271240234375
-0.7950439453125,0.97503662109375,-0.2109527587890625
-0.9205780029296876,1.502593994140625,-0.303070068359375
-0.973541259765625,1.811492919921875,-0.415802001953125
-0.6749725341796875,1.638397216796875,-0.404693603515625
-0.4400482177734375,0.999053955078125,-0.292572021484375
-0.351806640625,0.5462188720703125,-0.1501312255859375
-0.275543212890625,0.341796875,-0.01611328125
-0.2572021484375,0.2919921875,0.107086181640625
-0.3711090087890625,0.3316650390625,0.2104949951171875
-0.5288238525390625,0.40380859375,0.229827880859375
-0.58734130859375,0.537109375,0.0764312744140625
-0.5972900390625,0.725921630859375,-0.1941070556640625
-0.576751708984375,0.6657257080078125,-0.3958740234375
-0.969573974609375,0.91485595703125,-0.3112945556640625
-1.114593505859375,1.504547119140625,-0.3171844482421875
-1.026397705078125,1.5717315673828125,-0.3905487060546875
-0.8380126953125,1.089080810546875,-0.4652252197265625
-0.908203125,0.70013427734375,0.0148162841796875
-0.7872161865234375,0.5860443115234375,0.337646484375
-0.590087890625,0.548919677734375,0.1615142822265625
-0.5780181884765625,0.5817718505859375,0.0085601806640625
-0.543182373046875,0.6179656982421875,-0.0396881103515625
-0.5474700927734375,0.5553131103515625,-0.0907745361328125
-0.4952239990234375,0.56146240234375,-0.0745086669921875
-0.3854217529296875,0.5660552978515625,-0.0472869873046875
-0.3203582763671875,0.5434417724609375,-0.0302886962890625
-0.4349822998046875,0.540985107421875,0.0867462158203125
-0.5963287353515625,0.7916107177734375,0.1383056640625
-0.627227783203125,1.16217041015625,-0.0416412353515625
-0.742279052734375,1.5323486328125,-0.23199462890625
-0.819244384765625,1.632537841796875,-0.3784942626953125
-0.9378814697265624,1.3189849853515625,-0.3704681396484375
-0.94036865234375,1.0957794189453125,-0.31134033203125
-0.702911376953125,0.8234710693359375,-0.1856231689453125
-0.5713043212890625,0.5251312255859375,-0.0153045654296875
-0.491790771484375,0.34722900390625,0.1396942138671875
-0.4557342529296875,0.314056396484375,0.1533355712890625
-0.47686767578125,0.3886566162109375,0.119842529296875
-0.5340118408203125,0.5508575439453125,0.0197906494140625
-0.5706634521484375,0.6399993896484375,-0.16064453125
-0.58428955078125,0.5907440185546875,-0.3017425537109375
-0.57354736328125,0.557159423828125,-0.3898468017578125
-0.469268798828125,0.50140380859375,-0.29119873046875
-0.5818023681640625,0.802337646484375,0.001220703125
-0.63885498046875,1.594451904296875,0.1002044677734375
-1.0531463623046875,1.9984283447265625,-0.4071807861328125
-0.9547576904296876,1.2057647705078125,-0.55670166015625
-1.0976104736328125,0.52398681640625,-0.0863800048828125
-0.8837127685546875,0.470733642578125,0.209716796875
-0.533599853515625,0.59173583984375,0.2515716552734375
-0.284576416015625,0.6725006103515625,0.0104827880859375
-0.222686767578125,0.63360595703125,-0.138092041015625
-0.2443084716796875,0.567901611328125,-0.1184234619140625
-0.320526123046875,0.5566864013671875,-0.103607177734375
-0.4066314697265625,0.592498779296875,-0.0466461181640625
-0.4793701171875,0.5958404541015625,0.023468017578125
-0.5546875,0.65020751953125,0.10308837890625
-0.705169677734375,0.9769134521484376,0.0071868896484375
-0.765777587890625,1.418853759765625,-0.1566162109375
-0.8107147216796875,1.375701904296875,-0.23260498046875
-0.798736572265625,1.4586029052734375,-0.178680419921875
-0.51788330078125,1.173309326171875,-0.111480712890625
-0.537139892578125,0.8358612060546875,-0.0193023681640625
-0.552459716796875,0.59765625,0.0395965576171875
-0.5023193359375,0.53619384765625,0.0339813232421875
-0.425567626953125,0.5121612548828125,0.0348663330078125
-0.4576873779296875,0.4837493896484375,0.05072021484375
-0.502716064453125,0.501708984375,0.0060272216796875
-0.4738616943359375,0.596649169921875,-0.1036529541015625
-0.4520263671875,0.65814208984375,-0.190704345703125
-0.5125274658203125,0.6533355712890625,-0.2193756103515625
-0.739410400390625,0.9725494384765624,-0.162567138671875
-0.8293304443359375,1.2859344482421875,-0.1295928955078125
-0.9209747314453124,1.207122802734375,-0.1581573486328125
-0.97894287109375,1.4076690673828125,-0.1841583251953125
-0.771728515625,0.9622039794921876,-0.0085906982421875
-0.7759857177734375,0.65472412109375,0.1705169677734375
-0.631561279296875,0.63507080078125,0.20111083984375
-0.4488677978515625,0.6291961669921875,0.1292877197265625
-0.3496551513671875,0.5845794677734375,0.0193328857421875
-0.3251953125,0.5522613525390625,-0.040740966796875
-0.3238067626953125,0.57574462890625,0.016632080078125
-0.3649139404296875,0.5601043701171875,0.07244873046875
-0.4306182861328125,0.550537109375,0.0796356201171875
-0.5237579345703125,0.6165313720703125,-0.005096435546875
-0.6633453369140625,0.8711700439453125,-0.103057861328125
-0.7794036865234375,1.2375030517578125,-0.171661376953125
-0.842498779296875,1.486053466796875,-0.239990234375
-0.8318939208984375,1.4311676025390625,-0.3060150146484375
-0.734954833984375,0.9893035888671876,-0.3194427490234375
-0.686981201171875,0.75579833984375,-0.2854461669921875
-0.4705810546875,0.7335662841796875,-0.1588287353515625
-0.3840789794921875,0.643798828125,-0.009246826171875
-0.45489501953125,0.515625,0.052947998046875
-0.5003509521484375,0.4936370849609375,0.10003662109375
-0.5114593505859375,0.57891845703125,0.058502197265625
-0.539825439453125,0.655731201171875,-0.0022430419921875
-0.5893096923828125,0.696014404296875,-0.0430908203125
-0.5560760498046875,0.62164306640625,-0.0890655517578125
-0.60186767578125,0.4684295654296875,-0.1345977783203125
-0.8367462158203125,0.7381134033203125,-0.09149169921875
-0.7491607666015625,0.99468994140625,-0.0230712890625
-0.93389892578125,1.08380126953125,-0.0620880126953125
-0.852630615234375,1.118438720703125,-0.124481201171875
-0.8132171630859375,0.524627685546875,-0.11676025390625
-0.84197998046875,0.5020751953125,-0.0241241455078125
-0.54730224609375,0.48193359375,0.0299835205078125
-0.4966278076171875,0.456024169921875,0.0258636474609375
-0.414031982421875,0.4131622314453125,-0.004058837890625
-0.365875244140625,0.4403228759765625,-0.1136627197265625
-0.3289794921875,0.494110107421875,-0.19134521484375
-0.4991912841796875,0.561370849609375,-0.1569366455078125
-0.627288818359375,0.7597198486328125,-0.1208648681640625
-0.6905059814453125,0.8124542236328125,-0.1833953857421875
-0.7790374755859375,0.7638397216796875,-0.30517578125
-0.7277374267578125,0.7618255615234375,-0.301605224609375
-0.692138671875,0.766387939453125,-0.2685699462890625
-0.8432464599609375,0.7668609619140625,-0.5059814453125
-0.968597412109375,0.74029541015625,-0.7621002197265625
-1.0238189697265625,0.809783935546875,-0.6292572021484375
-0.9854888916015624,0.8256683349609375,-0.6275634765625
-0.9663238525390624,0.9286956787109376,-1.0890960693359375
-0.88824462890625,0.87786865234375,-1.1089324951171875
-0.8280792236328125,0.7881622314453125,-1.0006866455078125
-0.7229156494140625,0.694854736328125,-1.0280914306640625
-0.634521484375,0.6171417236328125,-1.060577392578125
-0.3661346435546875,0.580535888671875,-1.19970703125
-0.236419677734375,0.5017242431640625,-1.0495758056640625
-0.2178955078125,0.396270751953125,-0.9116058349609376
-0.200531005859375,0.3176727294921875,-0.9462432861328124
-0.1611785888671875,0.3214111328125,-0.8973541259765625
-0.0743560791015625,0.1925201416015625,-0.7325897216796875
-0.0916900634765625,-0.0295257568359375,-0.60247802734375
-0.0375213623046875,-0.103363037109375,-0.6061859130859375
-0.0565185546875,-0.1467132568359375,-0.7032470703125
-0.1079559326171875,-0.1942596435546875,-0.7501068115234375
-0.1335296630859375,-0.2918853759765625,-0.71148681640625
-0.168243408203125,-0.3528900146484375,-0.7221221923828125
-0.1539764404296875,-0.4276275634765625,-0.82293701171875
-0.09832763671875,-0.46282958984375,-0.786956787109375
-0.02960205078125,-0.469482421875,-0.9248504638671876
0.0112152099609375,-0.4612579345703125,-0.8501129150390625
0.0659332275390625,-0.441650390625,-0.7924957275390625
0.0903167724609375,-0.4092864990234375,-0.934539794921875
0.061279296875,-0.4218292236328125,-0.8896636962890625
0.0915679931640625,-0.417144775390625,-0.847381591796875
0.0625152587890625,-0.4183502197265625,-0.8789520263671875
0.0517578125,-0.4309844970703125,-0.8873138427734375
0.0408477783203125,-0.4298248291015625,-0.8881988525390625
0.08441162109375,-0.4098663330078125,-0.87884521484375
0.072113037109375,-0.4218292236328125,-0.867645263671875
