AccelerationX,AccelerationY,AccelerationZ
0.174713134765625,-0.9273223876953124,-0.3141021728515625
0.1845703125,-0.9172210693359376,-0.3061676025390625
0.19732666015625,-0.92047119140625,-0.331939697265625
0.1967620849609375,-0.9264068603515624,-0.3439788818359375
0.209747314453125,-0.94580078125,-0.3451385498046875
0.2137908935546875,-0.9195098876953124,-0.3150787353515625
0.192901611328125,-0.9127197265625,-0.29840087890625
0.1427154541015625,-0.905853271484375,-0.269073486328125
0.20318603515625,-0.9278564453125,-0.29150390625
0.18743896484375,-0.926849365234375,-0.3089752197265625
0.240264892578125,-0.9253692626953124,-0.3305816650390625
0.24310302734375,-0.895843505859375,-0.304656982421875
0.2247467041015625,-0.876739501953125,-0.29266357421875
0.1608734130859375,-0.8360595703125,-0.282958984375
0.147613525390625,-0.7519989013671875,-0.3220062255859375
0.197906494140625,-0.766510009765625,-0.3501739501953125
0.2184295654296875,-0.9390716552734376,-0.3786163330078125
0.336761474609375,-1.056854248046875,-0.3916778564453125
0.27056884765625,-1.0325469970703125,-0.3658599853515625
0.2364959716796875,-0.9642791748046876,-0.331787109375
0.1800384521484375,-0.88861083984375,-0.266693115234375
0.2435760498046875,-0.8994598388671875,-0.3029022216796875
0.196929931640625,-0.9215087890625,-0.26153564453125
0.2700347900390625,-1.0048828125,-0.2738800048828125
0.2573394775390625,-0.99993896484375,-0.1798095703125
0.2543182373046875,-1.1933746337890625,-0.067596435546875
0.246124267578125,-1.09454345703125,-0.0236053466796875
0.234222412109375,-1.1907806396484375,0.0773468017578125
0.2946929931640625,-1.2108917236328125,0.0330810546875
0.0401611328125,-1.022125244140625,0.0797119140625
0.1929931640625,-0.7793731689453125,0.024017333984375
0.4203338623046875,-0.926513671875,-0.6661224365234375
0.1035308837890625,-1.076263427734375,-0.3072509765625
0.3115997314453125,-0.895904541015625,-0.3503570556640625
0.2424163818359375,-0.675201416015625,-0.436370849609375
0.0102691650390625,-0.516754150390625,-0.2024383544921875
0.098297119140625,-0.5184783935546875,-0.194427490234375
0.1952056884765625,-0.674468994140625,-0.32464599609375
0.2273406982421875,-0.75677490234375,-0.2752227783203125
0.452728271484375,-0.96728515625,-0.3245849609375
0.5163421630859375,-1.3898162841796875,-0.3849639892578125
0.3573455810546875,-1.37750244140625,-0.280426025390625
0.47589111328125,-1.4725799560546875,-0.342529296875
0.4912109375,-1.10150146484375,-0.400390625
0.4326019287109375,-1.054718017578125,-0.2559967041015625
0.5621490478515625,-1.2570953369140625,-0.2165985107421875
0.470062255859375,-1.138458251953125,-0.0999603271484375
0.3230438232421875,-0.7888336181640625,-0.0797576904296875
0.199005126953125,-0.556640625,-0.08026123046875
0.16387939453125,-0.4473114013671875,-0.08746337890625
0.20416259765625,-0.402862548828125,-0.10589599609375
0.2407989501953125,-0.515716552734375,-0.10791015625
0.3040618896484375,-0.637542724609375,-0.091094970703125
0.3499603271484375,-1.0408935546875,-0.08544921875
0.3193817138671875,-1.1643524169921875,-0.0709686279296875
0.327239990234375,-1.2048187255859375,-0.217864990234375
0.20806884765625,-1.467987060546875,-0.1523284912109375
0.1618499755859375,-1.2948760986328125,-0.1939849853515625
0.1495513916015625,-1.319061279296875,-0.339691162109375
0.1224517822265625,-1.276641845703125,-0.384796142578125
0.2111968994140625,-0.9400634765625,-0.3211669921875
0.1333465576171875,-0.633392333984375,-0.2813720703125
0.037994384765625,-0.557769775390625,-0.2449493408203125
0.1703338623046875,-0.679473876953125,-0.279510498046875
0.277069091796875,-0.7761993408203125,-0.3636932373046875
0.1962432861328125,-0.83367919921875,-0.37548828125
0.1631011962890625,-1.131500244140625,-0.3155059814453125
0.25128173828125,-1.169830322265625,-0.3500518798828125
0.3009185791015625,-1.4354705810546875,-0.322540283203125
0.2860565185546875,-1.267791748046875,-0.433746337890625
0.2060699462890625,-1.2477569580078125,-0.2557373046875
0.3623199462890625,-1.5115203857421875,-0.189208984375
0.28704833984375,-1.59503173828125,0.0190277099609375
0.20013427734375,-1.2628021240234375,-0.0146484375
0.1298980712890625,-0.9284210205078124,-0.0977020263671875
0.0834808349609375,-0.7512664794921875,-0.113616943359375
0.1517791748046875,-0.65350341796875,-0.1092071533203125
0.2055206298828125,-0.5768280029296875,-0.0743408203125
0.2568359375,-0.6890106201171875,-0.040496826171875
0.27862548828125,-0.9043426513671876,-0.0939788818359375
0.3224945068359375,-1.03271484375,-0.1639404296875
0.2974853515625,-0.8294525146484375,-0.324920654296875
0.2407684326171875,-1.050811767578125,-0.2565155029296875
0.136810302734375,-0.920654296875,-0.2216949462890625
0.10418701171875,-1.1298675537109375,-0.2996826171875
0.206268310546875,-1.2703094482421875,-0.3910675048828125
0.3907012939453125,-1.3287353515625,-0.4956512451171875
0.2732086181640625,-0.948486328125,-0.2715301513671875
0.156158447265625,-0.6486053466796875,-0.18939208984375
0.0801239013671875,-0.7227783203125,-0.1656951904296875
0.0511627197265625,-0.8715057373046875,-0.0931549072265625
0.1937103271484375,-0.976806640625,-0.198333740234375
0.3323516845703125,-1.1332244873046875,-0.29644775390625
0.6244354248046875,-1.287994384765625,-0.512542724609375
0.572265625,-1.195037841796875,-0.55841064453125
0.48626708984375,-1.23309326171875,-0.5728607177734375
0.228607177734375,-1.019256591796875,-0.4116058349609375
0.183197021484375,-1.322662353515625,-0.241973876953125
0.1196441650390625,-1.53778076171875,-0.0235748291015625
0.1753082275390625,-1.279327392578125,-0.0055999755859375
0.1903228759765625,-0.9699554443359376,-0.20147705078125
0.1058502197265625,-0.770965576171875,-0.1914520263671875
0.1515960693359375,-0.7513580322265625,-0.2183074951171875
0.28167724609375,-0.761688232421875,-0.1291656494140625
0.280120849609375,-0.8012237548828125,-0.00732421875
0.308441162109375,-0.9578094482421876,0.0707550048828125
0.348175048828125,-1.07537841796875,0.0772857666015625
0.320404052734375,-0.96246337890625,-0.0527801513671875
0.3633270263671875,-1.16314697265625,-0.1665802001953125
0.3354644775390625,-1.0133514404296875,-0.3135986328125
0.1966552734375,-0.9139251708984376,-0.3618316650390625
0.1408538818359375,-1.148834228515625,-0.3477325439453125
0.159149169921875,-1.18463134765625,-0.298065185546875
0.0993194580078125,-0.9141387939453124,-0.332855224609375
0.0062713623046875,-0.58856201171875,-0.3505096435546875
0.026763916015625,-0.5103302001953125,-0.36328125
0.0864105224609375,-0.6021881103515625,-0.293914794921875
0.18170166015625,-0.785400390625,-0.244293212890625
0.3076324462890625,-1.0865478515625,-0.260040283203125
0.4402313232421875,-1.3445281982421875,-0.4352874755859375
0.444061279296875,-1.2654571533203125,-0.5073394775390625
0.3836822509765625,-1.034271240234375,-0.58782958984375
0.299285888671875,-1.082305908203125,-0.5897369384765625
0.2198638916015625,-0.9641571044921876,-0.37933349609375
0.2711181640625,-1.3871002197265625,-0.1275482177734375
0.296875,-1.3588104248046875,0.1158294677734375
0.361480712890625,-0.8133697509765625,-0.164642333984375
0.3158111572265625,-0.7165679931640625,-0.3894500732421875
-0.0388946533203125,-0.9593353271484376,-0.2690582275390625
-0.173248291015625,-0.69757080078125,-0.120758056640625
0.1417083740234375,-0.85479736328125,-0.1036376953125
0.03570556640625,-0.914947509765625,-0.050048828125
0.139678955078125,-1.2277679443359375,-0.0452728271484375
0.047760009765625,-1.2382965087890625,-0.0649261474609375
0.0200653076171875,-1.141357421875,-0.1730499267578125
-0.1702117919921875,-1.278961181640625,0.0857086181640625
0.1876220703125,-1.0489044189453125,0.0189208984375
0.32257080078125,-1.23077392578125,-0.00115966796875
0.104156494140625,-1.3484954833984375,-0.0355072021484375
0.064208984375,-1.1046295166015625,-0.259765625
0.0117950439453125,-0.6978607177734375,-0.321380615234375
-0.019378662109375,-0.55218505859375,-0.213043212890625
0.0088958740234375,-0.6159515380859375,-0.1618499755859375
0.1915130615234375,-0.8780059814453125,-0.27117919921875
0.2050933837890625,-1.1033172607421875,-0.2820892333984375
0.1989593505859375,-1.201416015625,-0.40966796875
0.318206787109375,-1.329925537109375,-0.6867218017578125
0.219940185546875,-1.202972412109375,-0.5774688720703125
0.305816650390625,-1.1759033203125,-0.5871734619140625
0.076568603515625,-1.109466552734375,-0.2815704345703125
0.109405517578125,-1.5451812744140625,-0.0491485595703125
0.141510009765625,-1.6499786376953125,0.2107086181640625
0.2306365966796875,-1.2893524169921875,0.2193450927734375
0.2743072509765625,-0.961212158203125,-0.03094482421875
0.23321533203125,-0.7957763671875,-0.17816162109375
0.2233734130859375,-0.74761962890625,-0.159271240234375
0.2926177978515625,-0.6991729736328125,-0.119873046875
0.3172607421875,-0.7380828857421875,0.0141448974609375
0.3578643798828125,-0.7859344482421875,0.11676025390625
0.3655242919921875,-0.822296142578125,0.1182098388671875
0.378814697265625,-0.9291839599609376,-0.0976104736328125
0.3680877685546875,-1.136260986328125,-0.209442138671875
0.3624420166015625,-1.1096954345703125,-0.3375701904296875
0.296356201171875,-1.0024261474609375,-0.486236572265625
0.15374755859375,-1.1905517578125,-0.2825927734375
0.1224365234375,-1.1530914306640625,-0.136322021484375
0.028106689453125,-0.8542938232421875,-0.14532470703125
0.0148468017578125,-0.69183349609375,-0.2656402587890625
0.0633087158203125,-0.7831878662109375,-0.2876739501953125
0.0482940673828125,-0.922119140625,-0.28826904296875
0.2103118896484375,-1.0225067138671875,-0.3567047119140625
0.2767486572265625,-1.140228271484375,-0.3752288818359375
0.3310699462890625,-1.2631683349609375,-0.4487762451171875
0.328704833984375,-1.2212066650390625,-0.4813690185546875
0.3191070556640625,-1.2521209716796875,-0.5420989990234375
0.2404937744140625,-1.12225341796875,-0.392364501953125
0.1882476806640625,-1.2962493896484375,-0.2527008056640625
0.1463623046875,-1.4368743896484375,-0.13067626953125
0.14703369140625,-1.214263916015625,-0.1333160400390625
0.1061553955078125,-0.847076416015625,-0.1555023193359375
0.1324615478515625,-0.6603240966796875,-0.1994171142578125
0.175750732421875,-0.6776580810546875,-0.1981658935546875
0.2256927490234375,-0.700531005859375,-0.157867431640625
0.2803192138671875,-0.8404693603515625,-0.073699951171875
0.287994384765625,-1.0163726806640625,0.0811309814453125
0.3392486572265625,-1.1872406005859375,0.13201904296875
0.362548828125,-1.017791748046875,-0.0078277587890625
0.3712615966796875,-1.1595306396484375,-0.1041412353515625
0.3268280029296875,-0.90447998046875,-0.2120361328125
0.222930908203125,-0.8995208740234375,-0.317657470703125
0.35577392578125,-1.089691162109375,-0.3751220703125
0.3106689453125,-1.1768798828125,-0.181884765625
0.0692901611328125,-0.88409423828125,-0.1976470947265625
-0.1111907958984375,-0.65936279296875,-0.27801513671875
-0.0205230712890625,-0.7019195556640625,-0.3227691650390625
-0.0572052001953125,-0.882720947265625,-0.2703399658203125
0.0459136962890625,-1.0342864990234375,-0.16754150390625
0.269622802734375,-1.2889862060546875,-0.227020263671875
0.4078216552734375,-1.389678955078125,-0.4117279052734375
0.2559356689453125,-1.087188720703125,-0.4952239990234375
0.3488311767578125,-1.15289306640625,-0.531219482421875
0.358154296875,-1.0508880615234375,-0.5118255615234375
0.276031494140625,-1.1457977294921875,-0.289947509765625
0.2799530029296875,-1.506561279296875,-0.1812744140625
0.084564208984375,-1.433624267578125,0.0374603271484375
0.0217132568359375,-0.976776123046875,-0.01934814453125
0.0743865966796875,-0.788970947265625,-0.124603271484375
0.11834716796875,-0.758453369140625,-0.124786376953125
0.2625885009765625,-0.72808837890625,-0.1232757568359375
0.3472747802734375,-0.850677490234375,-0.11566162109375
0.3329925537109375,-0.9253082275390624,-0.0343475341796875
0.3321380615234375,-1.0863494873046875,0.0264892578125
0.32623291015625,-1.019989013671875,0.003509521484375
0.2985382080078125,-0.954498291015625,-0.2199859619140625
0.3236846923828125,-0.95196533203125,-0.305816650390625
0.2927398681640625,-0.9021759033203124,-0.3633575439453125
0.2382659912109375,-0.999755859375,-0.3156890869140625
0.2529754638671875,-1.19329833984375,-0.26849365234375
0.0926055908203125,-1.0133209228515625,-0.3285675048828125
0.023651123046875,-0.7264556884765625,-0.319244384765625
0.1638946533203125,-0.633941650390625,-0.252777099609375
0.1505126953125,-0.6930694580078125,-0.2560882568359375
0.1193695068359375,-0.88922119140625,-0.1778411865234375
0.161865234375,-1.04742431640625,-0.176483154296875
0.2526092529296875,-1.28509521484375,-0.24072265625
0.3232269287109375,-1.3430938720703125,-0.40655517578125
0.3704833984375,-1.30584716796875,-0.531646728515625
0.447540283203125,-1.2680816650390625,-0.6605377197265625
0.20770263671875,-1.153228759765625,-0.369964599609375
0.1606597900390625,-1.292572021484375,-0.2173004150390625
0.1629638671875,-1.398529052734375,-0.195892333984375
0.163787841796875,-1.2016448974609375,-0.2242584228515625
0.1266632080078125,-0.842498779296875,-0.2368927001953125
0.1616973876953125,-0.69171142578125,-0.22845458984375
0.1493682861328125,-0.696929931640625,-0.1492919921875
0.2157440185546875,-0.6514129638671875,-0.1058807373046875
0.25714111328125,-0.750579833984375,-0.060516357421875
0.2940673828125,-0.927215576171875,-0.026580810546875
0.3334808349609375,-1.222259521484375,0.0457611083984375
0.3101043701171875,-1.1171722412109375,0.042144775390625
0.2808990478515625,-1.306976318359375,-0.067535400390625
0.2519378662109375,-1.0399322509765625,-0.2073211669921875
0.18365478515625,-0.8931121826171875,-0.3233642578125
0.3837738037109375,-1.22503662109375,-0.3434906005859375
0.3313446044921875,-1.15875244140625,-0.1097869873046875
0.196746826171875,-0.88458251953125,-0.1080322265625
-0.0184173583984375,-0.6949310302734375,-0.174407958984375
0.0207061767578125,-0.675079345703125,-0.2296905517578125
0.086761474609375,-0.7757568359375,-0.308197021484375
0.1312713623046875,-0.9272003173828124,-0.352386474609375
0.253936767578125,-1.05255126953125,-0.4380035400390625
0.3281097412109375,-1.3194427490234375,-0.6005096435546875
0.2644195556640625,-1.192108154296875,-0.5818328857421875
0.3454742431640625,-1.4998321533203125,-0.5757293701171875
0.248260498046875,-1.4353179931640625,-0.4217376708984375
0.0152130126953125,-1.2438201904296875,-0.1842041015625
0.0830841064453125,-1.4157257080078125,-0.0659332275390625
0.1133575439453125,-1.438873291015625,0.031768798828125
0.2652130126953125,-1.105926513671875,-0.0745086669921875
0.3148956298828125,-0.89263916015625,-0.1825714111328125
0.2707061767578125,-0.7529296875,-0.2183837890625
0.2381439208984375,-0.668426513671875,-0.1402587890625
0.293792724609375,-0.633941650390625,-0.0972900390625
0.301513671875,-0.6040802001953125,-0.0480804443359375
0.2999267578125,-0.7655487060546875,0.0072479248046875
0.3020477294921875,-0.9380950927734376,0.052764892578125
0.2849884033203125,-0.9780731201171876,-0.032684326171875
0.31781005859375,-1.209442138671875,-0.1534576416015625
0.2985992431640625,-1.14447021484375,-0.2569732666015625
0.2437286376953125,-1.0732574462890625,-0.3626556396484375
0.27178955078125,-1.2512359619140625,-0.340057373046875
0.255950927734375,-1.187957763671875,-0.2808685302734375
0.1703033447265625,-0.8814239501953125,-0.285552978515625
-0.0166778564453125,-0.66876220703125,-0.30560302734375
-0.0216064453125,-0.6934356689453125,-0.2637786865234375
0.073394775390625,-0.84423828125,-0.2997894287109375
0.13525390625,-0.90869140625,-0.3165435791015625
0.287750244140625,-1.038330078125,-0.408660888671875
0.364532470703125,-1.3934173583984375,-0.502685546875
0.34375,-1.258209228515625,-0.5095672607421875
0.3482666015625,-1.367462158203125,-0.5499725341796875
0.1887054443359375,-1.1235198974609375,-0.4427642822265625
0.2129974365234375,-1.0715484619140625,-0.341461181640625
0.227264404296875,-1.3246002197265625,-0.2331390380859375
0.3039703369140625,-1.3752899169921875,-0.181915283203125
0.2730865478515625,-1.2572784423828125,-0.238800048828125
0.1191253662109375,-0.947296142578125,-0.2521209716796875
0.1044769287109375,-0.744293212890625,-0.2252197265625
0.167022705078125,-0.690460205078125,-0.1703033447265625
0.262054443359375,-0.7881011962890625,-0.1507720947265625
0.3333282470703125,-0.9244842529296876,-0.085601806640625
0.3555145263671875,-1.1102294921875,-0.027313232421875
0.306304931640625,-1.1900177001953125,0.007293701171875
0.2108154296875,-1.038482666015625,-0.04315185546875
0.2492828369140625,-1.190032958984375,-0.0434722900390625
0.2557220458984375,-0.8714141845703125,-0.1293182373046875
0.1535186767578125,-0.7484130859375,-0.297515869140625
0.312774658203125,-1.07965087890625,-0.3097686767578125
0.329315185546875,-1.0010528564453125,-0.233612060546875
0.23809814453125,-0.8104705810546875,-0.2476043701171875
0.01776123046875,-0.660064697265625,-0.2523345947265625
0.01019287109375,-0.62725830078125,-0.30499267578125
0.0159759521484375,-0.75445556640625,-0.340667724609375
-0.01422119140625,-0.9472198486328124,-0.2842864990234375
0.1611785888671875,-1.1548919677734375,-0.356842041015625
0.2899017333984375,-1.512115478515625,-0.5323333740234375
0.2842864990234375,-1.2794036865234375,-0.59295654296875
0.283660888671875,-1.367401123046875,-0.629241943359375
0.152618408203125,-1.1793670654296875,-0.5218963623046875
0.19268798828125,-1.0587158203125,-0.3401336669921875
0.229156494140625,-1.2025299072265625,-0.25982666015625
0.2957000732421875,-1.3683013916015625,-0.2522125244140625
0.2496490478515625,-1.208953857421875,-0.1887969970703125
0.1274871826171875,-0.894561767578125,-0.18206787109375
0.105987548828125,-0.74993896484375,-0.1981658935546875
0.1251220703125,-0.718902587890625,-0.14813232421875
0.2290191650390625,-0.7219085693359375,-0.1056365966796875
0.290130615234375,-0.761749267578125,-0.0632781982421875
0.2987823486328125,-0.9463043212890624,-0.0040283203125
0.30731201171875,-1.156463623046875,0.05328369140625
0.310028076171875,-0.9705657958984376,-0.0265045166015625
0.365234375,-1.1452789306640625,-0.16680908203125
0.2884063720703125,-0.89697265625,-0.2652130126953125
0.3475341796875,-0.972625732421875,-0.2920074462890625
0.4115753173828125,-1.1124267578125,-0.2927093505859375
0.22021484375,-0.9861907958984376,-0.21331787109375
0.063323974609375,-0.7656707763671875,-0.239410400390625
-0.011962890625,-0.5960540771484375,-0.275115966796875
0.0766448974609375,-0.641326904296875,-0.358245849609375
0.0522308349609375,-0.757415771484375,-0.34356689453125
0.31597900390625,-1.019317626953125,-0.3931427001953125
0.432830810546875,-1.2233428955078125,-0.4401397705078125
0.4099884033203125,-1.3974761962890625,-0.50732421875
0.2632904052734375,-1.1529083251953125,-0.515716552734375
0.350677490234375,-1.3656768798828125,-0.5962371826171875
0.2886810302734375,-1.1441192626953125,-0.529998779296875
0.2720184326171875,-1.22076416015625,-0.323638916015625
0.29150390625,-1.4951629638671875,-0.2439117431640625
0.241943359375,-1.4297027587890625,-0.1549072265625
0.153167724609375,-0.982574462890625,-0.16162109375
0.129150390625,-0.7367401123046875,-0.19793701171875
0.1297454833984375,-0.6354217529296875,-0.17437744140625
0.2111053466796875,-0.6448516845703125,-0.1399993896484375
0.2678985595703125,-0.6964569091796875,-0.1019439697265625
0.31689453125,-0.823516845703125,-0.036102294921875
0.315399169921875,-0.937591552734375,0.0134429931640625
0.311737060546875,-0.906585693359375,0.021240234375
0.2978973388671875,-0.83154296875,-0.0780792236328125
0.349609375,-1.107086181640625,-0.1126708984375
0.310638427734375,-0.95367431640625,-0.1822509765625
0.3470611572265625,-1.1486663818359375,-0.2594451904296875
0.3896636962890625,-1.314300537109375,-0.300811767578125
0.3015289306640625,-1.1339111328125,-0.34210205078125
0.156097412109375,-0.7731475830078125,-0.27685546875
0.006927490234375,-0.609283447265625,-0.221588134765625
-0.00518798828125,-0.7181549072265625,-0.19915771484375
-0.0489501953125,-0.873931884765625,-0.167083740234375
0.1720428466796875,-1.03680419921875,-0.301422119140625
0.345428466796875,-1.1205902099609375,-0.5001678466796875
0.54595947265625,-1.291168212890625,-0.808349609375
0.342864990234375,-1.2537078857421875,-0.736846923828125
0.25689697265625,-1.37554931640625,-0.5857696533203125
-0.01373291015625,-1.083953857421875,-0.2030029296875
-0.021697998046875,-0.9169769287109376,-0.1455230712890625
0.1019439697265625,-1.3414764404296875,-0.11895751953125
0.271728515625,-1.78924560546875,-0.03961181640625
0.4079742431640625,-1.3321533203125,-0.1669158935546875
0.3015594482421875,-0.9105224609375,-0.29693603515625
0.0842437744140625,-0.666259765625,-0.263671875
0.1116485595703125,-0.5406341552734375,-0.201171875
0.245758056640625,-0.5774078369140625,-0.1372222900390625
0.32147216796875,-0.7532806396484375,-0.05517578125
0.3862152099609375,-0.9562530517578124,0.03314208984375
0.2952880859375,-0.9045562744140624,0.085235595703125
0.335205078125,-0.899322509765625,-0.05279541015625
0.3443756103515625,-0.952850341796875,-0.1287078857421875
0.3857879638671875,-0.931060791015625,-0.3538055419921875
0.4098358154296875,-1.104766845703125,-0.6054229736328125
0.411376953125,-1.3867645263671875,-0.4319000244140625
0.3307342529296875,-1.149871826171875,-0.229095458984375
0.0337371826171875,-0.8196868896484375,-0.1727752685546875
-0.163543701171875,-0.5763092041015625,-0.21466064453125
-0.109222412109375,-0.654876708984375,-0.164764404296875
-0.0503997802734375,-0.790924072265625,-0.140716552734375
0.1275482177734375,-1.0240936279296875,-0.151519775390625
0.34637451171875,-1.02789306640625,-0.2979278564453125
0.54083251953125,-1.1274566650390625,-0.5715179443359375
0.3908538818359375,-1.117218017578125,-0.529510498046875
0.416900634765625,-1.39544677734375,-0.6059112548828125
0.18316650390625,-1.273773193359375,-0.37200927734375
0.059326171875,-1.0714874267578125,-0.248260498046875
0.23077392578125,-1.4666290283203125,-0.2468414306640625
0.1386566162109375,-1.5514068603515625,-0.1187286376953125
0.0577545166015625,-1.2359466552734375,-0.0635833740234375
0.0694427490234375,-0.9203948974609376,-0.161865234375
0.0783538818359375,-0.8240814208984375,-0.226898193359375
0.1649169921875,-0.8607330322265625,-0.20697021484375
0.1775360107421875,-0.8661346435546875,-0.0894622802734375
0.0082550048828125,-0.7635345458984375,0.0432281494140625
0.0992279052734375,-0.6776580810546875,0.0344696044921875
0.4335784912109375,-0.707305908203125,-0.1340484619140625
0.47100830078125,-0.669189453125,-0.34442138671875
0.44256591796875,-0.9478759765625,-0.249725341796875
0.412689208984375,-1.236297607421875,-0.121826171875
0.23419189453125,-1.4596405029296875,-0.1178131103515625
0.254180908203125,-1.5036773681640625,-0.247283935546875
0.34674072265625,-1.5357208251953125,-0.4992828369140625
0.351409912109375,-1.03668212890625,-0.2344512939453125
0.2283172607421875,-0.6072845458984375,-0.3225250244140625
0.13580322265625,-0.832672119140625,-0.16436767578125
0.1556549072265625,-0.92022705078125,-0.0744171142578125
0.3725433349609375,-0.9586639404296876,-0.039825439453125
0.5054168701171875,-0.82073974609375,-0.122100830078125
0.552520751953125,-0.8780059814453125,-0.232635498046875
0.5881805419921875,-1.0767822265625,-0.3685760498046875
0.6427459716796875,-1.2130279541015625,-0.5205230712890625
0.2896270751953125,-0.853515625,-0.4987030029296875
0.070831298828125,-1.1582794189453125,-0.4718475341796875
0.099609375,-1.66009521484375,-0.319793701171875
0.01141357421875,-1.5446014404296875,-0.286224365234375
0.00225830078125,-1.27001953125,-0.3374786376953125
0.073211669921875,-0.926055908203125,-0.456146240234375
0.114501953125,-0.6973724365234375,-0.5694580078125
0.074737548828125,-0.56781005859375,-0.445648193359375
0.0511627197265625,-0.44769287109375,-0.2276763916015625
0.0821685791015625,-0.3462677001953125,-0.1281890869140625
0.1485595703125,-0.31707763671875,-0.1657257080078125
0.3354034423828125,-0.4514007568359375,-0.2298126220703125
0.537200927734375,-0.8798980712890625,-0.2954559326171875
0.689056396484375,-1.399810791015625,-0.40264892578125
0.6760711669921875,-2.093017578125,-0.217926025390625
0.3609771728515625,-1.61285400390625,-0.0941162109375
-0.0344390869140625,-0.8370361328125,-0.365997314453125
-0.0326690673828125,-0.9955902099609376,-0.2002716064453125
-0.2518157958984375,-1.1120147705078125,-0.0061187744140625
-0.1010284423828125,-0.7601318359375,0.0322265625
0.314239501953125,-0.4998931884765625,-0.0949554443359375
0.540008544921875,-0.4073486328125,-0.229766845703125
0.49737548828125,-0.4125213623046875,-0.2578125
0.4263916015625,-0.486663818359375,-0.263641357421875
0.3839263916015625,-0.7454071044921875,-0.265167236328125
0.3018341064453125,-1.1640472412109375,-0.170989990234375
0.2400970458984375,-1.5157318115234375,-0.1764068603515625
0.31927490234375,-1.524017333984375,-0.454864501953125
0.32440185546875,-1.2549285888671875,-0.66973876953125
0.21331787109375,-0.950225830078125,-0.6437530517578125
0.28857421875,-1.401947021484375,-0.464202880859375
0.0478973388671875,-1.567718505859375,-0.1977996826171875
-0.06402587890625,-1.332855224609375,-0.1306915283203125
-0.082000732421875,-0.9461212158203124,-0.1544952392578125
-0.0340728759765625,-0.6797637939453125,-0.2465667724609375
0.077667236328125,-0.5774688720703125,-0.2946929931640625
0.1844329833984375,-0.5386199951171875,-0.29351806640625
0.221343994140625,-0.5406951904296875,-0.20257568359375
0.2367706298828125,-0.580169677734375,-0.11773681640625
0.304840087890625,-0.787017822265625,-0.0674591064453125
0.371246337890625,-0.9506988525390624,0.02349853515625
0.47430419921875,-1.1684722900390625,-0.025909423828125
0.508056640625,-1.4264984130859375,-0.086761474609375
0.5503082275390625,-1.3721466064453125,-0.6469879150390625
0.5338897705078125,-1.106170654296875,-0.80963134765625
0.3015899658203125,-0.9981689453125,-0.1178131103515625
0.0110015869140625,-0.8726806640625,0.15704345703125
-0.3010711669921875,-0.6355438232421875,0.046356201171875
-0.1264190673828125,-0.6706085205078125,-0.0351409912109375
-0.0754241943359375,-0.7015533447265625,-0.0920562744140625
0.205535888671875,-0.81658935546875,-0.2929840087890625
0.634063720703125,-1.0656585693359375,-0.49176025390625
0.5688629150390625,-1.112213134765625,-0.4915618896484375
0.4889678955078125,-1.2128448486328125,-0.4184112548828125
0.4313812255859375,-1.3123321533203125,-0.412933349609375
0.411102294921875,-1.2038726806640625,-0.5511932373046875
0.230926513671875,-1.1204681396484375,-0.4085540771484375
0.10968017578125,-1.18060302734375,-0.3387298583984375
0.0215301513671875,-1.3372344970703125,-0.18878173828125
-0.0370025634765625,-1.2986602783203125,-0.17816162109375
-0.0356903076171875,-1.015289306640625,-0.208831787109375
0.10382080078125,-0.8636322021484375,-0.221710205078125
0.1441802978515625,-0.7459564208984375,-0.1930999755859375
0.245330810546875,-0.60711669921875,-0.2247161865234375
0.2725372314453125,-0.5464935302734375,-0.20416259765625
0.2772064208984375,-0.5340576171875,-0.1673126220703125
0.317138671875,-0.6714324951171875,-0.149017333984375
0.3580322265625,-0.8240966796875,-0.215789794921875
0.40008544921875,-1.2149810791015625,-0.2299957275390625
0.4295196533203125,-1.47698974609375,-0.272186279296875
0.4205169677734375,-1.2790985107421875,-0.553131103515625
0.0438385009765625,-1.1131744384765625,-0.3409423828125
-0.1758270263671875,-1.0806427001953125,0.0182037353515625
-0.164276123046875,-0.878326416015625,-0.0386810302734375
-0.190704345703125,-0.759552001953125,-0.064300537109375
0.0276947021484375,-0.7906646728515625,-0.1172637939453125
0.3529510498046875,-0.8253326416015625,-0.25762939453125
0.533966064453125,-0.808929443359375,-0.4101409912109375
0.39288330078125,-0.802764892578125,-0.4459381103515625
0.316162109375,-0.92987060546875,-0.451385498046875
0.541290283203125,-1.10894775390625,-0.683502197265625
0.568450927734375,-1.0430450439453125,-0.534912109375
0.60791015625,-1.07562255859375,-0.499755859375
0.5922393798828125,-1.1751708984375,-0.3989410400390625
0.43206787109375,-1.3197784423828125,-0.231292724609375
0.308837890625,-1.26959228515625,-0.233642578125
0.0849151611328125,-1.1270904541015625,-0.1745758056640625
0.0585784912109375,-0.8901824951171875,-0.2191162109375
0.1332855224609375,-0.82476806640625,-0.2335968017578125
0.1919403076171875,-0.7916259765625,-0.20989990234375
0.2515716552734375,-0.800506591796875,-0.193359375
0.257904052734375,-0.8539886474609375,-0.1518096923828125
0.227813720703125,-0.9223175048828124,-0.1129913330078125
0.2677001953125,-0.9764556884765624,-0.0834808349609375
0.3429718017578125,-0.8895263671875,-0.20281982421875
0.32958984375,-1.071197509765625,-0.2263031005859375
0.2502593994140625,-0.9444580078125,-0.247589111328125
0.1939697265625,-1.066375732421875,-0.2105560302734375
0.2655792236328125,-1.1437835693359375,-0.3532867431640625
0.381317138671875,-1.1420135498046875,-0.43121337890625
0.02471923828125,-0.810546875,-0.2473907470703125
-0.1695709228515625,-0.7109832763671875,-0.1434783935546875
-0.1978912353515625,-0.7970428466796875,-0.1657257080078125
-0.011474609375,-0.95672607421875,-0.2145843505859375
0.216094970703125,-1.0386505126953125,-0.2940521240234375
0.43707275390625,-0.9734344482421876,-0.45501708984375
0.5984039306640625,-1.2114410400390625,-0.532379150390625
0.361846923828125,-1.14190673828125,-0.56591796875
0.22186279296875,-1.3206024169921875,-0.546417236328125
0.0771636962890625,-1.1718597412109375,-0.432647705078125
0.0933990478515625,-1.1263275146484375,-0.2956085205078125
0.178680419921875,-1.2532501220703125,-0.245635986328125
0.169525146484375,-1.1149749755859375,-0.218505859375
0.15069580078125,-0.8321990966796875,-0.2610015869140625
0.1253662109375,-0.7082061767578125,-0.2751312255859375
0.1302642822265625,-0.707855224609375,-0.2391204833984375
0.17041015625,-0.705169677734375,-0.183074951171875
0.24713134765625,-0.8123626708984375,-0.1479949951171875
0.3026885986328125,-1.0171051025390625,-0.1910400390625
0.2962188720703125,-1.275177001953125,-0.1381683349609375
0.239013671875,-1.1283416748046875,-0.0909881591796875
0.197357177734375,-1.2981109619140625,-0.0528564453125
0.1981964111328125,-1.1561279296875,-0.1406402587890625
0.1877288818359375,-0.92041015625,-0.3341064453125
0.2279815673828125,-0.8791961669921875,-0.482391357421875
0.2864532470703125,-0.9361114501953124,-0.40093994140625
0.2022857666015625,-0.7445526123046875,-0.236724853515625
0.0463409423828125,-0.636688232421875,-0.136505126953125
-0.001800537109375,-0.7081451416015625,-0.1934967041015625
-0.0075531005859375,-0.7829742431640625,-0.254913330078125
0.058349609375,-0.920562744140625,-0.2885894775390625
0.147216796875,-1.0548248291015625,-0.3087158203125
0.264068603515625,-1.37872314453125,-0.44482421875
0.3262176513671875,-1.3790435791015625,-0.604827880859375
0.33343505859375,-1.495208740234375,-0.55792236328125
0.2891082763671875,-1.311859130859375,-0.44244384765625
0.069488525390625,-1.2104644775390625,-0.2593841552734375
0.070037841796875,-1.269805908203125,-0.1478118896484375
0.0966339111328125,-1.193206787109375,-0.0926666259765625
0.0999908447265625,-0.8565673828125,-0.13031005859375
0.191131591796875,-0.70343017578125,-0.2040557861328125
0.1980133056640625,-0.664825439453125,-0.248382568359375
0.2256317138671875,-0.66937255859375,-0.19866943359375
0.2878570556640625,-0.7252197265625,-0.1513671875
0.274688720703125,-0.8104095458984375,-0.0926666259765625
0.2806854248046875,-0.9984283447265624,-0.0543365478515625
0.2613677978515625,-1.19927978515625,0.0138397216796875
0.2824554443359375,-1.132720947265625,-0.115997314453125
0.273773193359375,-1.2826385498046875,-0.1184844970703125
0.22821044921875,-1.0712890625,-0.216064453125
0.2196502685546875,-1.1082763671875,-0.3818206787109375
0.2432098388671875,-1.1329345703125,-0.31317138671875
0.124755859375,-0.9558868408203124,-0.138427734375
0.1417083740234375,-0.7777252197265625,-0.1350860595703125
0.084136962890625,-0.7135467529296875,-0.2277984619140625
0.1620330810546875,-0.8195953369140625,-0.26385498046875
0.286865234375,-0.877777099609375,-0.3491668701171875
0.4076995849609375,-0.94476318359375,-0.408233642578125
0.4700775146484375,-1.1877899169921875,-0.466796875
0.4624176025390625,-1.215057373046875,-0.5427398681640625
0.371612548828125,-1.1858062744140625,-0.5149688720703125
0.1724700927734375,-1.24957275390625,-0.35125732421875
0.025238037109375,-1.13671875,-0.197509765625
0.193603515625,-1.3607025146484375,-0.140167236328125
0.4004669189453125,-1.5947265625,-0.1770477294921875
0.3340606689453125,-1.2612762451171875,-0.2686767578125
0.195770263671875,-0.9809722900390624,-0.2956085205078125
0.1251068115234375,-0.8415985107421875,-0.2621307373046875
0.1950531005859375,-0.792266845703125,-0.1753997802734375
0.27789306640625,-0.8123016357421875,-0.0895233154296875
0.34637451171875,-0.8413543701171875,-0.0189208984375
0.349395751953125,-0.9833526611328124,0.0289306640625
0.2644195556640625,-1.2112274169921875,0.081878662109375
0.1610260009765625,-1.0346832275390625,0.055023193359375
0.2365875244140625,-1.2264556884765625,0.0460357666015625
0.251739501953125,-1.009368896484375,-0.1269683837890625
0.21875,-1.060150146484375,-0.2548828125
0.40484619140625,-1.1010284423828125,-0.3565673828125
0.3371734619140625,-0.97735595703125,-0.295806884765625
0.1248779296875,-0.7504425048828125,-0.188995361328125
-0.0169830322265625,-0.6599578857421875,-0.132720947265625
0.0453033447265625,-0.759613037109375,-0.205535888671875
0.207672119140625,-0.9916229248046876,-0.373291015625
0.175048828125,-1.1780242919921875,-0.3027496337890625
0.2473602294921875,-1.2283477783203125,-0.320404052734375
0.322540283203125,-1.435760498046875,-0.588104248046875
0.3005828857421875,-1.1913604736328125,-0.6268157958984375
0.4306793212890625,-1.36187744140625,-0.7173004150390625
0.2094573974609375,-1.146484375,-0.4371490478515625
0.11871337890625,-1.34027099609375,-0.2696380615234375
0.1656646728515625,-1.5022430419921875,-0.1627197265625
0.198516845703125,-1.3789825439453125,-0.05950927734375
0.0880584716796875,-0.974578857421875,-0.0830078125
0.09228515625,-0.7764892578125,-0.224212646484375
0.154693603515625,-0.771026611328125,-0.22613525390625
0.270263671875,-0.8098297119140625,-0.2085113525390625
0.34063720703125,-0.9422760009765624,-0.091796875
0.37744140625,-1.0300750732421875,0.02508544921875
0.359283447265625,-1.229339599609375,0.09930419921875
0.2728118896484375,-1.1185302734375,0.06854248046875
0.2830352783203125,-1.274444580078125,-0.037078857421875
0.2740936279296875,-1.006500244140625,-0.15301513671875
0.1922607421875,-0.809814453125,-0.314666748046875
0.394500732421875,-0.9763641357421876,-0.4405517578125
0.237396240234375,-0.9183349609375,-0.1902313232421875
0.11029052734375,-0.770965576171875,-0.0958251953125
-0.01080322265625,-0.712799072265625,-0.0955963134765625
-0.0001068115234375,-0.799957275390625,-0.2176055908203125
0.119232177734375,-1.00347900390625,-0.2991943359375
0.159820556640625,-1.1371002197265625,-0.31842041015625
0.3151397705078125,-1.195587158203125,-0.42742919921875
0.3351593017578125,-1.3635711669921875,-0.585479736328125
0.251190185546875,-1.2055511474609375,-0.6059722900390625
0.271026611328125,-1.5003814697265625,-0.618316650390625
0.148651123046875,-1.358184814453125,-0.4183349609375
0.11187744140625,-1.1579132080078125,-0.2784423828125
0.1497650146484375,-1.328399658203125,-0.2271881103515625
0.19366455078125,-1.3011627197265625,-0.138671875
0.1860504150390625,-0.9206695556640624,-0.1642913818359375
0.1626434326171875,-0.761383056640625,-0.231475830078125
0.15972900390625,-0.7736663818359375,-0.235382080078125
0.2010955810546875,-0.7684173583984375,-0.17364501953125
0.3035430908203125,-0.8526763916015625,-0.112396240234375
0.3209381103515625,-0.9408111572265624,-0.02362060546875
0.28448486328125,-1.13372802734375,0.071502685546875
0.27056884765625,-1.227294921875,0.0966644287109375
0.1576995849609375,-1.1632537841796875,0.024322509765625
0.2055816650390625,-1.1086883544921875,-0.0534515380859375
0.2404632568359375,-0.9949798583984376,-0.2287445068359375
0.276458740234375,-1.0565643310546875,-0.337310791015625
0.27178955078125,-1.1161651611328125,-0.295562744140625
0.1967010498046875,-0.8723907470703125,-0.1942596435546875
0.04315185546875,-0.6580810546875,-0.136383056640625
-0.029296875,-0.6881256103515625,-0.15777587890625
0.0416259765625,-0.820037841796875,-0.222412109375
0.0720672607421875,-0.909088134765625,-0.3129730224609375
0.1503143310546875,-1.1220703125,-0.3881378173828125
0.320648193359375,-1.432708740234375,-0.5301666259765625
0.22650146484375,-1.3238677978515625,-0.616455078125
0.0977630615234375,-1.3690185546875,-0.5408477783203125
0.164337158203125,-1.4277801513671875,-0.5016937255859375
0.0996551513671875,-1.1448822021484375,-0.2704010009765625
0.184173583984375,-1.1782989501953125,-0.22576904296875
0.2806243896484375,-1.2947998046875,-0.1721343994140625
0.2630462646484375,-1.1613616943359375,-0.152557373046875
0.140838623046875,-0.9053497314453124,-0.163543701171875
0.156005859375,-0.812652587890625,-0.1899566650390625
0.155609130859375,-0.8133087158203125,-0.1328582763671875
0.2243499755859375,-0.8032989501953125,-0.0616302490234375
0.286834716796875,-0.8368988037109375,0.001068115234375
0.32403564453125,-0.9650115966796876,0.0457000732421875
0.2998199462890625,-1.0879669189453125,0.080352783203125
0.2446746826171875,-0.9045867919921876,0.004638671875
0.313873291015625,-1.26763916015625,-0.066650390625
0.3591461181640625,-1.170074462890625,-0.1993408203125
0.302886962890625,-0.99786376953125,-0.3933258056640625
0.3567962646484375,-0.9932708740234376,-0.485992431640625
0.2119903564453125,-0.950836181640625,-0.317474365234375
0.0340118408203125,-0.73291015625,-0.1783599853515625
-0.09014892578125,-0.6699981689453125,-0.116546630859375
-0.0323944091796875,-0.7565155029296875,-0.190643310546875
0.1395721435546875,-0.90716552734375,-0.2889251708984375
0.1757659912109375,-1.0194854736328125,-0.31146240234375
0.2493743896484375,-0.9879150390625,-0.3691864013671875
0.2733001708984375,-1.184478759765625,-0.4635162353515625
0.2784881591796875,-1.216339111328125,-0.500823974609375
0.293548583984375,-1.335845947265625,-0.48895263671875
0.2496185302734375,-1.3651123046875,-0.4643402099609375
0.152435302734375,-1.1106719970703125,-0.3162994384765625
0.145263671875,-1.15057373046875,-0.2766571044921875
0.1904296875,-1.3105926513671875,-0.2568511962890625
0.195404052734375,-1.2197113037109375,-0.155975341796875
0.1708221435546875,-0.899810791015625,-0.174041748046875
0.14794921875,-0.775054931640625,-0.210418701171875
0.1527862548828125,-0.730194091796875,-0.1867218017578125
0.2274627685546875,-0.72247314453125,-0.1564483642578125
0.280670166015625,-0.7444000244140625,-0.108917236328125
0.267547607421875,-0.8414154052734375,-0.0479278564453125
0.2269744873046875,-1.0313720703125,0.0121917724609375
0.2495880126953125,-1.1133270263671875,0.0332794189453125
0.2828826904296875,-1.17340087890625,-0.004180908203125
0.3278350830078125,-1.173309326171875,-0.0917510986328125
0.276824951171875,-0.888519287109375,-0.2747039794921875
0.2249908447265625,-0.997650146484375,-0.411102294921875
0.322998046875,-1.1750030517578125,-0.357696533203125
0.272216796875,-0.9371185302734376,-0.2116241455078125
0.0080413818359375,-0.698638916015625,-0.114105224609375
-0.2266387939453125,-0.6539764404296875,-0.1051483154296875
-0.0653533935546875,-0.7718048095703125,-0.115966796875
-0.06475830078125,-0.9716949462890624,-0.128692626953125
0.074615478515625,-1.10498046875,-0.196044921875
0.22845458984375,-1.1443023681640625,-0.37860107421875
0.4246368408203125,-1.3337860107421875,-0.6087188720703125
0.285430908203125,-1.1381988525390625,-0.6285247802734375
0.31640625,-1.33026123046875,-0.5508270263671875
0.18902587890625,-1.203033447265625,-0.3525543212890625
0.0514373779296875,-1.038360595703125,-0.20709228515625
0.16534423828125,-1.354583740234375,-0.1921844482421875
0.19683837890625,-1.308685302734375,-0.1354827880859375
0.26416015625,-1.17608642578125,-0.136322021484375
0.2058868408203125,-0.890625,-0.177703857421875
0.1645965576171875,-0.7384796142578125,-0.1728668212890625
0.1785736083984375,-0.6700897216796875,-0.136688232421875
0.270538330078125,-0.713348388671875,-0.0812225341796875
0.328094482421875,-0.7956085205078125,-0.0220184326171875
0.3563995361328125,-0.9753875732421876,-0.0023651123046875
0.31951904296875,-1.1419219970703125,0.0068206787109375
0.2763824462890625,-1.0323486328125,-0.0373687744140625
0.2785797119140625,-1.2260284423828125,-0.0599365234375
0.148773193359375,-1.0412139892578125,-0.1376495361328125
0.0503997802734375,-0.7738800048828125,-0.4179534912109375
0.3542633056640625,-1.1469879150390625,-0.35821533203125
0.1977081298828125,-1.2012176513671875,-0.132781982421875
0.062255859375,-1.043212890625,-0.1764984130859375
-0.0440521240234375,-0.8033447265625,-0.23779296875
0.177459716796875,-0.7476654052734375,-0.273040771484375
0.1945953369140625,-0.7897491455078125,-0.2371063232421875
0.2287445068359375,-0.91534423828125,-0.2497100830078125
0.307098388671875,-1.0586395263671875,-0.3129730224609375
0.3372039794921875,-1.294708251953125,-0.38592529296875
0.3442535400390625,-1.3031158447265625,-0.5343170166015625
0.3577117919921875,-1.3783721923828125,-0.5386505126953125
0.3315887451171875,-1.359771728515625,-0.5128021240234375
0.0075225830078125,-1.0959320068359375,-0.25726318359375
0.0851593017578125,-1.1024627685546875,-0.1534423828125
0.2366180419921875,-1.3005523681640625,-0.146087646484375
0.3000640869140625,-1.22857666015625,-0.19232177734375
0.2520599365234375,-1.0170440673828125,-0.2406768798828125
0.1693267822265625,-0.8524627685546875,-0.2007293701171875
0.09417724609375,-0.74432373046875,-0.130462646484375
0.203460693359375,-0.785552978515625,-0.038482666015625
0.2419281005859375,-0.826934814453125,0.02642822265625
0.3068084716796875,-0.93414306640625,0.0683135986328125
0.3153839111328125,-1.0984954833984375,0.0924224853515625
0.300872802734375,-1.110443115234375,0.041595458984375
0.3031158447265625,-1.0743865966796875,-0.1246490478515625
0.2915496826171875,-1.1043853759765625,-0.174346923828125
0.2581939697265625,-0.951416015625,-0.235443115234375
0.2931671142578125,-0.986114501953125,-0.2935943603515625
0.3511199951171875,-1.13275146484375,-0.3055267333984375
0.310791015625,-1.0102996826171875,-0.302703857421875
0.15423583984375,-0.69610595703125,-0.219635009765625
0.0205078125,-0.5801849365234375,-0.1576385498046875
0.030975341796875,-0.7240753173828125,-0.1824188232421875
0.03216552734375,-0.9623260498046876,-0.2082366943359375
0.1537933349609375,-1.0590057373046875,-0.2927398681640625
0.206207275390625,-1.1894378662109375,-0.3560333251953125
0.3201141357421875,-1.35040283203125,-0.5591888427734375
0.2436370849609375,-1.1099700927734375,-0.5494842529296875
0.266082763671875,-1.2842254638671875,-0.533782958984375
0.1750640869140625,-1.1334075927734375,-0.4045257568359375
0.2393951416015625,-1.298675537109375,-0.2416839599609375
0.2950286865234375,-1.436004638671875,-0.2125091552734375
0.30706787109375,-1.322998046875,-0.2289276123046875
0.1587982177734375,-1.0365753173828125,-0.2174530029296875
0.0820770263671875,-0.838897705078125,-0.20361328125
0.038238525390625,-0.7598724365234375,-0.1374969482421875
0.1526947021484375,-0.7566680908203125,-0.062744140625
0.2028045654296875,-0.85833740234375,-0.0173187255859375
0.27130126953125,-1.0016937255859375,-0.0400543212890625
0.272216796875,-1.1276397705078125,-0.0137481689453125
0.2849884033203125,-1.03460693359375,-0.0494537353515625
0.285186767578125,-1.055389404296875,-0.1629486083984375
0.307708740234375,-1.035064697265625,-0.243316650390625
0.275390625,-0.875152587890625,-0.35308837890625
0.280059814453125,-0.9628448486328124,-0.3880615234375
0.326904296875,-1.17657470703125,-0.2947845458984375
0.171051025390625,-0.97259521484375,-0.156463623046875
-0.02520751953125,-0.72161865234375,-0.1357269287109375
0.0437774658203125,-0.6662139892578125,-0.1670379638671875
0.158843994140625,-0.73236083984375,-0.2436065673828125
0.2836151123046875,-0.9250030517578124,-0.3323211669921875
0.3202056884765625,-1.0108489990234375,-0.3293609619140625
0.340789794921875,-1.125152587890625,-0.37286376953125
0.3934478759765625,-1.398681640625,-0.55157470703125
0.3193817138671875,-1.248992919921875,-0.5742645263671875
0.282684326171875,-1.295989990234375,-0.5451812744140625
0.05364990234375,-1.172271728515625,-0.36016845703125
-0.0215301513671875,-1.1616973876953125,-0.16607666015625
0.216461181640625,-1.3925323486328125,-0.19342041015625
0.344329833984375,-1.4464569091796875,-0.228424072265625
0.2467041015625,-1.0946502685546875,-0.252777099609375
0.1839447021484375,-0.888031005859375,-0.3036651611328125
0.082977294921875,-0.797821044921875,-0.248748779296875
0.139312744140625,-0.7168731689453125,-0.12921142578125
0.2524871826171875,-0.7645416259765625,-0.0718536376953125
0.2935943603515625,-0.836700439453125,-0.002227783203125
0.3057098388671875,-1.0390625,0.038330078125
0.2499542236328125,-1.0874176025390625,0.073211669921875
0.2241973876953125,-0.8694305419921875,0.0126190185546875
0.3530426025390625,-1.130401611328125,-0.1268310546875
0.3833160400390625,-0.92852783203125,-0.2855377197265625
0.278961181640625,-0.8236846923828125,-0.3574676513671875
0.390594482421875,-1.0329132080078125,-0.4260101318359375
0.328643798828125,-1.1620941162109375,-0.226837158203125
0.185455322265625,-1.0739288330078125,-0.2107696533203125
-0.0605316162109375,-0.841461181640625,-0.253082275390625
0.05059814453125,-0.748504638671875,-0.3141021728515625
0.023681640625,-0.800750732421875,-0.24554443359375
0.12603759765625,-0.990936279296875,-0.2451934814453125
0.276397705078125,-1.1406707763671875,-0.337860107421875
0.411590576171875,-1.427093505859375,-0.500213623046875
0.3150634765625,-1.1768646240234375,-0.541961669921875
0.2852783203125,-1.1092071533203125,-0.5888519287109375
0.24127197265625,-1.0702972412109375,-0.542694091796875
0.22607421875,-0.849090576171875,-0.4062042236328125
0.41839599609375,-1.4522247314453125,-0.361358642578125
0.4919586181640625,-1.7624969482421875,-0.2489471435546875
0.2916259765625,-1.3934173583984375,-0.1698455810546875
0.07611083984375,-0.9643096923828124,-0.160888671875
-0.014801025390625,-0.80169677734375,-0.12274169921875
0.0770111083984375,-0.7607421875,-0.0662994384765625
0.216827392578125,-0.7566680908203125,-0.05126953125
0.3555450439453125,-0.8321380615234375,-0.0708160400390625
0.4080047607421875,-1.0985107421875,-0.03692626953125
0.3442535400390625,-1.1988677978515625,0.0229339599609375
0.2294921875,-1.0084991455078125,0.0356903076171875
0.240264892578125,-1.116546630859375,-0.0124053955078125
0.250152587890625,-0.805084228515625,-0.2534332275390625
0.2911224365234375,-0.4884185791015625,-0.657318115234375
0.4492950439453125,-1.06005859375,-0.58929443359375
0.39703369140625,-1.19561767578125,-0.2768096923828125
0.25445556640625,-1.067047119140625,-0.18603515625
-0.040740966796875,-0.908477783203125,-0.2376861572265625
-0.2026519775390625,-0.695037841796875,-0.2160797119140625
-0.03009033203125,-0.6634674072265625,-0.451904296875
-0.1744384765625,-0.8386077880859375,-0.516204833984375
-0.222076416015625,-0.84033203125,-0.5948944091796875
-0.0826263427734375,-0.765106201171875,-0.425567626953125
-0.169281005859375,-0.6070556640625,-0.376068115234375
0.2749481201171875,-0.55615234375,-0.225799560546875
0.4785614013671875,-0.5733489990234375,-0.105255126953125
0.5823211669921875,-0.7075042724609375,0.0599212646484375
0.448150634765625,-0.7700347900390625,0.0434112548828125
0.455596923828125,-1.0258331298828125,0.0127105712890625
0.389495849609375,-1.001434326171875,-0.2508697509765625
0.3820953369140625,-1.0278167724609375,-0.0406036376953125
0.3435516357421875,-0.9753875732421876,-0.14801025390625
0.2716217041015625,-0.96551513671875,-0.2257080078125
0.2541961669921875,-1.01116943359375,-0.1657562255859375
0.259552001953125,-0.94219970703125,-0.0471649169921875
0.2559356689453125,-1.163665771484375,-0.1265869140625
0.33941650390625,-1.2048797607421875,0.09844970703125
-0.01202392578125,-1.2379150390625,0.001434326171875
0.1606903076171875,-1.0186767578125,-0.005279541015625
0.038848876953125,-1.44158935546875,-0.7808380126953125
0.20501708984375,-0.9284210205078124,-0.46612548828125
-0.170013427734375,-1.3738250732421875,-0.8128509521484375
0.0305023193359375,-0.9003448486328125,-0.39990234375
0.06341552734375,-0.7900543212890625,-0.4915618896484375
0.1963653564453125,-0.9278564453125,-0.391571044921875
0.1002960205078125,-0.9252777099609376,-0.4567108154296875
0.21533203125,-0.8997802734375,-0.4210968017578125
0.271270751953125,-0.8773651123046875,-0.4628143310546875
0.1252593994140625,-0.8373870849609375,-0.4400634765625
0.16180419921875,-0.7970733642578125,-0.6101837158203125
0.0637359619140625,-0.8027191162109375,-0.6353607177734375
0.1381072998046875,-0.7917022705078125,-0.6428680419921875
0.1248779296875,-0.7908935546875,-0.6056671142578125
0.1251220703125,-0.7884063720703125,-0.610443115234375
0.1504058837890625,-0.7584228515625,-0.6591796875
0.0985260009765625,-0.746307373046875,-0.647674560546875
0.12646484375,-0.7545166015625,-0.668853759765625
0.1183624267578125,-0.757568359375,-0.6376953125
0.14398193359375,-0.7495574951171875,-0.663238525390625
0.1542205810546875,-0.7627716064453125,-0.623931884765625
0.189697265625,-0.74224853515625,-0.64990234375
0.19268798828125,-0.773712158203125,-0.6855926513671875
0.1768951416015625,-0.7342681884765625,-0.67431640625
0.18658447265625,-0.7298126220703125,-0.6553955078125
0.12640380859375,-0.7420196533203125,-0.652923583984375
0.1765289306640625,-0.735687255859375,-0.6780548095703125
