AccelerationX,AccelerationY,AccelerationZ
0.84454345703125,-0.14697265625,-0.4551544189453125
0.8147125244140625,-0.1105499267578125,-0.4435577392578125
0.82196044921875,-0.1597747802734375,-0.416290283203125
0.82379150390625,-0.1798248291015625,-0.4232635498046875
0.8393402099609375,-0.16015625,-0.443359375
0.80401611328125,-0.148956298828125,-0.48785400390625
0.819915771484375,-0.1482086181640625,-0.5220947265625
0.8112335205078125,-0.16680908203125,-0.5298919677734375
0.83953857421875,-0.1683197021484375,-0.5293426513671875
0.90045166015625,-0.1392822265625,-0.5334320068359375
0.944915771484375,-0.1313934326171875,-0.507965087890625
0.974395751953125,-0.059967041015625,-0.5122222900390625
0.8675994873046875,-0.0332489013671875,-0.5067901611328125
0.73577880859375,0.0012359619140625,-0.5468902587890625
0.7405853271484375,0.0176544189453125,-0.5953369140625
0.69683837890625,0.1379852294921875,-0.638824462890625
0.7957305908203125,0.32989501953125,-0.4983673095703125
0.885406494140625,0.3679962158203125,-0.295867919921875
0.8505401611328125,0.3212890625,-0.1632843017578125
0.849609375,0.3532257080078125,-0.1692047119140625
0.872283935546875,0.3548431396484375,-0.138671875
0.87847900390625,0.330535888671875,-0.1013336181640625
0.948516845703125,0.2597808837890625,-0.0787506103515625
1.06622314453125,0.1432342529296875,-0.0306549072265625
1.25494384765625,0.0636138916015625,0.14453125
1.3511505126953125,0.0877685546875,0.2562103271484375
1.6749267578125,0.04638671875,-0.0336761474609375
1.9100189208984373,0.0305023193359375,0.2090606689453125
2.0797119140625,0.311279296875,-0.12274169921875
2.461151123046875,0.53070068359375,0.02783203125
2.3647613525390625,1.003448486328125,-0.1749267578125
0.7131805419921875,0.9901275634765624,-0.3482666015625
-0.704498291015625,0.9417572021484376,-0.3653564453125
-1.3464813232421875,0.8945159912109375,-0.265106201171875
-1.1246337890625,0.7688751220703125,-0.154449462890625
-0.399169921875,0.8288116455078125,-0.10284423828125
0.325714111328125,1.2357177734375,-0.202056884765625
0.8524322509765625,2.7529296875,-0.805450439453125
1.493072509765625,3.636398315429688,-0.531280517578125
2.055145263671875,2.7484893798828125,-0.4527587890625
1.9842987060546875,0.9927215576171876,-0.240814208984375
1.5036468505859375,-0.16986083984375,0.2387542724609375
1.04046630859375,-0.9425811767578124,0.3211517333984375
0.9613800048828124,-0.572906494140625,0.501129150390625
1.1296234130859375,-0.286407470703125,0.1379547119140625
1.4459991455078125,-0.1114044189453125,0.1123046875
1.6185302734375,0.1362152099609375,-0.2348175048828125
2.68731689453125,0.4994354248046875,-0.4725341796875
3.183929443359375,0.9044189453125,0.532867431640625
3.054229736328125,1.45831298828125,-0.1761932373046875
1.728515625,1.54168701171875,-0.26727294921875
0.4898834228515625,1.3638916015625,-0.2334442138671875
-0.7409820556640625,1.4443359375,-0.1287994384765625
-1.23846435546875,0.85595703125,-0.588531494140625
-0.4173126220703125,0.921630859375,-0.97662353515625
0.202423095703125,1.2230072021484375,-0.4392852783203125
1.108734130859375,3.650558471679688,-0.198272705078125
1.9905548095703125,3.840057373046875,-0.0520477294921875
2.7193145751953125,3.050262451171875,0.258026123046875
2.56103515625,1.0753631591796875,0.54095458984375
2.0129852294921875,-0.90576171875,1.0892791748046875
0.749755859375,-2.145599365234375,0.03924560546875
1.3634185791015625,-1.6217803955078125,0.0736083984375
1.4320526123046875,-1.017486572265625,0.425323486328125
1.9599456787109373,-0.31146240234375,0.2834320068359375
2.9327850341796875,0.469207763671875,-0.114501953125
5.26495361328125,0.2729949951171875,0.9952239990234376
5.128952026367188,2.347259521484375,0.3562774658203125
2.7886199951171875,2.2595672607421875,0.2245025634765625
0.55859375,1.7469329833984375,0.65814208984375
-1.4556121826171875,1.7635955810546875,-0.032012939453125
-2.347763061523437,1.2760162353515625,-0.176483154296875
-1.9423370361328125,1.139129638671875,0.1395263671875
-0.8327484130859375,1.3852081298828125,0.0829315185546875
0.618499755859375,4.014068603515625,0.1748046875
1.5100250244140625,4.14813232421875,0.5084228515625
3.1371307373046875,2.7820587158203125,0.156829833984375
2.4807586669921875,0.7931060791015625,-0.0121002197265625
1.3191375732421875,-0.2304534912109375,-0.3220977783203125
1.0295257568359375,-0.579681396484375,-0.033966064453125
0.946136474609375,-0.9648895263671876,0.5503387451171875
1.365264892578125,-1.0151214599609375,0.684844970703125
1.5423736572265625,-0.2848052978515625,0.4584808349609375
2.1240692138671875,0.04852294921875,0.386444091796875
4.375335693359375,3.095367431640625,0.3453369140625
2.9990997314453125,4.225509643554688,0.505523681640625
1.16253662109375,2.687225341796875,0.1460113525390625
-0.517578125,1.3267364501953125,0.114654541015625
-1.6006011962890625,0.8018035888671875,-0.5353240966796875
-2.0012664794921875,0.311859130859375,0.047119140625
-1.369415283203125,0.8388671875,0.232452392578125
-0.240142822265625,3.4157257080078125,-0.097564697265625
1.0443115234375,4.9555511474609375,1.6473846435546875
2.6379852294921875,6.35498046875,1.5590667724609375
3.68621826171875,3.577789306640625,1.1256103515625
3.2273101806640625,-0.1945953369140625,1.1578826904296875
1.756805419921875,-1.931365966796875,0.697509765625
1.682098388671875,-1.5855712890625,0.8030242919921875
1.499725341796875,-1.4519195556640625,1.184661865234375
1.5313873291015625,-0.639251708984375,0.62237548828125
1.759521484375,-0.07611083984375,0.4044036865234375
2.594207763671875,0.200836181640625,0.25311279296875
5.752288818359375,5.4923095703125,0.48944091796875
3.2299041748046875,4.7059173583984375,0.67333984375
0.6899261474609375,2.7689208984375,0.2412261962890625
-0.259674072265625,1.6029052734375,-0.0910797119140625
-0.6752471923828125,1.0017242431640625,0.1316680908203125
-1.30126953125,0.802001953125,0.36566162109375
-2.0742340087890625,0.6107025146484375,0.19677734375
-1.719268798828125,1.1628570556640625,0.127227783203125
-0.904693603515625,2.8887939453125,0.705352783203125
0.29754638671875,4.700164794921875,1.459381103515625
1.89874267578125,5.287506103515625,1.4376373291015625
3.1085205078125,2.577255249023437,1.0237884521484375
2.1128082275390625,-0.07080078125,0.7394256591796875
1.66961669921875,-2.2142333984375,0.111236572265625
1.539031982421875,-1.963104248046875,0.516448974609375
1.67431640625,-1.4498443603515625,0.7261810302734375
1.9973602294921875,-0.3350677490234375,0.313446044921875
3.5553436279296875,1.0067901611328125,0.40240478515625
4.01446533203125,3.520599365234375,1.440673828125
3.1575164794921875,4.398651123046875,1.4633331298828125
0.3050079345703125,3.35540771484375,0.4362030029296875
-0.23858642578125,1.763031005859375,-0.1428070068359375
-0.8365631103515625,1.154449462890625,0.152618408203125
-2.7346649169921875,0.8843994140625,-0.112274169921875
-1.914520263671875,0.7333526611328125,-0.0066375732421875
-1.3201446533203125,1.894622802734375,0.0528717041015625
-0.0247344970703125,3.643508911132813,1.099395751953125
0.3478546142578125,4.657882690429688,2.70343017578125
2.04962158203125,3.944671630859375,1.673553466796875
3.0999755859375,1.625457763671875,-0.02215576171875
1.9539337158203125,-0.11175537109375,-1.167205810546875
0.6051788330078125,-0.49798583984375,0.10601806640625
0.6296234130859375,-1.791839599609375,0.5293426513671875
1.153472900390625,-0.7929534912109375,0.54571533203125
1.7556915283203125,-0.1392059326171875,0.3971405029296875
2.2939910888671875,0.00531005859375,0.4717254638671875
4.707275390625,2.7254791259765625,1.1234130859375
3.804519653320313,4.1654052734375,1.14776611328125
1.2700042724609375,2.53466796875,-0.053863525390625
0.0767822265625,1.2972259521484375,0.193023681640625
-0.6874237060546875,0.780029296875,0.43115234375
-1.2020111083984375,0.5979766845703125,0.4309539794921875
-2.15087890625,0.5493316650390625,0.2507476806640625
-1.9711761474609373,0.97076416015625,0.219635009765625
-1.0055694580078125,1.7257537841796875,-0.06854248046875
0.6749267578125,4.265777587890625,0.9362030029296876
1.4499359130859375,5.2888031005859375,1.5264892578125
3.7117919921875,3.81610107421875,0.92572021484375
2.5155792236328125,0.9026336669921876,0.3839569091796875
1.683349609375,-0.4607391357421875,-0.45941162109375
0.830474853515625,-0.480926513671875,-0.343475341796875
0.975860595703125,-1.4362030029296875,0.50299072265625
0.96868896484375,-1.6418914794921875,0.548614501953125
1.356109619140625,-0.3955078125,0.3339996337890625
1.867950439453125,-0.2661285400390625,0.164306640625
3.756149291992188,1.565216064453125,0.36285400390625
3.489837646484375,4.2850189208984375,0.9926605224609376
1.707611083984375,3.012176513671875,0.072967529296875
0.3204345703125,1.8748016357421875,0.075225830078125
-0.781280517578125,1.1438751220703125,0.3324737548828125
-1.4229736328125,0.86834716796875,0.3497467041015625
-2.005401611328125,0.961517333984375,0.4294891357421875
-1.6735076904296875,1.1151580810546875,0.34307861328125
-0.476348876953125,1.7895660400390625,0.1732330322265625
0.6274871826171875,3.222503662109375,0.6976165771484375
1.1187591552734375,4.734130859375,1.02001953125
2.45904541015625,3.455902099609375,0.533966064453125
1.39752197265625,1.0530242919921875,0.3022308349609375
1.0789337158203125,-0.1913909912109375,0.4669342041015625
1.1278228759765625,-1.0652923583984375,0.0259552001953125
1.43365478515625,-1.0586395263671875,0.390380859375
1.3409576416015625,-1.012451171875,0.39678955078125
1.289459228515625,-0.4108123779296875,0.3363037109375
1.65570068359375,-0.237060546875,0.462799072265625
2.456573486328125,0.5809783935546875,0.4313812255859375
4.774688720703125,4.763580322265625,1.5704498291015625
1.8908843994140625,4.70550537109375,0.6744537353515625
0.3338165283203125,2.0577392578125,-0.038848876953125
-0.180267333984375,1.1328582763671875,-0.164947509765625
-0.772247314453125,0.728759765625,0.0675506591796875
-2.1884765625,0.72711181640625,0.1502532958984375
-1.6580352783203125,1.1801910400390625,0.2863616943359375
-0.7837677001953125,1.3245086669921875,-0.3449554443359375
-0.0126800537109375,1.8908843994140625,1.0785064697265625
-0.495819091796875,3.1988525390625,1.8863983154296875
1.2554931640625,4.510772705078125,1.9715576171875
1.97576904296875,2.375961303710937,1.3041534423828125
1.178802490234375,0.6597900390625,0.4854278564453125
1.549652099609375,-0.519256591796875,0.050933837890625
1.28485107421875,-1.2861785888671875,0.0671539306640625
1.6173248291015625,-1.5175323486328125,0.6079254150390625
1.6089324951171875,-0.9185333251953124,0.817840576171875
1.8606109619140625,0.0875396728515625,0.4699249267578125
3.0149688720703125,2.9397430419921875,1.2102813720703125
1.93377685546875,4.3067626953125,1.966705322265625
1.140869140625,4.2032470703125,1.497833251953125
0.1851959228515625,1.947296142578125,0.1375732421875
-0.4228057861328125,1.0901336669921875,-0.088592529296875
-0.4607391357421875,0.5090789794921875,0.3494415283203125
-2.163330078125,-0.1774139404296875,0.3879547119140625
-1.48883056640625,-0.2475128173828125,0.1171417236328125
-1.26544189453125,0.2828826904296875,0.3990478515625
-0.572601318359375,0.613037109375,0.44903564453125
-0.1665496826171875,4.7375030517578125,2.025726318359375
2.096435546875,5.1159210205078125,2.810516357421875
1.9175872802734373,2.451171875,1.090423583984375
1.1971588134765625,0.4219207763671875,0.46575927734375
0.7906646728515625,-0.5870208740234375,0.17645263671875
0.8551025390625,-0.950225830078125,-0.01318359375
1.4264068603515625,-1.006622314453125,0.1906890869140625
1.374176025390625,-1.1307525634765625,0.634979248046875
1.4653778076171875,-0.6298065185546875,0.478515625
1.406646728515625,-0.1968536376953125,0.2730255126953125
3.5233917236328125,1.67559814453125,0.87786865234375
2.8863525390625,5.090728759765625,1.767669677734375
1.43121337890625,3.056747436523437,0.1715087890625
0.4254913330078125,1.617034912109375,0.0805511474609375
0.031646728515625,0.976806640625,0.219970703125
-0.7100830078125,0.6140594482421875,0.6256103515625
-2.0960845947265625,0.3396759033203125,-0.041107177734375
-1.45220947265625,0.4034423828125,0.01934814453125
-1.029693603515625,0.92071533203125,0.1238250732421875
-0.2299346923828125,2.1918487548828125,1.02471923828125
1.131439208984375,5.934051513671875,2.4058837890625
3.8034820556640634,4.2490081787109375,1.7588653564453125
2.19354248046875,1.56719970703125,0.8318023681640625
1.643157958984375,-0.4574432373046875,0.35693359375
1.2284698486328125,-1.2861480712890625,-0.16162109375
1.0723724365234375,-1.1917572021484375,-0.250274658203125
1.278045654296875,-1.0813446044921875,0.369415283203125
1.51373291015625,-0.8603057861328125,0.55767822265625
1.460174560546875,-0.5938568115234375,0.726898193359375
1.8355865478515625,0.1760101318359375,0.15277099609375
5.0416412353515625,3.5313262939453125,1.0471954345703125
2.663925170898437,4.94134521484375,1.041229248046875
0.782745361328125,2.3426971435546875,0.200927734375
0.096954345703125,1.3809967041015625,0.0751953125
-0.543701171875,0.9334259033203124,0.0944976806640625
-0.98394775390625,0.670654296875,-0.0322265625
-1.6651611328125,0.5571746826171875,-0.207794189453125
-1.387664794921875,1.2405853271484375,-0.4417877197265625
-0.540191650390625,2.4270477294921875,-0.23309326171875
0.261810302734375,3.0316619873046875,0.76141357421875
1.090911865234375,4.4752349853515625,1.1124725341796875
3.372711181640625,3.238677978515625,0.4384918212890625
1.9237823486328125,1.005218505859375,0.118408203125
1.369110107421875,-0.460174560546875,0.0280303955078125
0.891387939453125,-0.8564605712890625,-0.4749908447265625
0.8469085693359375,-0.815765380859375,-0.031402587890625
1.2377166748046875,-0.9468536376953124,0.32244873046875
0.9609527587890624,-0.62322998046875,0.5317230224609375
0.940704345703125,-0.3028411865234375,0.49554443359375
1.478973388671875,0.2484588623046875,0.189727783203125
4.238296508789063,3.8908843994140634,0.5063323974609375
2.2840576171875,5.06707763671875,0.69866943359375
0.9019317626953124,1.86431884765625,0.0761260986328125
0.1843719482421875,1.190032958984375,-0.121795654296875
-0.13922119140625,0.778656005859375,0.0845489501953125
-0.4134521484375,0.4072265625,0.2162628173828125
-0.7500762939453125,0.2296600341796875,0.03936767578125
-1.3264923095703125,0.4541168212890625,0.0254058837890625
-1.1599273681640625,0.534210205078125,-0.01690673828125
-0.746612548828125,0.6905517578125,-0.081390380859375
-0.2912750244140625,2.124420166015625,0.5679168701171875
2.076324462890625,5.9031524658203125,1.4042816162109375
2.814483642578125,2.9705047607421875,0.994903564453125
2.0314178466796875,0.815338134765625,0.2096710205078125
0.96868896484375,-0.2543182373046875,0.017822265625
0.7984466552734375,-0.5621795654296875,-0.0855712890625
1.0727996826171875,-0.5699462890625,-0.064239501953125
1.156646728515625,-0.7459259033203125,0.0705718994140625
1.2145538330078125,-0.7795257568359375,0.5064239501953125
1.1491546630859375,-0.6862030029296875,0.68511962890625
1.4390106201171875,-0.0569305419921875,0.4133758544921875
4.2994537353515625,2.2912750244140625,1.687286376953125
2.2128448486328125,5.211212158203125,1.58013916015625
0.9435577392578124,2.5636749267578125,0.294921875
0.3795013427734375,1.6917724609375,0.18133544921875
-0.3593902587890625,1.2016448974609375,0.2376556396484375
-0.7052154541015625,0.679931640625,0.189422607421875
-1.5164642333984375,0.3015899658203125,0.1302490234375
-1.16448974609375,0.230499267578125,0.0844268798828125
-1.083404541015625,0.6510772705078125,-0.0365142822265625
-0.4200439453125,1.209503173828125,0.1475067138671875
0.2847442626953125,3.726364135742188,0.9862823486328124
3.339569091796875,6.1256866455078125,1.85955810546875
2.925262451171875,2.554916381835937,0.97979736328125
2.2428436279296875,0.2522430419921875,0.4378814697265625
1.23809814453125,-1.02386474609375,0.4344329833984375
1.0395965576171875,-1.248565673828125,0.3582763671875
0.73797607421875,-0.9615478515625,0.131500244140625
0.8792266845703125,-0.956512451171875,0.1826629638671875
0.8922119140625,-0.5028076171875,0.291351318359375
1.467010498046875,-0.16119384765625,0.377593994140625
2.552642822265625,0.6853485107421875,0.8660888671875
3.918670654296875,4.5402374267578125,0.701141357421875
2.1537322998046875,3.658004760742188,0.16937255859375
0.614288330078125,2.039825439453125,-0.216552734375
0.3615570068359375,1.0154266357421875,-0.133209228515625
-0.1099395751953125,0.543548583984375,0.2360382080078125
-0.5348968505859375,0.2595977783203125,0.3653717041015625
-1.498382568359375,0.2930755615234375,0.42218017578125
-1.0227813720703125,0.9633331298828124,0.33026123046875
-1.233734130859375,1.0463409423828125,-0.0269927978515625
-0.2112274169921875,1.1780853271484375,0.35107421875
-0.1123199462890625,2.2093963623046875,1.434356689453125
1.097442626953125,4.186553955078125,2.6419830322265625
3.4978179931640625,2.2570343017578125,1.70025634765625
1.2848663330078125,1.078521728515625,0.314666748046875
1.109893798828125,0.0584259033203125,-0.0896759033203125
1.0998992919921875,-0.7491455078125,0.1509552001953125
0.8230438232421875,-1.4165802001953125,0.282012939453125
0.719635009765625,-1.07421875,0.573577880859375
0.8121337890625,-0.7275238037109375,0.465972900390625
1.816070556640625,-0.566162109375,0.2527923583984375
4.1193389892578125,0.9749298095703124,1.0679168701171875
3.610671997070313,5.7581939697265625,1.4202880859375
1.5110931396484375,2.884124755859375,0.82427978515625
0.5449981689453125,1.8446044921875,0.2524261474609375
0.0619354248046875,1.0867919921875,0.2707061767578125
-0.5062408447265625,0.554718017578125,0.4520416259765625
-1.704681396484375,0.4680938720703125,-0.0052032470703125
-1.207183837890625,0.31622314453125,0.079803466796875
-1.1922149658203125,0.8905792236328125,0.1850738525390625
-0.1876068115234375,2.1429443359375,0.5404815673828125
1.11651611328125,3.0457763671875,1.779327392578125
0.891448974609375,3.8254547119140634,2.188217163085937
1.9310302734375,2.8942413330078125,1.5457763671875
1.917572021484375,0.9193267822265624,0.5601806640625
1.169342041015625,-0.270599365234375,0.2303009033203125
0.4889373779296875,-0.7492828369140625,0.02130126953125
0.4782257080078125,-0.71630859375,0.0280609130859375
1.146759033203125,-0.6805267333984375,0.1599273681640625
0.731231689453125,-0.481475830078125,0.1534423828125
0.85498046875,-0.2591705322265625,0.166229248046875
1.2003326416015625,-0.135711669921875,0.2888336181640625
3.653533935546875,2.091049194335937,1.107421875
2.8798065185546875,4.8094329833984375,1.86187744140625
1.0388031005859375,2.603271484375,0.707672119140625
0.11810302734375,1.6966552734375,0.081573486328125
-0.898468017578125,1.607269287109375,0.473114013671875
-0.9015350341796876,0.651885986328125,-0.2312469482421875
-0.582794189453125,0.2559814453125,-0.0333404541015625
-0.6128387451171875,0.116546630859375,0.16204833984375
-0.679656982421875,0.133941650390625,0.0939178466796875
-0.21868896484375,1.8000030517578125,0.3928985595703125
0.015960693359375,3.5144805908203125,1.2947845458984375
0.9754180908203124,4.632125854492188,1.8102569580078125
1.8623199462890625,2.426788330078125,0.75994873046875
1.251983642578125,0.5370635986328125,0.615142822265625
1.3993377685546875,-0.9866180419921876,0.44244384765625
0.8058013916015625,-1.49676513671875,0.42132568359375
1.37933349609375,-0.78155517578125,0.0422515869140625
1.1329193115234375,-0.795257568359375,0.0095367431640625
1.3149261474609375,-0.141510009765625,0.270965576171875
1.622222900390625,0.9213104248046876,0.3743133544921875
2.2630615234375,1.952423095703125,1.000274658203125
2.295272827148437,4.080856323242188,2.0608673095703125
0.7544708251953125,3.0654754638671875,1.22119140625
0.0451202392578125,2.0411529541015625,0.6749267578125
-0.1353759765625,1.249481201171875,0.1996917724609375
-0.4251251220703125,0.6013336181640625,0.0663299560546875
-0.8823394775390625,0.24224853515625,-0.0451812744140625
-1.3582000732421875,-0.31024169921875,-0.0070953369140625
-0.9034576416015624,0.0809326171875,-0.0556182861328125
-0.8225250244140625,0.7413177490234375,0.075958251953125
-0.896697998046875,2.318695068359375,0.914459228515625
0.947662353515625,5.27734375,2.336654663085937
2.17236328125,2.0798492431640625,0.947357177734375
0.932037353515625,1.173126220703125,0.4646759033203125
0.7444915771484375,0.06964111328125,0.1518096923828125
0.6792144775390625,-0.2673187255859375,0.1083526611328125
1.0504608154296875,-0.6104736328125,0.024566650390625
0.9681549072265624,-0.603485107421875,0.3201904296875
1.04705810546875,-0.765655517578125,0.3925323486328125
0.9499359130859376,-0.3142547607421875,0.2905120849609375
1.69677734375,0.2174530029296875,0.7935333251953125
4.671112060546875,4.87847900390625,2.2676544189453125
0.69140625,4.06427001953125,1.260772705078125
0.5265045166015625,2.197662353515625,0.220733642578125
-0.1395263671875,1.59710693359375,0.1715087890625
-0.462249755859375,0.576812744140625,0.5877532958984375
-1.1773223876953125,0.01177978515625,-0.17486572265625
-0.789031982421875,0.010345458984375,-0.1682281494140625
-0.800201416015625,0.044403076171875,0.0116729736328125
-0.6399383544921875,0.07452392578125,0.037567138671875
-0.3513946533203125,0.597198486328125,0.125091552734375
-0.441192626953125,4.2832794189453125,1.157470703125
3.4122467041015625,5.800445556640625,1.743621826171875
1.481048583984375,2.5397491455078125,0.5942840576171875
1.2484588623046875,0.5439300537109375,0.3322296142578125
1.0189361572265625,-0.4195098876953125,0.3561248779296875
0.837371826171875,-0.9442138671875,0.3063201904296875
1.168701171875,-0.9951019287109376,0.1441650390625
1.0200653076171875,-1.08392333984375,0.1905517578125
1.019805908203125,-0.910308837890625,0.3820037841796875
1.2207794189453125,-0.408203125,0.263397216796875
2.1026153564453125,0.2563934326171875,0.7148895263671875
5.538131713867188,5.509536743164063,1.5116729736328125
1.3049468994140625,3.867431640625,0.8727569580078125
0.9754638671875,1.7677764892578125,0.301513671875
0.272430419921875,1.253631591796875,0.500396728515625
-0.082763671875,0.8668365478515625,0.4640045166015625
-0.183258056640625,0.371734619140625,0.640289306640625
-0.7374114990234375,0.30010986328125,0.481842041015625
-1.36492919921875,0.2120208740234375,0.64373779296875
-1.50543212890625,0.10736083984375,0.4517974853515625
-0.929229736328125,0.341094970703125,0.226531982421875
-0.4409942626953125,1.486907958984375,0.772979736328125
2.1643829345703125,7.23175048828125,2.0234832763671875
2.958114624023437,3.6967620849609375,0.7803802490234375
1.8697967529296875,1.08917236328125,0.2156829833984375
1.3634796142578125,-0.1515045166015625,-0.0870513916015625
0.7381439208984375,-0.5451812744140625,0.0613555908203125
0.7959442138671875,-1.1526031494140625,0.361602783203125
0.91015625,-1.0751190185546875,0.5807952880859375
0.831634521484375,-1.0426025390625,0.7005767822265625
1.3812255859375,-0.4344635009765625,0.7540283203125
2.004791259765625,0.2410736083984375,0.6754150390625
5.751724243164063,4.7410736083984375,1.9853515625
1.8425140380859373,3.398712158203125,0.9613800048828124
1.0461883544921875,1.580841064453125,0.2819061279296875
0.267669677734375,1.1354827880859375,0.3632049560546875
-0.6876983642578125,0.90655517578125,0.773193359375
-1.33819580078125,0.4726104736328125,0.6428070068359375
-1.003326416015625,0.1796112060546875,0.366912841796875
-0.872711181640625,0.539093017578125,0.2493133544921875
-0.6009979248046875,0.820770263671875,0.029815673828125
0.2515106201171875,1.357757568359375,0.4431610107421875
1.9461822509765625,3.659255981445313,1.427490234375
4.6998443603515625,4.227569580078125,1.6456146240234375
2.778060913085937,1.449676513671875,1.271026611328125
1.6960906982421875,-0.0871124267578125,0.35888671875
1.0080413818359375,-0.5538330078125,0.3048858642578125
0.838226318359375,-0.672607421875,-0.3038330078125
0.9688873291015624,-0.73236083984375,0.1174468994140625
1.1330413818359375,-1.0253143310546875,0.2789459228515625
1.3374176025390625,-0.779449462890625,0.30218505859375
1.8695068359375,-0.018768310546875,0.5235595703125
2.90301513671875,1.5662689208984375,1.1065826416015625
2.1350250244140625,4.3944244384765625,1.21490478515625
0.5624237060546875,3.0313720703125,0.3096923828125
0.104400634765625,1.8242340087890625,0.405975341796875
-0.891082763671875,1.1752777099609375,0.470123291015625
-1.8804473876953125,0.946533203125,0.2234649658203125
-1.1190338134765625,0.358612060546875,0.1954498291015625
-0.9713897705078124,0.50653076171875,-0.1894378662109375
-0.101287841796875,2.46014404296875,-0.3294677734375
0.837371826171875,2.24981689453125,-0.1061553955078125
1.510833740234375,3.157135009765625,-0.3000946044921875
2.087249755859375,2.5277862548828125,0.173492431640625
1.4512939453125,0.961273193359375,0.082427978515625
0.9608001708984376,-0.051971435546875,0.2776031494140625
0.70318603515625,-0.39605712890625,0.3736724853515625
0.992095947265625,-0.6708831787109375,0.471099853515625
1.0037994384765625,-0.8558502197265625,0.3182525634765625
0.7356109619140625,-0.3524322509765625,0.1603240966796875
1.26934814453125,0.0405426025390625,-0.07977294921875
2.39068603515625,1.5105133056640625,0.2730560302734375
2.742416381835937,3.56005859375,0.683807373046875
1.0561676025390625,3.231414794921875,0.532257080078125
0.3975982666015625,1.95782470703125,-0.2666778564453125
0.093597412109375,1.0634613037109375,-0.185699462890625
-0.178741455078125,0.4341278076171875,0.095367431640625
-0.4961395263671875,0.0557708740234375,-0.0233306884765625
-1.952545166015625,-0.0825347900390625,0.3907623291015625
-1.169891357421875,0.409210205078125,0.0691070556640625
-0.8055419921875,1.6190185546875,-0.5255126953125
-0.0041046142578125,3.678024291992188,0.5335540771484375
1.6113739013671875,5.229507446289063,0.8387298583984375
2.68756103515625,2.8857879638671875,0.4685211181640625
1.76190185546875,0.8760528564453125,0.419586181640625
1.1494140625,-0.5881195068359375,0.455596923828125
0.975738525390625,-1.1131591796875,0.2579193115234375
1.1816558837890625,-0.9444427490234376,0.1228485107421875
1.493133544921875,-0.89300537109375,-0.002105712890625
1.3600921630859375,-0.5156097412109375,0.1434478759765625
1.581756591796875,0.046142578125,0.09716796875
3.484649658203125,2.607162475585937,0.9064788818359376
2.832260131835937,4.6471710205078125,1.171142578125
0.8964691162109375,2.9017791748046875,0.21636962890625
0.1885986328125,1.6467742919921875,0.0373382568359375
-0.4147491455078125,0.9986114501953124,0.262542724609375
-1.06634521484375,0.6782073974609375,0.0399322509765625
-1.0557098388671875,0.2948455810546875,-0.07769775390625
-0.948486328125,0.4112701416015625,-0.2627410888671875
-0.70233154296875,0.7528228759765625,-0.4633941650390625
-0.033599853515625,1.7059783935546875,0.0233917236328125
0.3775482177734375,2.46759033203125,-0.007659912109375
1.200439453125,3.60845947265625,0.43292236328125
2.0292205810546875,2.41357421875,-0.0073699951171875
1.649627685546875,0.9644775390625,-0.149261474609375
1.2306671142578125,-0.0848236083984375,0.2027130126953125
0.8924560546875,-0.5198822021484375,0.329437255859375
1.1436309814453125,-1.0866851806640625,0.30120849609375
0.7812042236328125,-0.7964935302734375,0.5291595458984375
0.9451904296875,-0.4360504150390625,0.293701171875
1.3963470458984375,0.3343353271484375,0.2279815673828125
2.541229248046875,1.8242645263671875,0.935211181640625
2.4227752685546875,5.305267333984375,1.64996337890625
0.6966705322265625,2.753158569335937,0.634033203125
0.306365966796875,1.95635986328125,0.0797576904296875
-0.03814697265625,1.3430328369140625,0.184295654296875
-0.545989990234375,0.84808349609375,0.188079833984375
-1.10369873046875,0.536224365234375,0.097198486328125
-1.6666259765625,0.19805908203125,0.2310638427734375
-1.185150146484375,0.27783203125,0.39508056640625
-0.6862640380859375,0.7002105712890625,0.4245758056640625
-0.3909454345703125,2.86883544921875,0.95928955078125
0.52264404296875,4.7254180908203125,3.2774658203125
3.2808380126953125,2.6453094482421875,2.106842041015625
1.565155029296875,0.9662933349609376,0.5235137939453125
1.187164306640625,0.0439605712890625,-0.0493621826171875
1.027618408203125,-0.411163330078125,0.0667724609375
1.2341766357421875,-1.158447265625,-0.123626708984375
1.0626068115234375,-1.145294189453125,0.0627593994140625
1.3113861083984375,-0.9508819580078124,0.3833465576171875
1.5799713134765625,-0.0952301025390625,0.3402862548828125
2.438934326171875,1.630859375,0.396942138671875
2.98394775390625,3.001434326171875,1.9534912109375
1.293304443359375,3.3529205322265625,1.229278564453125
0.4430694580078125,1.7842559814453125,0.6932525634765625
-0.321533203125,1.38775634765625,0.6754608154296875
-0.921966552734375,1.005950927734375,0.521026611328125
-1.0789794921875,0.50421142578125,0.327911376953125
-1.131256103515625,0.280670166015625,0.2455902099609375
-0.561492919921875,0.4659881591796875,0.163055419921875
0.0644989013671875,1.713134765625,0.2779693603515625
0.735504150390625,2.3785858154296875,0.79736328125
0.2433929443359375,3.316024780273437,1.45751953125
1.482879638671875,2.699554443359375,1.1666259765625
1.45709228515625,1.0652923583984375,0.2751617431640625
0.863616943359375,0.1186370849609375,0.1191864013671875
0.6190643310546875,-0.37615966796875,0.0550079345703125
0.9589080810546876,-0.65850830078125,-0.2034149169921875
0.8226776123046875,-0.4901275634765625,-0.1065673828125
0.7119140625,-0.6044921875,0.1491241455078125
0.68487548828125,-0.3889923095703125,0.4270172119140625
1.52996826171875,1.3802032470703125,0.6158447265625
1.4802398681640625,3.661575317382813,0.9603271484375
0.9208526611328124,3.442718505859375,0.9547271728515624
0.5627288818359375,1.704437255859375,0.25091552734375
0.115081787109375,0.781524658203125,0.2012481689453125
-0.29949951171875,0.540924072265625,0.206390380859375
-0.6567230224609375,0.26873779296875,0.1777801513671875
-1.5756988525390625,0.0486907958984375,0.15008544921875
-1.2196044921875,0.3431243896484375,0.19207763671875
-0.978729248046875,0.973602294921875,0.2470855712890625
-0.2894744873046875,2.676376342773437,1.075714111328125
-0.08648681640625,4.405242919921875,2.35919189453125
1.342681884765625,3.4980010986328125,1.586090087890625
1.40032958984375,1.5570526123046875,0.6243133544921875
0.8599090576171875,0.2701416015625,0.37799072265625
1.106903076171875,-0.70220947265625,0.4393310546875
0.98681640625,-1.0768890380859375,0.24859619140625
1.146759033203125,-1.0102386474609375,0.36029052734375
1.4152679443359375,-0.7718963623046875,0.42498779296875
1.4392547607421875,-0.22174072265625,0.2646331787109375
1.89483642578125,0.8447723388671875,0.720916748046875
2.8165435791015625,3.112548828125,2.2677764892578125
1.4742279052734375,4.306976318359375,1.8873443603515625
0.5667877197265625,2.39410400390625,0.77685546875
-0.0262908935546875,1.4344024658203125,0.3896026611328125
-0.47418212890625,1.006683349609375,0.216033935546875
-0.8543701171875,0.515167236328125,0.2890625
-2.0331268310546875,0.0073089599609375,0.2297821044921875
-1.3017120361328125,0.1228485107421875,0.18304443359375
-0.8492279052734375,1.00604248046875,0.101409912109375
0.066009521484375,2.9268341064453125,0.8588714599609375
0.2740478515625,3.080657958984375,1.5655670166015625
1.1789398193359375,3.335678100585937,0.9888763427734376
1.6290283203125,1.646636962890625,0.4052276611328125
0.7323150634765625,0.4461517333984375,0.37994384765625
0.635223388671875,-0.1674957275390625,0.2691650390625
1.238189697265625,-0.485992431640625,-0.231109619140625
1.529327392578125,-0.7768707275390625,-0.2663421630859375
1.04351806640625,-0.6883544921875,0.1555938720703125
0.9608917236328124,-0.34381103515625,0.37518310546875
1.8370819091796875,1.47467041015625,0.5536346435546875
2.20513916015625,2.483261108398437,1.58056640625
1.3365478515625,4.150665283203125,2.1510772705078125
0.64117431640625,1.9866943359375,0.7659149169921875
0.3707733154296875,1.017578125,0.523590087890625
-0.0290985107421875,0.592071533203125,0.4759063720703125
-0.56658935546875,0.252716064453125,0.6109161376953125
-2.4116973876953125,-0.045501708984375,0.695098876953125
-1.7661895751953125,0.19256591796875,0.503814697265625
-1.354034423828125,0.929473876953125,0.559051513671875
-0.5662078857421875,2.011199951171875,2.021591186523437
0.415771484375,4.1520843505859375,3.684814453125
1.6471405029296875,3.8914642333984375,3.498565673828125
3.056671142578125,1.74658203125,1.524322509765625
2.058090209960937,0.0283355712890625,0.8327789306640625
1.3686676025390625,-0.738372802734375,0.340240478515625
1.1594696044921875,-0.63873291015625,-0.3480224609375
1.0314483642578125,-0.5786590576171875,-0.3931884765625
1.0379638671875,-0.61279296875,0.0005340576171875
1.197052001953125,-0.23321533203125,0.62860107421875
1.84906005859375,1.023345947265625,1.0268402099609375
2.030792236328125,2.5761871337890625,2.880157470703125
1.0811920166015625,4.0616455078125,1.673095703125
0.30938720703125,1.8569793701171875,0.7232513427734375
-0.767822265625,1.6501617431640625,0.7721405029296875
-1.729156494140625,1.0669403076171875,0.463836669921875
-1.4003753662109375,0.535308837890625,-0.032440185546875
-0.959259033203125,0.18634033203125,0.07977294921875
-0.64971923828125,0.008026123046875,0.1416473388671875
-0.32440185546875,0.7700653076171875,0.1298065185546875
-0.0153045654296875,2.587249755859375,0.704986572265625
-0.7292327880859375,3.2918701171875,1.54150390625
1.0400238037109375,3.40576171875,1.2826995849609375
1.319549560546875,1.3779754638671875,0.4296722412109375
0.8991241455078125,0.1956024169921875,0.357421875
1.0898895263671875,-0.5209808349609375,0.135467529296875
1.0121002197265625,-0.4844207763671875,-0.118682861328125
1.043548583984375,-0.57464599609375,-0.4148101806640625
1.0861663818359375,-0.4590301513671875,-0.2135162353515625
1.0504608154296875,-0.294891357421875,0.429931640625
1.786712646484375,0.91632080078125,0.6533355712890625
3.249618530273437,4.91339111328125,2.182113647460937
0.8942718505859375,3.929763793945313,1.4261474609375
0.3031158447265625,1.94464111328125,0.4292449951171875
-0.31805419921875,0.9752044677734376,0.5216827392578125
-1.059539794921875,0.4676971435546875,0.42425537109375
-1.662200927734375,0.1289215087890625,0.253082275390625
-1.7747344970703125,0.1597137451171875,0.3831939697265625
-1.29150390625,0.3884735107421875,0.1653900146484375
-0.60107421875,1.0920257568359375,0.5891571044921875
-0.0240325927734375,3.862762451171875,1.8235015869140625
0.8985748291015625,4.48382568359375,2.4622802734375
2.097412109375,3.201904296875,1.5222015380859375
2.1211090087890625,0.686004638671875,0.4380950927734375
1.1583251953125,-0.43280029296875,0.2584686279296875
0.93194580078125,-0.9546661376953124,-0.0366973876953125
1.065338134765625,-0.78076171875,-0.41314697265625
1.115081787109375,-0.70135498046875,-0.236053466796875
1.042388916015625,-0.5034027099609375,0.216644287109375
1.1685028076171875,-0.327728271484375,0.452484130859375
2.172821044921875,0.463470458984375,0.625
3.9235992431640634,3.15716552734375,1.2399139404296875
2.527130126953125,3.8944244384765625,1.0209808349609375
1.0503387451171875,2.1317291259765625,0.4873504638671875
0.677032470703125,1.4827423095703125,0.3901519775390625
0.052459716796875,0.956512451171875,0.468170166015625
-0.9020538330078124,0.8238677978515625,0.3236236572265625
-1.6829376220703125,0.701873779296875,-0.1535491943359375
-1.4282989501953125,0.8452911376953125,0.367401123046875
-0.7106170654296875,1.9367218017578125,0.4390106201171875
0.4404144287109375,2.53106689453125,1.236602783203125
1.1260833740234375,3.493072509765625,1.9721221923828125
2.4490966796875,2.8977508544921875,1.926971435546875
2.176986694335937,1.4066925048828125,0.444305419921875
1.2187957763671875,0.49993896484375,0.2351226806640625
0.9354095458984376,-0.1088104248046875,0.218536376953125
0.8352813720703125,-0.5306549072265625,0.2156219482421875
1.1629486083984375,-0.7905731201171875,-0.1240234375
1.107025146484375,-0.633209228515625,-0.05755615234375
0.9744415283203124,-0.681732177734375,0.318084716796875
1.07000732421875,-0.5476837158203125,0.485992431640625
2.3181915283203125,0.4965972900390625,1.1973114013671875
4.45733642578125,4.9822998046875,0.7518310546875
1.16180419921875,3.0294342041015625,0.4738922119140625
0.706756591796875,1.721832275390625,0.0554962158203125
0.053466796875,1.0352783203125,0.024566650390625
-0.3768157958984375,0.6190185546875,0.0099639892578125
-0.978790283203125,0.4199676513671875,0.0849456787109375
-1.9310302734375,0.3941497802734375,-0.263275146484375
-1.1925048828125,0.93310546875,-0.1461639404296875
-0.4430694580078125,2.128387451171875,0.2575836181640625
0.17529296875,2.876708984375,1.93597412109375
1.7177276611328125,4.59906005859375,4.37139892578125
3.14910888671875,0.5389862060546875,1.8388824462890625
1.355743408203125,0.669281005859375,0.444091796875
1.0219268798828125,-0.2064666748046875,0.1624603271484375
0.929656982421875,-0.65704345703125,0.2448272705078125
1.1804046630859375,-0.7642822265625,-0.381256103515625
1.1371307373046875,-0.593048095703125,-0.4337921142578125
0.97235107421875,-0.691619873046875,0.232818603515625
0.933349609375,-0.603607177734375,0.446807861328125
1.8457794189453125,-0.3619842529296875,0.8567352294921875
5.0599212646484375,5.35595703125,2.7057342529296875
1.5959014892578125,3.9416351318359375,1.4864959716796875
0.90325927734375,1.8061676025390625,0.6697998046875
0.2013397216796875,1.08135986328125,0.7234954833984375
-0.4631500244140625,0.6347198486328125,0.7205657958984375
-1.2109527587890625,0.5373077392578125,0.2857818603515625
-1.7943878173828125,0.668792724609375,0.3340911865234375
-1.746307373046875,0.7693939208984375,0.592071533203125
-0.8007965087890625,1.3673553466796875,0.9022216796875
-0.0316925048828125,2.5336456298828125,1.8243560791015625
0.7692718505859375,4.323760986328125,2.3947906494140625
3.1441192626953125,2.9228973388671875,1.46087646484375
1.603424072265625,1.011444091796875,0.9275054931640624
1.3106842041015625,-0.1245880126953125,0.62689208984375
1.1194610595703125,-0.7141876220703125,0.2401275634765625
1.0756683349609375,-0.723724365234375,-0.171905517578125
1.08905029296875,-0.675140380859375,-0.0995330810546875
0.80657958984375,-0.5201568603515625,0.2573699951171875
0.7371673583984375,-0.380889892578125,0.3130950927734375
1.4109649658203125,0.26605224609375,0.568359375
3.628814697265625,3.249008178710937,1.7393798828125
1.502105712890625,4.77764892578125,1.6770782470703125
0.6895294189453125,1.7056121826171875,0.5463714599609375
0.0349884033203125,1.2691497802734375,0.4029998779296875
-0.555450439453125,0.8623046875,0.40704345703125
-0.952850341796875,0.4763031005859375,0.4391632080078125
-1.33367919921875,0.27410888671875,0.401336669921875
-1.4181060791015625,0.5426483154296875,0.4456634521484375
-0.656829833984375,0.787445068359375,0.6039276123046875
-0.1916961669921875,2.00347900390625,1.822235107421875
-0.4520263671875,2.781723022460937,2.863143920898437
0.9512481689453124,3.69500732421875,3.263046264648437
2.31060791015625,2.032577514648437,2.001739501953125
1.538848876953125,0.635162353515625,0.940673828125
1.259979248046875,-0.1935272216796875,0.6937713623046875
1.597900390625,-0.6193084716796875,0.106781005859375
1.0586090087890625,-0.4955902099609375,-0.4124298095703125
1.002960205078125,-0.6689300537109375,-0.257568359375
0.8491668701171875,-0.6439208984375,0.335418701171875
1.012115478515625,-0.3885040283203125,0.5721435546875
2.6104278564453125,1.3951568603515625,1.212158203125
2.967864990234375,4.818023681640625,2.587142944335937
1.0820159912109375,2.93023681640625,1.0860748291015625
0.3300628662109375,1.8031158447265625,0.51837158203125
-0.3018646240234375,1.066131591796875,0.4763336181640625
-0.6569671630859375,0.677276611328125,0.441131591796875
-1.1033477783203125,0.3186798095703125,0.1299896240234375
-1.5031585693359375,0.3063507080078125,0.163055419921875
-1.19976806640625,0.444580078125,0.17681884765625
-0.60418701171875,1.0587158203125,0.3810882568359375
0.0491943359375,2.8383026123046875,1.2703857421875
0.1645050048828125,3.931716918945313,1.835205078125
2.1971588134765625,3.618316650390625,1.711761474609375
1.8531036376953125,1.0007781982421875,0.4254150390625
0.882476806640625,0.2437591552734375,0.0446929931640625
0.842742919921875,-0.2869415283203125,-0.2752532958984375
0.683197021484375,-0.4710693359375,-0.350555419921875
0.7479095458984375,-0.6034698486328125,-0.17657470703125
0.838714599609375,-0.647308349609375,0.2321014404296875
0.8006744384765625,-0.5884246826171875,0.5578155517578125
1.170379638671875,-0.24774169921875,0.28118896484375
3.5910186767578125,2.8582916259765625,1.4265289306640625
2.07623291015625,4.4799652099609375,1.480224609375
0.9025726318359376,2.352279663085937,0.467193603515625
0.2745361328125,1.53826904296875,0.208892822265625
-0.20849609375,0.998870849609375,0.0011444091796875
-0.408294677734375,0.58843994140625,0.0214691162109375
-0.476043701171875,0.2665863037109375,0.014404296875
-0.880340576171875,0.146026611328125,0.04718017578125
-1.391815185546875,0.304229736328125,0.0628814697265625
-0.585052490234375,0.323089599609375,0.019989013671875
-0.3402862548828125,0.85137939453125,0.4110565185546875
0.0769195556640625,5.257598876953125,2.7056427001953125
3.9334564208984375,3.660430908203125,2.412445068359375
1.466033935546875,1.8890533447265625,1.0697479248046875
1.51605224609375,0.7218170166015625,0.375823974609375
1.2816314697265625,0.287567138671875,0.194976806640625
1.260589599609375,-0.2009124755859375,-0.2429046630859375
1.014404296875,-0.48907470703125,-0.306427001953125
1.1456146240234375,-0.99432373046875,-0.0545196533203125
0.7241668701171875,-1.0478515625,0.52703857421875
0.6162109375,-0.8163299560546875,0.452423095703125
1.326812744140625,-0.375091552734375,0.4610748291015625
4.92803955078125,5.1669769287109375,1.651092529296875
1.7081756591796875,4.7354583740234375,1.295501708984375
1.1452789306640625,2.440292358398437,0.3022918701171875
0.3687896728515625,1.37451171875,0.338623046875
-0.1786651611328125,0.925872802734375,0.2095947265625
-0.374359130859375,0.6365966796875,0.128631591796875
-0.569427490234375,0.3198089599609375,-0.0948028564453125
-1.2565765380859375,0.2579345703125,0.194488525390625
-1.4340972900390625,0.3409423828125,0.1281890869140625
-0.935882568359375,0.3220672607421875,0.1525726318359375
-0.777862548828125,0.53326416015625,0.6078643798828125
-0.078460693359375,2.708282470703125,2.432037353515625
4.402267456054688,1.8583984375,1.9212646484375
1.8845062255859373,2.090911865234375,1.32061767578125
2.3363037109375,0.07525634765625,0.9077911376953124
0.94482421875,0.1572265625,0.542388916015625
0.552093505859375,0.07818603515625,0.3376312255859375
0.3768768310546875,0.072357177734375,0.0164947509765625
0.23284912109375,0.1271209716796875,-0.124969482421875
0.3839874267578125,0.0829315185546875,-0.0448760986328125
0.6441802978515625,-0.1441192626953125,0.344635009765625
1.6125946044921875,-0.761077880859375,0.3412628173828125
1.57275390625,0.19439697265625,0.7885894775390625
1.5561981201171875,0.680511474609375,0.128692626953125
1.4967498779296875,0.8472900390625,-1.0928802490234375
0.84283447265625,0.6207427978515625,-0.6890411376953125
0.302490234375,0.8762664794921875,-0.4827117919921875
0.0126190185546875,0.8038177490234375,0.000823974609375
0.4814453125,0.059173583984375,0.4492034912109375
1.613800048828125,-0.3701629638671875,0.2182769775390625
1.9030914306640625,0.2718658447265625,-0.052337646484375
1.2087554931640625,0.3365631103515625,0.4210662841796875
1.785614013671875,0.187713623046875,-1.5185394287109375
0.9915313720703124,-0.5271453857421875,1.447540283203125
0.6221923828125,0.3954010009765625,-1.3431549072265625
1.110809326171875,0.2054290771484375,0.250579833984375
0.701446533203125,-0.10394287109375,0.437530517578125
1.136199951171875,0.061492919921875,0.12469482421875
0.9202423095703124,0.09478759765625,0.0679779052734375
1.199737548828125,-0.2727508544921875,0.71246337890625
3.55963134765625,-0.1629486083984375,-0.08966064453125
1.470916748046875,0.201385498046875,-0.264892578125
1.178680419921875,-0.0786590576171875,-0.2212677001953125
1.2088165283203125,-0.4122161865234375,0.1865997314453125
0.881988525390625,-1.5329132080078125,-0.3561553955078125
0.370880126953125,-0.8273468017578125,0.0880126953125
1.232147216796875,-0.5076141357421875,0.110198974609375
1.3570556640625,0.2126617431640625,-0.128570556640625
0.9632568359375,0.1457672119140625,-0.17022705078125
0.9748687744140624,0.2733917236328125,-0.1770477294921875
0.6346893310546875,0.159423828125,-0.0750732421875
0.796234130859375,0.2770538330078125,-0.185333251953125
0.6383209228515625,0.30865478515625,-0.1449737548828125
0.69512939453125,0.5295562744140625,-0.2272186279296875
0.8431854248046875,0.369964599609375,-0.3173370361328125
0.8788909912109375,0.350799560546875,-0.3962554931640625
0.8155975341796875,0.301300048828125,-0.3698272705078125
0.889801025390625,0.262908935546875,-0.4249420166015625
1.008575439453125,0.1195068359375,-0.439453125
0.890594482421875,0.038116455078125,-0.4059600830078125
0.7501068115234375,0.0469512939453125,-0.4221038818359375
0.8146820068359375,0.221435546875,-0.44793701171875
0.8719635009765625,0.330780029296875,-0.46063232421875
0.8858489990234375,0.40472412109375,-0.443634033203125
0.837860107421875,0.3509368896484375,-0.442138671875
0.860107421875,0.2198333740234375,-0.4657745361328125
0.8147430419921875,0.168701171875,-0.5107879638671875
0.8122100830078125,0.1820220947265625,-0.5262908935546875
0.7764129638671875,0.193572998046875,-0.541015625
0.77435302734375,0.2610321044921875,-0.5370330810546875
0.7835540771484375,0.2628173828125,-0.544677734375
0.8069610595703125,0.306365966796875,-0.5406036376953125
0.797454833984375,0.2360382080078125,-0.513885498046875
0.797943115234375,0.2577362060546875,-0.556365966796875
0.78228759765625,0.2937774658203125,-0.5172576904296875
0.7961273193359375,0.305450439453125,-0.541748046875
0.79364013671875,0.2969512939453125,-0.548126220703125
0.7760467529296875,0.28668212890625,-0.53814697265625
0.7823944091796875,0.3064422607421875,-0.539581298828125
0.7833099365234375,0.3339691162109375,-0.5316162109375
0.78717041015625,0.3152008056640625,-0.5496673583984375
0.7741241455078125,0.3313446044921875,-0.517669677734375
0.780792236328125,0.3061981201171875,-0.533966064453125
0.7795867919921875,0.3358917236328125,-0.5242462158203125
0.7730865478515625,0.3316192626953125,-0.531829833984375
0.7819366455078125,0.3310699462890625,-0.526580810546875
0.76922607421875,0.3194580078125,-0.5386199951171875
0.767547607421875,0.3424530029296875,-0.5429229736328125
0.7476959228515625,0.3391571044921875,-0.5520782470703125
0.7531585693359375,0.3534698486328125,-0.5802001953125
0.7067413330078125,0.3138275146484375,-0.4665985107421875
0.7324676513671875,0.2841644287109375,-0.55706787109375
