AccelerationX,AccelerationY,AccelerationZ
-0.3907623291015625,0.7310028076171875,-0.5253143310546875
-0.410003662109375,0.7351531982421875,-0.4919891357421875
-0.4212188720703125,0.7399139404296875,-0.5312347412109375
-0.4342803955078125,0.7349700927734375,-0.5054473876953125
-0.3896331787109375,0.7178955078125,-0.5065460205078125
-0.3801727294921875,0.73822021484375,-0.5669403076171875
-0.3867645263671875,0.744476318359375,-0.5283203125
-0.403594970703125,0.7447052001953125,-0.55120849609375
-0.400482177734375,0.73565673828125,-0.52508544921875
-0.3806915283203125,0.7299957275390625,-0.532073974609375
-0.3674774169921875,0.74420166015625,-0.51318359375
-0.400421142578125,0.7520599365234375,-0.498291015625
-0.3908843994140625,0.75543212890625,-0.5712738037109375
-0.37628173828125,0.723876953125,-0.52093505859375
-0.4040679931640625,0.7307586669921875,-0.5213623046875
-0.4277801513671875,0.7329254150390625,-0.5597686767578125
-0.428680419921875,0.7202301025390625,-0.5450286865234375
-0.4074554443359375,0.6502532958984375,-0.5475006103515625
-0.287628173828125,0.6669921875,-0.5609283447265625
-0.3756256103515625,0.757110595703125,-0.7658233642578125
-0.57025146484375,0.6211700439453125,-0.40423583984375
-0.6209564208984375,0.5116119384765625,-0.3273773193359375
-0.833892822265625,0.601959228515625,-0.4342193603515625
-0.881011962890625,0.670501708984375,-0.449798583984375
-0.7913665771484375,0.529327392578125,-0.4341278076171875
-0.7738037109375,0.5329132080078125,-0.295745849609375
-0.757171630859375,0.4965667724609375,-0.205078125
-0.714324951171875,0.4278564453125,-0.166717529296875
-0.9505157470703124,0.666046142578125,-0.0367279052734375
-0.6732940673828125,0.423095703125,-0.4046478271484375
-0.65374755859375,0.7243194580078125,-0.497528076171875
-0.545745849609375,0.686126708984375,-0.35528564453125
-0.65802001953125,0.7488861083984375,-0.1935577392578125
-0.72479248046875,0.878021240234375,-0.2270050048828125
-0.63330078125,0.826171875,-0.34228515625
-0.607330322265625,0.815155029296875,-0.1281890869140625
-0.669830322265625,0.8043670654296875,-0.229949951171875
-0.5868988037109375,0.6972198486328125,-0.262542724609375
-0.63232421875,0.6359100341796875,-0.164947509765625
-0.65521240234375,0.721405029296875,-0.2727508544921875
-0.7183685302734375,0.78082275390625,-0.340118408203125
-0.66558837890625,0.680328369140625,-0.2850189208984375
-0.6904296875,0.580078125,-0.267852783203125
-0.742431640625,0.530853271484375,-0.100372314453125
-0.7789306640625,0.5513153076171875,-0.0133819580078125
-0.73382568359375,0.5819244384765625,-0.05157470703125
-0.792022705078125,0.6008758544921875,-0.1302947998046875
-0.8583221435546875,0.663055419921875,-0.2139892578125
-0.87841796875,0.6651153564453125,-0.268768310546875
-0.875,0.773468017578125,-0.217437744140625
-0.8512115478515625,0.7623291015625,-0.192169189453125
-0.856170654296875,0.8763275146484375,-0.2349090576171875
-0.774383544921875,0.828643798828125,-0.2589569091796875
-0.6083526611328125,0.5706939697265625,-0.26898193359375
-0.6426239013671875,0.61663818359375,-0.312103271484375
-0.699249267578125,0.8345794677734375,-0.2609710693359375
-0.6178741455078125,0.8325042724609375,-0.0737762451171875
-0.521636962890625,0.677734375,0.0157470703125
-0.5641632080078125,0.641693115234375,-0.0582427978515625
-0.60406494140625,0.65863037109375,-0.1127471923828125
-0.5863037109375,0.6740875244140625,-0.0646820068359375
-0.569244384765625,0.6574554443359375,0.009002685546875
-0.6141510009765625,0.7602996826171875,0.005584716796875
-0.63848876953125,0.91082763671875,-0.039794921875
-0.609344482421875,0.8540496826171875,-0.036651611328125
-0.748260498046875,0.78271484375,0.004913330078125
-0.75836181640625,0.8097076416015625,-0.0726470947265625
-0.6610565185546875,0.6791229248046875,-0.162353515625
-0.761505126953125,0.7136077880859375,-0.13946533203125
-0.8693084716796875,0.787689208984375,-0.11065673828125
-0.83746337890625,0.6389923095703125,-0.102508544921875
-0.738189697265625,0.49005126953125,-0.1241607666015625
-0.7483978271484375,0.5056610107421875,-0.105621337890625
-0.8010406494140625,0.55279541015625,-0.0688934326171875
-0.796112060546875,0.5209197998046875,-0.1295318603515625
-0.861083984375,0.6065216064453125,-0.18212890625
-0.9997100830078124,0.840850830078125,-0.0879974365234375
-0.94696044921875,0.86370849609375,-0.053741455078125
-0.8566741943359375,0.8986358642578125,-0.1435699462890625
-0.7593536376953125,0.858612060546875,-0.2129058837890625
-0.764068603515625,0.9250640869140624,-0.079742431640625
-0.656097412109375,0.8555145263671875,-0.0029296875
-0.6225128173828125,0.68682861328125,-0.0334014892578125
-0.654876708984375,0.783599853515625,-0.1103057861328125
-0.580291748046875,0.8504791259765625,-0.119720458984375
-0.5108795166015625,0.7183074951171875,-0.04669189453125
-0.52593994140625,0.597259521484375,-0.0311431884765625
-0.5440826416015625,0.5819244384765625,-0.096405029296875
-0.5239715576171875,0.6027984619140625,-0.0782928466796875
-0.540283203125,0.61358642578125,-0.0039215087890625
-0.6071014404296875,0.696319580078125,0.07135009765625
-0.6184844970703125,0.804168701171875,0.019561767578125
-0.6717987060546875,0.85858154296875,-0.0920867919921875
-0.6964569091796875,0.8186798095703125,-0.051910400390625
-0.7554168701171875,0.789825439453125,-0.030975341796875
-0.749908447265625,0.7444610595703125,-0.0366058349609375
-0.7052459716796875,0.6786041259765625,-0.0716552734375
-0.748565673828125,0.8499603271484375,-0.1538543701171875
-0.76116943359375,0.85076904296875,-0.25384521484375
-0.778717041015625,0.70330810546875,-0.277862548828125
-0.837646484375,0.63995361328125,-0.27581787109375
-0.8072967529296875,0.6224365234375,-0.150665283203125
-0.7826690673828125,0.6215057373046875,0.020965576171875
-0.71759033203125,0.627777099609375,0.0384063720703125
-0.713043212890625,0.7036285400390625,0.0054473876953125
-0.7541961669921875,0.868011474609375,-0.1065521240234375
-0.74652099609375,0.895751953125,-0.2276458740234375
-0.73309326171875,0.86846923828125,-0.3013916015625
-0.7810516357421875,0.9297332763671876,-0.2925262451171875
-0.7308349609375,1.042510986328125,-0.292388916015625
-0.5914154052734375,0.873321533203125,-0.2388153076171875
-0.642822265625,0.856781005859375,-0.1689910888671875
-0.6276702880859375,0.90966796875,-0.2584686279296875
-0.5332489013671875,0.9078826904296876,-0.30841064453125
-0.49530029296875,0.7879180908203125,-0.2803802490234375
-0.5133056640625,0.75921630859375,-0.243194580078125
-0.4581146240234375,0.80157470703125,-0.1805419921875
-0.264404296875,0.8097686767578125,-0.11865234375
-0.258544921875,0.808563232421875,-0.0472564697265625
-0.4235382080078125,0.8508148193359375,-0.0783538818359375
-0.547576904296875,0.96282958984375,-0.0645751953125
-0.4923858642578125,1.0150909423828125,-0.0291900634765625
-0.416168212890625,0.93133544921875,-0.0131683349609375
-0.5052642822265625,1.04302978515625,0.0538177490234375
-0.2086639404296875,0.8802337646484375,-0.0317840576171875
-0.388885498046875,1.0009613037109375,-0.0760650634765625
-0.7032928466796875,1.0722808837890625,-0.1377716064453125
-0.7144317626953125,0.9114532470703124,-0.0753631591796875
-0.62982177734375,0.7181854248046875,0.0238800048828125
-0.581787109375,0.7077484130859375,0.016937255859375
-0.6412506103515625,0.6894073486328125,-0.0854644775390625
-0.6423492431640625,0.685516357421875,-0.1270904541015625
-0.6510162353515625,0.6765899658203125,-0.0776214599609375
-0.742340087890625,0.8267669677734375,-0.014068603515625
-0.8043365478515625,0.9748077392578124,-0.04107666015625
-0.7821807861328125,0.9756622314453124,-0.1400299072265625
-0.7484893798828125,0.8922119140625,-0.1433563232421875
-0.813873291015625,1.005584716796875,-0.0730438232421875
-0.7866058349609375,1.0572509765625,-0.0668792724609375
-0.7795562744140625,0.88848876953125,-0.095062255859375
-0.7885589599609375,0.925384521484375,-0.1314849853515625
-0.723114013671875,0.9729766845703124,-0.1465301513671875
-0.5896759033203125,0.9221343994140624,-0.1167449951171875
-0.5248565673828125,0.83319091796875,-0.08074951171875
-0.50225830078125,0.8247222900390625,-0.0752410888671875
-0.4248504638671875,0.8232269287109375,-0.0725555419921875
-0.393707275390625,0.747222900390625,-0.0596771240234375
-0.3933563232421875,0.729736328125,-0.0437469482421875
-0.3889923095703125,0.801177978515625,0.00738525390625
-0.404998779296875,0.869964599609375,0.0422515869140625
-0.4002227783203125,0.8226776123046875,-0.0276336669921875
-0.6155548095703125,0.9010772705078124,-0.0068359375
-0.578033447265625,0.9662017822265624,0.0564727783203125
-0.5018463134765625,0.8739471435546875,-0.0777435302734375
-0.68548583984375,0.9155731201171876,-0.0835113525390625
-0.7734527587890625,1.0012054443359375,-0.104949951171875
-0.6636505126953125,0.869720458984375,-0.057708740234375
-0.5894775390625,0.6783599853515625,0.0513763427734375
-0.61016845703125,0.66778564453125,0.0826873779296875
-0.6405029296875,0.748992919921875,0.03961181640625
-0.683074951171875,0.7597808837890625,0.0001068115234375
-0.7191009521484375,0.69970703125,-0.0718536376953125
-0.84246826171875,0.7824554443359375,-0.144683837890625
-0.90740966796875,0.840423583984375,-0.1005401611328125
-0.869537353515625,0.8512725830078125,-0.1314697265625
-0.77166748046875,0.81121826171875,-0.1837310791015625
-0.813690185546875,1.0028228759765625,-0.136871337890625
-0.76446533203125,1.0474700927734375,-0.0877838134765625
-0.6683197021484375,0.8657989501953125,0.0132598876953125
-0.73876953125,0.889923095703125,-0.038482666015625
-0.7538299560546875,0.960845947265625,-0.1513214111328125
-0.6499176025390625,0.905487060546875,-0.198150634765625
-0.607818603515625,0.81817626953125,-0.06768798828125
-0.54840087890625,0.7957763671875,0.0234832763671875
-0.4905853271484375,0.7845611572265625,0.077056884765625
-0.3861236572265625,0.70745849609375,0.0641937255859375
-0.3381195068359375,0.6928863525390625,0.098480224609375
-0.326568603515625,0.768951416015625,0.126434326171875
-0.337005615234375,0.8309783935546875,0.0863800048828125
-0.3988800048828125,0.819854736328125,-4.57763671875e-05
-0.56085205078125,0.8128204345703125,-0.031158447265625
-0.7105865478515625,0.9949493408203124,0.1185150146484375
-0.559600830078125,0.8696746826171875,0.023345947265625
-0.722320556640625,0.838348388671875,-0.0692138671875
-0.8381805419921875,0.9230499267578124,-0.1225128173828125
-0.8615264892578125,0.8619842529296875,-0.162750244140625
-0.828216552734375,0.688690185546875,-0.159393310546875
-0.752349853515625,0.6552276611328125,-0.1062774658203125
-0.6460113525390625,0.77215576171875,-0.0381011962890625
-0.5056915283203125,0.7913818359375,-0.00823974609375
-0.484100341796875,0.7885284423828125,0.04443359375
-0.6059722900390625,0.8080596923828125,0.0229034423828125
-0.7408294677734375,0.853271484375,-0.016510009765625
-0.8669281005859375,0.908538818359375,-0.05267333984375
-0.884979248046875,0.7937469482421875,-0.1373291015625
-1.0260009765625,0.9092559814453124,-0.2052154541015625
-0.9379730224609376,0.9705352783203124,-0.2384185791015625
-0.676727294921875,0.8932952880859375,-0.11785888671875
-0.6094970703125,0.9234619140625,-0.1542816162109375
-0.6006927490234375,0.932586669921875,-0.1774749755859375
-0.523101806640625,0.8735504150390625,-0.2443389892578125
-0.543701171875,0.781585693359375,-0.2005615234375
-0.6433868408203125,0.812774658203125,-0.1286773681640625
-0.6154632568359375,0.8883056640625,-0.1198272705078125
-0.63580322265625,0.997161865234375,-0.1409759521484375
-0.63360595703125,1.0029296875,-0.2074737548828125
-0.61004638671875,0.98284912109375,-0.1872406005859375
-0.5565643310546875,0.9641571044921876,-0.0396270751953125
-0.4078521728515625,0.801361083984375,-0.0747222900390625
-0.4353790283203125,0.8079071044921875,-0.03668212890625
-0.4036712646484375,0.8703155517578125,0.068084716796875
-0.3160400390625,0.7663726806640625,0.06915283203125
-0.51678466796875,0.8798370361328125,0.01129150390625
-0.5606231689453125,0.9108428955078124,-0.027587890625
-0.5679168701171875,0.8043060302734375,0.0334930419921875
-0.5980072021484375,0.702789306640625,0.1491851806640625
-0.6557464599609375,0.76348876953125,0.106689453125
-0.6130218505859375,0.70697021484375,0.0903778076171875
-0.75408935546875,0.7903900146484375,0.056976318359375
-0.80633544921875,0.8009490966796875,-0.0113983154296875
-0.8892822265625,0.8805389404296875,0.0167236328125
-0.9160919189453124,0.9197998046875,0.051788330078125
-0.8939666748046875,0.842254638671875,-0.00982666015625
-0.98431396484375,0.83355712890625,-0.1295928955078125
-0.953948974609375,0.853240966796875,-0.1788482666015625
-0.889007568359375,0.68963623046875,-0.1351776123046875
-0.962432861328125,0.7321014404296875,-0.164794921875
-0.950408935546875,0.8402252197265625,-0.183258056640625
-0.857757568359375,0.8848419189453125,-0.153778076171875
-0.785125732421875,0.8892059326171875,-0.17230224609375
-0.7864532470703125,0.9228515625,-0.205078125
-0.7245941162109375,0.99407958984375,-0.134613037109375
-0.5885467529296875,0.9658355712890624,-0.0807952880859375
-0.4656829833984375,0.8859405517578125,-0.025482177734375
-0.4399566650390625,0.8350067138671875,-0.0328216552734375
-0.426971435546875,0.8600616455078125,-0.0577545166015625
-0.29779052734375,0.791290283203125,-0.025726318359375
-0.39520263671875,0.73187255859375,0.00543212890625
-0.4930267333984375,0.7860107421875,0.014007568359375
-0.4558563232421875,0.6932525634765625,-0.0341339111328125
-0.61883544921875,0.7866363525390625,0.002899169921875
-0.6888885498046875,0.9542694091796876,-0.014434814453125
-0.607635498046875,0.9380950927734376,-0.106201171875
-0.6414642333984375,0.7891845703125,-0.1431427001953125
-0.7172088623046875,0.7760467529296875,-0.1524505615234375
-0.741607666015625,0.8366241455078125,-0.083892822265625
-0.7238311767578125,0.83819580078125,-0.0526275634765625
-0.813629150390625,0.798797607421875,-0.0906982421875
-0.9299774169921876,0.85260009765625,-0.120574951171875
-0.964996337890625,0.9020233154296876,-0.1385498046875
-0.96014404296875,0.8170623779296875,-0.180145263671875
-1.0357666015625,0.8403778076171875,-0.19232177734375
-0.91339111328125,0.8041229248046875,-0.1805419921875
-0.77679443359375,0.729217529296875,-0.13885498046875
-0.7433013916015625,0.7087860107421875,-0.109130859375
-0.7772369384765625,0.836090087890625,-0.1490936279296875
-0.79815673828125,0.9842376708984376,-0.166717529296875
-0.7243194580078125,0.9891204833984376,-0.206085205078125
-0.710906982421875,0.8634185791015625,-0.292236328125
-0.7139129638671875,0.875946044921875,-0.3724212646484375
-0.6652679443359375,0.9397125244140624,-0.296356201171875
-0.6018524169921875,0.9391326904296876,-0.17291259765625
-0.5222930908203125,0.8881072998046875,-0.1700286865234375
-0.5530853271484375,0.8221282958984375,-0.174560546875
-0.4581146240234375,0.8032684326171875,-0.1934051513671875
-0.4889373779296875,0.8556671142578125,-0.167816162109375
-0.3691864013671875,0.7850341796875,-0.138214111328125
-0.39361572265625,0.65875244140625,-0.1276397705078125
-0.4864349365234375,0.6566925048828125,-0.0360870361328125
-0.5742950439453125,0.8378143310546875,0.020233154296875
-0.5478057861328125,0.9178314208984376,0.0363922119140625
-0.67279052734375,0.8610992431640625,0.1178131103515625
-0.7230987548828125,0.77996826171875,0.2593536376953125
-0.724090576171875,0.7958221435546875,0.268280029296875
-0.75091552734375,0.8109130859375,0.2402801513671875
-0.7228546142578125,0.783233642578125,0.249603271484375
-0.7696533203125,0.7429656982421875,0.2062225341796875
-0.765167236328125,0.7545623779296875,0.1287841796875
-0.7784576416015625,0.7265472412109375,0.1203765869140625
-0.81072998046875,0.72344970703125,0.0331268310546875
-0.759033203125,0.7553558349609375,-0.07550048828125
-0.6762237548828125,0.701934814453125,-0.0719757080078125
-0.657623291015625,0.71728515625,-0.120452880859375
-0.665283203125,0.778472900390625,-0.2100677490234375
-0.7275390625,0.7973175048828125,-0.2967071533203125
-0.6815948486328125,0.864288330078125,-0.67864990234375
-0.5246429443359375,0.7897491455078125,-1.051422119140625
-0.4893035888671875,0.8052520751953125,-0.7532501220703125
-0.5770416259765625,0.8264923095703125,-0.4932403564453125
-0.5850067138671875,0.8786163330078125,-0.4943084716796875
-0.5967559814453125,0.909393310546875,-0.5309906005859375
-0.69305419921875,0.954376220703125,-0.41082763671875
-0.7532196044921875,0.9972381591796876,-0.2705230712890625
-0.682708740234375,0.980072021484375,-0.2017059326171875
-0.5912628173828125,0.9061737060546876,-0.22723388671875
-0.52020263671875,0.8681182861328125,-0.3132476806640625
-0.4043731689453125,0.8702850341796875,-0.3377227783203125
-0.3525390625,0.9322509765625,-0.245269775390625
-0.2324371337890625,0.87103271484375,-0.075347900390625
-0.2615509033203125,0.7292327880859375,-0.0344390869140625
-0.4066925048828125,0.7405548095703125,0.0856475830078125
-0.4560394287109375,0.855804443359375,0.1488189697265625
-0.5045928955078125,1.00823974609375,-0.04815673828125
-0.530029296875,0.9978179931640624,-0.1726837158203125
-0.5386962890625,0.9147186279296876,-0.1166534423828125
-0.57879638671875,0.8848724365234375,0.0244140625
-0.6747283935546875,0.93572998046875,0.0931549072265625
-0.73162841796875,0.889984130859375,0.082550048828125
-0.7697601318359375,0.87384033203125,-1.52587890625e-05
-0.8137359619140625,0.8460693359375,-0.052825927734375
-0.8450469970703125,0.85797119140625,-0.059814453125
-0.823944091796875,0.878570556640625,-0.1129150390625
-0.8027191162109375,0.8277130126953125,-0.1956939697265625
-0.8412322998046875,0.868927001953125,-0.2453460693359375
-0.83831787109375,0.88140869140625,-0.17333984375
-0.8499298095703125,0.804595947265625,-0.0774078369140625
-0.901458740234375,0.9161376953125,-0.1107940673828125
-0.886260986328125,1.07464599609375,-0.208587646484375
-0.8000640869140625,1.1522369384765625,-0.2861480712890625
-0.7517242431640625,1.144195556640625,-0.304656982421875
-0.7270965576171875,1.123870849609375,-0.2979736328125
-0.59197998046875,1.0844268798828125,-0.264190673828125
-0.4550018310546875,0.98162841796875,-0.24755859375
-0.359466552734375,0.897918701171875,-0.191436767578125
-0.3155975341796875,0.841827392578125,-0.133087158203125
-0.3165740966796875,0.8709716796875,-0.0983428955078125
-0.2236328125,0.77606201171875,-0.0888824462890625
-0.3536376953125,0.699127197265625,-0.05712890625
-0.4597320556640625,0.7815399169921875,0.033416748046875
-0.4220123291015625,0.80047607421875,0.029632568359375
-0.545989990234375,0.85205078125,0.00164794921875
-0.6931304931640625,1.0466766357421875,-0.0583953857421875
-0.7723846435546875,1.1349334716796875,-0.1117095947265625
-0.7820587158203125,0.9178009033203124,-0.11431884765625
-0.7906951904296875,0.7653350830078125,-0.0605926513671875
-0.7798614501953125,0.7695465087890625,-0.0032501220703125
-0.7293701171875,0.795257568359375,-0.008544921875
-0.6970977783203125,0.773040771484375,-0.091705322265625
-0.7482452392578125,0.800750732421875,-0.1471405029296875
-0.825408935546875,0.9005889892578125,-0.1359405517578125
-0.840362548828125,0.93682861328125,-0.1233367919921875
-0.787200927734375,0.7985687255859375,-0.1445465087890625
-0.7940521240234375,0.7230377197265625,-0.141082763671875
-0.8564910888671875,0.9063568115234376,-0.100982666015625
-0.71661376953125,0.98211669921875,-0.12603759765625
-0.7627105712890625,0.870635986328125,-0.1753692626953125
-0.854766845703125,0.892333984375,-0.2097015380859375
-0.787628173828125,1.0291595458984375,-0.155853271484375
-0.6273345947265625,1.0340728759765625,-0.2253265380859375
-0.6024322509765625,0.9577178955078124,-0.3199462890625
-0.5963287353515625,0.9209747314453124,-0.2133636474609375
-0.5030670166015625,0.8979644775390625,-0.0814971923828125
-0.3609771728515625,0.8362579345703125,-0.012237548828125
-0.34454345703125,0.7502288818359375,-0.0339202880859375
-0.3892669677734375,0.7773895263671875,-0.040496826171875
-0.3731842041015625,0.840911865234375,-0.0287017822265625
-0.358917236328125,0.758880615234375,-0.0604248046875
-0.5179901123046875,0.7375030517578125,-0.0065460205078125
-0.519622802734375,0.885223388671875,-0.0090789794921875
-0.479827880859375,0.962982177734375,-0.1744232177734375
-0.7087554931640625,0.9630889892578124,-0.19329833984375
-0.8766937255859375,0.974334716796875,-0.0947418212890625
-0.8839569091796875,0.90545654296875,-0.1362762451171875
-0.8203125,0.7299652099609375,-0.11669921875
-0.6663818359375,0.579345703125,-0.0494384765625
-0.6728363037109375,0.558990478515625,0.0037078857421875
-0.7556915283203125,0.651153564453125,-0.08441162109375
-0.9803009033203124,0.6066741943359375,-0.2073822021484375
-1.2241668701171875,0.6160888671875,-0.2092742919921875
-1.144622802734375,0.908203125,-0.217071533203125
-0.954132080078125,1.0536956787109375,-0.1204833984375
-0.8392486572265625,1.047760009765625,0.0517578125
-0.7184600830078125,0.9799957275390624,0.1159820556640625
-0.70068359375,1.0040435791015625,0.021484375
-0.6731414794921875,1.02581787109375,-0.0284423828125
-0.576812744140625,0.834869384765625,0.171295166015625
-0.61016845703125,0.80364990234375,0.1982574462890625
-0.5519256591796875,0.8175811767578125,3.0517578125e-05
-0.4086151123046875,0.739471435546875,-0.1523284912109375
-0.3524169921875,0.637939453125,-0.1300048828125
-0.377410888671875,0.59588623046875,-0.1267852783203125
-0.3322296142578125,0.6058502197265625,-0.1454315185546875
-0.32513427734375,0.6108856201171875,-0.1050567626953125
-0.4212799072265625,0.6265716552734375,-0.0607452392578125
-0.5255889892578125,0.7429351806640625,-0.029144287109375
-0.6222381591796875,0.941162109375,-0.1260986328125
-0.7115478515625,1.0955963134765625,-0.1242828369140625
-0.6816864013671875,1.118408203125,-0.1630706787109375
-0.7944488525390625,1.2952117919921875,-0.2903289794921875
-0.7535400390625,1.18218994140625,-0.3836517333984375
-0.689788818359375,0.79534912109375,-0.3369140625
-0.77716064453125,0.71630859375,-0.25555419921875
-0.8414306640625,0.699981689453125,-0.16015625
-0.7789764404296875,0.622589111328125,-0.0769500732421875
-0.646240234375,0.6294403076171875,-0.1904449462890625
-0.5313262939453125,0.7042388916015625,-0.25286865234375
-0.4713897705078125,0.7574005126953125,-0.22869873046875
-0.4581146240234375,0.760101318359375,-0.1923370361328125
-0.5290679931640625,0.7697906494140625,-0.1401214599609375
-0.645721435546875,0.887298583984375,-0.0880126953125
-0.74639892578125,0.976409912109375,-0.1465301513671875
-0.732940673828125,0.8758697509765625,-0.22637939453125
-0.7539520263671875,0.9005126953125,-0.283172607421875
-0.75506591796875,1.1099395751953125,-0.3287353515625
-0.61065673828125,0.9876861572265624,-0.377410888671875
-0.69866943359375,0.866851806640625,-0.3019561767578125
-0.7373046875,0.907989501953125,-0.242889404296875
-0.6621856689453125,0.9630279541015624,-0.2166290283203125
-0.5197906494140625,0.8958740234375,-0.235870361328125
-0.483184814453125,0.837646484375,-0.2677764892578125
-0.4549560546875,0.8001708984375,-0.2025299072265625
-0.363128662109375,0.7367401123046875,-0.115997314453125
-0.3280029296875,0.6824951171875,-0.050048828125
-0.337005615234375,0.7216644287109375,0.0049896240234375
-0.3415069580078125,0.8129730224609375,0.039398193359375
-0.3435516357421875,0.9101104736328124,-0.053741455078125
-0.4040679931640625,0.9000396728515625,-0.1347808837890625
-0.5837249755859375,0.9633941650390624,-0.0868988037109375
-0.496429443359375,0.992218017578125,-0.1658477783203125
-0.5365142822265625,0.882537841796875,-0.24835205078125
-0.68756103515625,1.0158538818359375,-0.19281005859375
-0.6828765869140625,1.0834197998046875,-0.220550537109375
-0.6676177978515625,0.893951416015625,-0.250091552734375
-0.700408935546875,0.76190185546875,-0.237060546875
-0.7121429443359375,0.7418212890625,-0.145660400390625
-0.7127532958984375,0.7432098388671875,-0.0919647216796875
-0.7057647705078125,0.678192138671875,-0.0876922607421875
-0.724212646484375,0.6815032958984375,-0.063507080078125
-0.71893310546875,0.8355712890625,-0.061248779296875
-0.7049713134765625,0.9793243408203124,-0.1174774169921875
-0.689727783203125,0.95599365234375,-0.25909423828125
-0.7245025634765625,0.875518798828125,-0.3324737548828125
-0.773773193359375,0.98504638671875,-0.29296875
-0.6750030517578125,1.0010223388671875,-0.2051544189453125
-0.552520751953125,0.842681884765625,-0.2244720458984375
-0.6487579345703125,0.7961883544921875,-0.316650390625
-0.7436981201171875,0.9281768798828124,-0.2833709716796875
-0.68115234375,1.0364532470703125,-0.20465087890625
-0.577728271484375,1.00634765625,-0.28582763671875
-0.5395355224609375,0.9420928955078124,-0.3722381591796875
-0.516876220703125,0.9207763671875,-0.31048583984375
-0.4463653564453125,0.8748779296875,-0.150421142578125
-0.356536865234375,0.83251953125,-0.05389404296875
-0.3375091552734375,0.8569183349609375,-0.0794219970703125
-0.3366241455078125,0.902435302734375,-0.144134521484375
-0.2654571533203125,0.8466644287109375,-0.0859832763671875
-0.3052978515625,0.7446441650390625,-0.03216552734375
-0.449951171875,0.85772705078125,-0.0183258056640625
-0.3603668212890625,0.8834686279296875,-0.0864410400390625
-0.4601898193359375,0.8705902099609375,-0.1725311279296875
-0.6519012451171875,1.03228759765625,-0.185760498046875
-0.6944732666015625,1.1068115234375,-0.2215118408203125
-0.7579498291015625,0.9225311279296876,-0.23095703125
-1.072998046875,0.7497711181640625,-0.3325042724609375
-1.1481781005859375,0.5804901123046875,-0.16815185546875
-0.97857666015625,0.6457672119140625,-0.0524444580078125
-0.859619140625,0.6959381103515625,-0.2478790283203125
-0.9429473876953124,0.7764129638671875,-0.306396484375
-1.008087158203125,0.9834747314453124,-0.21728515625
-0.899658203125,1.0876007080078125,-0.237091064453125
-0.8467254638671875,1.1728668212890625,-0.2781219482421875
-0.8558197021484375,1.28118896484375,-0.140655517578125
-0.6741790771484375,1.06817626953125,0.0168914794921875
-0.69873046875,0.997894287109375,0.1167755126953125
-0.7045745849609375,1.127197265625,0.0054168701171875
-0.510833740234375,1.1143646240234375,-0.1635284423828125
-0.374847412109375,0.9110260009765624,-0.2274322509765625
-0.3381500244140625,0.7740936279296875,-0.082244873046875
-0.270782470703125,0.6743927001953125,0.112274169921875
-0.19683837890625,0.58197021484375,0.1402130126953125
-0.2077484130859375,0.5377044677734375,0.1361083984375
-0.2456512451171875,0.55596923828125,0.19866943359375
-0.2651519775390625,0.6539154052734375,0.168121337890625
-0.3720550537109375,0.9133148193359376,0.01849365234375
-0.47589111328125,1.2010650634765625,-0.1284637451171875
-0.629364013671875,1.418243408203125,-0.2886505126953125
-0.8514556884765625,1.53717041015625,-0.4613037109375
-0.8206329345703125,1.3414764404296875,-0.6096038818359375
-0.8500213623046875,1.0874481201171875,-0.4466094970703125
-0.976806640625,1.0399169921875,-0.2178802490234375
-0.9256134033203124,0.9089508056640624,-0.1529541015625
-0.79095458984375,0.6888427734375,-0.19464111328125
-0.6521148681640625,0.5680389404296875,-0.153350830078125
-0.537750244140625,0.6275177001953125,-0.084991455078125
-0.4131927490234375,0.726715087890625,-0.1076202392578125
-0.3351593017578125,0.7689666748046875,-0.2018585205078125
-0.403533935546875,0.7872772216796875,-0.2476959228515625
-0.619354248046875,0.8847808837890625,-0.159698486328125
-0.789947509765625,0.9827728271484376,-0.0435028076171875
-0.821136474609375,0.9260711669921876,0.004058837890625
-0.9112701416015624,0.903411865234375,-0.012542724609375
-0.889923095703125,1.049224853515625,-0.077728271484375
-0.7545166015625,0.9390106201171876,-0.1249542236328125
-0.8715057373046875,0.9975738525390624,-0.2094879150390625
-0.8931732177734375,1.1887054443359375,-0.267547607421875
-0.7821044921875,1.304351806640625,-0.253631591796875
-0.6322021484375,1.2657470703125,-0.2531890869140625
-0.5107574462890625,1.1242828369140625,-0.2675933837890625
-0.4397125244140625,1.0362396240234375,-0.2485809326171875
-0.3489837646484375,0.9575042724609376,-0.1788330078125
-0.2890167236328125,0.8576812744140625,-0.1289520263671875
-0.300628662109375,0.78326416015625,-0.0876312255859375
-0.296905517578125,0.794525146484375,-0.0682525634765625
-0.215057373046875,0.820220947265625,-0.08154296875
-0.2246246337890625,0.7764129638671875,-0.07574462890625
-0.324798583984375,0.8327484130859375,-0.0065765380859375
-0.288543701171875,0.887786865234375,-0.00787353515625
-0.39080810546875,0.9308624267578124,-0.06512451171875
-0.5820770263671875,1.1092071533203125,-0.1012420654296875
-0.71820068359375,1.289581298828125,-0.126434326171875
-0.7683258056640625,1.2315521240234375,-0.151824951171875
-0.7917022705078125,1.0580596923828125,-0.19927978515625
-0.8197021484375,0.9597015380859376,-0.18377685546875
-0.8032073974609375,0.91680908203125,-0.1270294189453125
-0.752532958984375,0.8398895263671875,-0.056243896484375
-0.7451629638671875,0.794403076171875,-0.0404510498046875
-0.7869110107421875,0.903717041015625,-0.06219482421875
-0.78466796875,0.919342041015625,-0.1439056396484375
-0.81524658203125,0.8380279541015625,-0.2248687744140625
-0.900970458984375,0.8935699462890625,-0.1982269287109375
-0.8453369140625,1.014892578125,-0.094390869140625
-0.7115325927734375,0.95526123046875,-0.1244354248046875
-0.6978759765625,0.88824462890625,-0.1915740966796875
-0.754669189453125,1.0447998046875,-0.1915130615234375
-0.77288818359375,1.2506256103515625,-0.2099761962890625
-0.6704254150390625,1.2795867919921875,-0.3123626708984375
-0.5972747802734375,1.184783935546875,-0.394989013671875
-0.5692901611328125,1.1095428466796875,-0.38079833984375
-0.4711761474609375,1.0384368896484375,-0.305694580078125
-0.3568267822265625,0.92724609375,-0.2789764404296875
-0.2833251953125,0.8359222412109375,-0.2818603515625
-0.2967376708984375,0.81005859375,-0.2492523193359375
-0.2977142333984375,0.8016357421875,-0.1652374267578125
-0.272369384765625,0.7476043701171875,-0.1041107177734375
-0.318023681640625,0.7631378173828125,-0.065093994140625
-0.34002685546875,0.8358154296875,-0.0085906982421875
-0.3241119384765625,0.795745849609375,0.0590972900390625
-0.4609222412109375,0.8703765869140625,0.1765899658203125
-0.59429931640625,1.0897979736328125,0.1441497802734375
-0.7156982421875,1.1714630126953125,0.0912017822265625
-0.79913330078125,1.0980072021484375,0.1447601318359375
-0.866485595703125,1.0216217041015625,0.1483612060546875
-0.8507080078125,0.955352783203125,0.1075286865234375
-0.8032684326171875,0.90838623046875,0.13226318359375
-0.7951202392578125,0.863800048828125,0.14324951171875
-0.753173828125,0.8003997802734375,0.106536865234375
-0.70172119140625,0.736328125,0.054962158203125
-0.6883544921875,0.7259368896484375,-0.0429229736328125
-0.6945037841796875,0.7803802490234375,-0.1036224365234375
-0.7132110595703125,0.8374786376953125,-0.1829833984375
-0.6963653564453125,0.9024505615234376,-0.2344512939453125
-0.5819854736328125,0.9110107421875,-0.23602294921875
-0.34832763671875,0.965301513671875,-0.2718963623046875
-0.2245941162109375,1.029266357421875,-0.4441375732421875
-0.21038818359375,1.0169677734375,-0.4739837646484375
-0.2132110595703125,0.926513671875,-0.46820068359375
-0.198944091796875,0.8440093994140625,-0.4529876708984375
-0.2046966552734375,0.7884521484375,-0.43011474609375
-0.248138427734375,0.814117431640625,-0.555023193359375
-0.46002197265625,0.8628082275390625,-0.54986572265625
-0.6436309814453125,0.7743072509765625,-0.2900848388671875
-0.71868896484375,0.790130615234375,-0.188873291015625
-0.751922607421875,0.895599365234375,-0.26898193359375
-0.77801513671875,0.986358642578125,-0.3134307861328125
-0.85784912109375,1.076507568359375,-0.48394775390625
-0.82745361328125,1.1182861328125,-0.50823974609375
-0.720733642578125,1.1183929443359375,-0.4026947021484375
-0.5829315185546875,1.10711669921875,-0.333160400390625
-0.39862060546875,1.0152435302734375,-0.23382568359375
-0.255401611328125,0.85662841796875,-0.17333984375
-0.2362823486328125,0.7199249267578125,-0.131805419921875
-0.30438232421875,0.7428131103515625,-0.082763671875
-0.1993408203125,0.7693023681640625,-0.0587615966796875
-0.1967010498046875,0.79180908203125,-0.0747222900390625
-0.3460540771484375,0.839752197265625,-0.079742431640625
-0.4959259033203125,0.8538055419921875,0.024169921875
-0.567718505859375,0.949951171875,-0.0083160400390625
-0.47564697265625,1.0091094970703125,-0.1169281005859375
-0.4532318115234375,0.988525390625,-0.1978759765625
-0.5199432373046875,0.9428558349609376,-0.2067108154296875
-0.578155517578125,0.9141845703125,-0.06298828125
-0.6418914794921875,0.90240478515625,0.0865478515625
-0.6600341796875,0.91717529296875,0.1963653564453125
-0.67462158203125,0.9354705810546876,0.1276702880859375
-0.690277099609375,0.9480133056640624,-0.070159912109375
-0.689117431640625,0.9477691650390624,-0.1675262451171875
-0.7002410888671875,0.8761444091796875,-0.216033935546875
-0.7960052490234375,0.900482177734375,-0.2574615478515625
-0.803314208984375,0.982452392578125,-0.2570648193359375
-0.6489715576171875,0.8629913330078125,-0.1553955078125
-0.6919403076171875,0.832244873046875,-0.1532440185546875
-0.685577392578125,0.953216552734375,-0.154144287109375
-0.659942626953125,1.1067657470703125,-0.1701202392578125
-0.60064697265625,1.0736083984375,-0.2454376220703125
-0.5585479736328125,0.95166015625,-0.2965087890625
-0.5472564697265625,0.9228057861328124,-0.237762451171875
-0.4511871337890625,0.9220428466796876,-0.1748809814453125
-0.35491943359375,0.888946533203125,-0.1893157958984375
-0.360076904296875,0.91583251953125,-0.2144012451171875
-0.3797607421875,1.0062713623046875,-0.1640472412109375
-0.2710418701171875,0.99749755859375,-0.1037139892578125
-0.25909423828125,0.898712158203125,-0.1254425048828125
-0.38677978515625,0.903839111328125,-0.1424560546875
-0.3468170166015625,0.8307037353515625,-0.16009521484375
-0.384429931640625,0.7471160888671875,-0.08953857421875
-0.522918701171875,0.848175048828125,0.0179901123046875
-0.58636474609375,1.0308380126953125,0.008087158203125
-0.587738037109375,1.03167724609375,-0.0758819580078125
-0.6196441650390625,0.8740997314453125,-0.1183319091796875
-0.6947174072265625,0.8066558837890625,-0.12384033203125
-0.6866912841796875,0.802154541015625,-0.096649169921875
-0.630126953125,0.796722412109375,-0.0167388916015625
-0.636810302734375,0.8137969970703125,-0.0811767578125
-0.631927490234375,0.860687255859375,-0.1683502197265625
-0.618499755859375,0.9200286865234376,-0.218292236328125
-0.6117706298828125,0.8584747314453125,-0.1175689697265625
-0.727508544921875,0.8474273681640625,-0.0898590087890625
-0.817138671875,1.0439453125,-0.1461181640625
-0.6932220458984375,1.0602569580078125,-0.1284637451171875
-0.7821197509765625,0.8698883056640625,-0.01556396484375
-0.814300537109375,0.9458465576171876,0.0672607421875
-0.69500732421875,1.0890350341796875,-0.27252197265625
-0.4035491943359375,1.1596832275390625,-0.2883453369140625
-0.34521484375,1.0774383544921875,-0.2884521484375
-0.330780029296875,0.9855499267578124,-0.1363525390625
-0.350067138671875,0.890350341796875,-0.0646820068359375
-0.362213134765625,0.7584991455078125,-0.0064239501953125
-0.4068145751953125,0.785186767578125,0.0376739501953125
-0.3396453857421875,0.8563385009765625,0.00140380859375
-0.245361328125,0.8331298828125,-0.0948333740234375
-0.2609710693359375,0.8334197998046875,-0.0724639892578125
-0.3907623291015625,0.969482421875,-0.0218048095703125
-0.4117889404296875,1.086761474609375,0.077728271484375
-0.29461669921875,0.83740234375,0.044219970703125
-0.5892181396484375,0.865447998046875,0.0060272216796875
-0.7383270263671875,1.01995849609375,-0.080169677734375
-0.72174072265625,1.11724853515625,-0.08526611328125
-0.6840667724609375,0.9612884521484376,-0.100494384765625
-0.707061767578125,0.8164825439453125,-0.1458587646484375
-0.70184326171875,0.7871856689453125,-0.1605377197265625
-0.562347412109375,0.8005523681640625,-0.066131591796875
-0.489166259765625,0.7479400634765625,-0.0187225341796875
-0.562347412109375,0.739044189453125,-0.0412445068359375
-0.647918701171875,0.81658935546875,-0.07904052734375
-0.6919097900390625,0.9403228759765624,-0.1246337890625
-0.68438720703125,0.955902099609375,-0.1899261474609375
-0.7056884765625,0.9809112548828124,-0.2425689697265625
-0.6874237060546875,1.0506439208984375,-0.27777099609375
-0.5872344970703125,0.99566650390625,-0.2592010498046875
-0.6731109619140625,0.89068603515625,-0.147735595703125
-0.7325439453125,0.987030029296875,-0.1958465576171875
-0.673675537109375,1.0987548828125,-0.3165130615234375
-0.597991943359375,1.04840087890625,-0.3659820556640625
-0.5689849853515625,0.9649505615234376,-0.379547119140625
-0.504547119140625,0.9607696533203124,-0.4105072021484375
-0.3971710205078125,0.947357177734375,-0.30950927734375
-0.3213348388671875,0.8750152587890625,-0.2027435302734375
-0.3336944580078125,0.9163665771484376,-0.063934326171875
-0.3061676025390625,0.973785400390625,-0.0472259521484375
-0.2393035888671875,1.01605224609375,-0.120513916015625
-0.17724609375,0.988677978515625,-0.1602325439453125
-0.289642333984375,0.8728179931640625,-0.1201019287109375
-0.3993377685546875,0.86041259765625,0.0313568115234375
-0.307037353515625,0.8051910400390625,-0.0171966552734375
-0.3566741943359375,0.8894805908203125,-0.0375823974609375
-0.4530792236328125,1.1572418212890625,-0.0950164794921875
-0.5127105712890625,1.2918853759765625,-0.126068115234375
-0.598358154296875,1.1052093505859375,-0.19189453125
-0.7257080078125,0.9473876953125,-0.175506591796875
-0.7794342041015625,0.9053802490234376,-0.079681396484375
-0.7626953125,0.8699493408203125,-0.0592498779296875
-0.7834625244140625,0.8251800537109375,-0.09332275390625
-0.8751373291015625,0.8650665283203125,-0.089691162109375
-0.8905487060546875,0.91815185546875,-0.021240234375
-0.7663116455078125,0.957244873046875,-0.0946197509765625
-0.5722198486328125,0.943389892578125,-0.2161865234375
-0.474884033203125,0.9201812744140624,-0.268310546875
-0.53814697265625,1.16571044921875,-0.2648773193359375
-0.5517120361328125,1.157440185546875,-0.29034423828125
-0.710662841796875,1.051116943359375,-0.2472991943359375
-0.817352294921875,1.060211181640625,-0.2447509765625
-0.739288330078125,1.1071319580078125,-0.222076416015625
-0.6575775146484375,1.170745849609375,-0.2836151123046875
-0.5562744140625,1.148895263671875,-0.286346435546875
-0.42626953125,1.0425567626953125,-0.2444915771484375
-0.284393310546875,0.9114990234375,-0.18115234375
-0.224151611328125,0.8516998291015625,-0.105682373046875
-0.1908721923828125,0.8499908447265625,-0.0713348388671875
-0.1431427001953125,0.896728515625,-0.0756072998046875
-0.13739013671875,0.8221588134765625,-0.1414337158203125
-0.356597900390625,0.891571044921875,-0.05078125
-0.2718505859375,0.974761962890625,-0.0726776123046875
-0.2960052490234375,1.000030517578125,-0.2256927490234375
-0.5526123046875,1.1457366943359375,-0.161163330078125
-0.7174224853515625,1.28253173828125,-0.120330810546875
-0.72869873046875,1.13995361328125,-0.0825347900390625
-0.759735107421875,0.932861328125,-0.0813751220703125
-0.7832794189453125,0.860687255859375,-0.0831298828125
-0.7488555908203125,0.8532867431640625,-0.05694580078125
-0.672607421875,0.828582763671875,-0.0693817138671875
-0.6336822509765625,0.8382720947265625,-0.0823211669921875
-0.5905303955078125,0.8771820068359375,-0.1110382080078125
-0.5664215087890625,0.935394287109375,-0.17767333984375
-0.53680419921875,0.8944854736328125,-0.2226104736328125
-0.5537872314453125,0.8389892578125,-0.23687744140625
-0.7429962158203125,1.016998291015625,-0.2344818115234375
-0.6847381591796875,0.98089599609375,-0.152923583984375
-0.8133392333984375,1.01947021484375,-0.1933746337890625
-0.818511962890625,1.12652587890625,-0.2609405517578125
-0.7297515869140625,1.1631317138671875,-0.2989959716796875
-0.673736572265625,1.1252288818359375,-0.2928924560546875
-0.587890625,1.125152587890625,-0.2041473388671875
-0.38623046875,1.1266326904296875,-0.1151275634765625
-0.1994476318359375,1.0158233642578125,-0.1117706298828125
-0.1221160888671875,0.86737060546875,-0.082733154296875
-0.16168212890625,0.7867889404296875,-0.0120697021484375
-0.1683197021484375,0.76776123046875,0.005767822265625
-0.18798828125,0.8335418701171875,-0.04339599609375
-0.1735382080078125,0.8616943359375,-0.1478271484375
-0.3842010498046875,0.9787139892578124,-0.1469268798828125
-0.359771728515625,1.042694091796875,-0.120452880859375
-0.3890228271484375,0.952545166015625,-0.24200439453125
-0.6914520263671875,1.073699951171875,-0.1953277587890625
-0.7294464111328125,1.111419677734375,-0.16876220703125
-0.7074737548828125,0.9993896484375,-0.279449462890625
-0.745697021484375,0.871917724609375,-0.34613037109375
-0.7761993408203125,0.8378448486328125,-0.2540435791015625
-0.70074462890625,0.914642333984375,-0.079559326171875
-0.557342529296875,0.922698974609375,-0.028656005859375
-0.600982666015625,0.8532562255859375,-0.0660858154296875
-0.6847991943359375,0.816650390625,-0.1819610595703125
-0.72003173828125,0.8612823486328125,-0.2689666748046875
-0.7031097412109375,0.8479156494140625,-0.2928924560546875
-0.7811126708984375,0.833831787109375,-0.2737884521484375
-0.9202728271484376,1.0239715576171875,-0.222503662109375
-0.7189788818359375,1.001556396484375,-0.2490386962890625
-0.72149658203125,1.033203125,-0.3715972900390625
-0.681121826171875,1.0741424560546875,-0.473846435546875
-0.5626220703125,0.99957275390625,-0.4346466064453125
-0.53509521484375,0.925048828125,-0.3686065673828125
-0.538726806640625,0.950408935546875,-0.3205108642578125
-0.500152587890625,1.0218505859375,-0.3223724365234375
-0.4121856689453125,1.044525146484375,-0.3563995361328125
-0.3961181640625,1.09027099609375,-0.396209716796875
-0.3960723876953125,1.125946044921875,-0.4121551513671875
-0.3662109375,1.071075439453125,-0.3291168212890625
-0.2671661376953125,0.9253997802734376,-0.246337890625
-0.30462646484375,0.896453857421875,-0.256927490234375
-0.1891937255859375,0.892669677734375,-0.1003875732421875
-0.128814697265625,0.747589111328125,0.0637359619140625
-0.3100738525390625,0.759979248046875,0.21343994140625
-0.41973876953125,0.9150848388671876,0.1363983154296875
-0.4525146484375,1.0043487548828125,0.03887939453125
-0.5401611328125,0.9578857421875,0.0145416259765625
-0.6248016357421875,0.946441650390625,0.0269317626953125
-0.638031005859375,1.0169830322265625,0.031524658203125
-0.6560516357421875,1.05584716796875,0.026824951171875
-0.7132720947265625,1.0111083984375,0.09210205078125
-0.782257080078125,0.9903411865234376,0.096466064453125
-0.8131561279296875,1.0137939453125,0.0079345703125
-0.7567596435546875,0.9221343994140624,-0.0824737548828125
-0.73309326171875,0.829254150390625,-0.17431640625
-0.7990264892578125,0.921844482421875,-0.233642578125
-0.701446533203125,1.0076904296875,-0.2174072265625
-0.729400634765625,0.9449920654296876,-0.156280517578125
-0.851043701171875,0.98431396484375,-0.1958770751953125
-0.8273162841796875,1.0098724365234375,-0.1703033447265625
-0.780975341796875,1.079681396484375,-0.234405517578125
-0.74658203125,1.2013397216796875,-0.2690887451171875
-0.644561767578125,1.26983642578125,-0.256072998046875
-0.4791259765625,1.2148284912109375,-0.2260284423828125
-0.3370208740234375,1.08941650390625,-0.208984375
-0.238800048828125,0.9450225830078124,-0.163330078125
-0.1988983154296875,0.882049560546875,-0.0975189208984375
-0.1433868408203125,0.793609619140625,-0.081573486328125
-0.1711578369140625,0.6761932373046875,-0.08892822265625
-0.274322509765625,0.8311767578125,0.051239013671875
-0.174163818359375,0.892303466796875,-0.0429840087890625
-0.420989990234375,0.926971435546875,-0.13031005859375
-0.616455078125,1.062713623046875,-0.135711669921875
-0.642822265625,1.1739959716796875,-0.100372314453125
-0.60101318359375,1.04132080078125,-0.10968017578125
-0.684356689453125,0.9338836669921876,-0.1230926513671875
-0.724639892578125,0.9350128173828124,-0.121368408203125
-0.715362548828125,0.9434356689453124,-0.128143310546875
-0.7082977294921875,0.8972930908203125,-0.1528167724609375
-0.72479248046875,0.86187744140625,-0.172088623046875
-0.765869140625,0.93548583984375,-0.1301422119140625
-0.7147216796875,0.95709228515625,-0.1225433349609375
-0.7100372314453125,0.86962890625,-0.1981658935546875
-0.79736328125,0.9015350341796876,-0.2198486328125
-0.7531280517578125,0.90020751953125,-0.138397216796875
-0.710052490234375,0.845123291015625,-0.11138916015625
-0.785003662109375,0.9683074951171876,-0.1375579833984375
-0.7958221435546875,1.1003265380859375,-0.1679229736328125
-0.752532958984375,1.138519287109375,-0.25677490234375
-0.6877899169921875,1.1055755615234375,-0.3332977294921875
-0.664306640625,1.116058349609375,-0.33740234375
-0.56536865234375,1.12744140625,-0.2963409423828125
-0.4036102294921875,1.0734710693359375,-0.2689361572265625
-0.2977752685546875,0.938995361328125,-0.25421142578125
-0.2795257568359375,0.8470611572265625,-0.2033538818359375
-0.297088623046875,0.8335723876953125,-0.1207427978515625
-0.2346649169921875,0.741119384765625,-0.0120391845703125
-0.186187744140625,0.6104278564453125,-0.0829315185546875
-0.379425048828125,0.7769622802734375,0.0469970703125
-0.4100189208984375,0.902008056640625,0.1906280517578125
-0.4529571533203125,0.9209747314453124,0.1314697265625
-0.62408447265625,0.8721923828125,0.1828765869140625
-0.8242034912109375,0.9089813232421876,0.255615234375
-0.9903564453125,0.96917724609375,0.29449462890625
-0.9789886474609376,0.9018402099609376,0.2780303955078125
-0.93084716796875,0.7557220458984375,0.24530029296875
-0.903167724609375,0.679840087890625,0.1686553955078125
-0.8179931640625,0.6621246337890625,0.1237335205078125
-0.697509765625,0.6595458984375,0.149505615234375
-0.7700958251953125,0.7563934326171875,0.14093017578125
-0.7257537841796875,0.74798583984375,0.0711822509765625
-0.7672119140625,0.7787017822265625,0.085235595703125
-0.7734527587890625,0.8286590576171875,0.0648651123046875
-0.747100830078125,0.9342193603515624,0.0144195556640625
-0.6777191162109375,1.003021240234375,-0.0682525634765625
-0.5931243896484375,0.95904541015625,-0.191558837890625
-0.494598388671875,0.8330230712890625,-0.1464385986328125
-0.4481353759765625,0.8112640380859375,-0.0321044921875
-0.432525634765625,0.94207763671875,-0.1938323974609375
-0.35589599609375,0.9623565673828124,-0.3847503662109375
-0.3624420166015625,0.875030517578125,-0.4657745361328125
-0.4010467529296875,0.82476806640625,-0.4403839111328125
-0.39471435546875,0.8322601318359375,-0.53070068359375
-0.387298583984375,0.845916748046875,-0.5308685302734375
-0.3905181884765625,0.869781494140625,-0.4498291015625
-0.4187774658203125,0.915435791015625,-0.3699493408203125
-0.3870391845703125,0.9786834716796876,-0.42913818359375
-0.394500732421875,0.94451904296875,-0.3881378173828125
-0.46240234375,0.9607391357421876,-0.2119293212890625
-0.39007568359375,1.0012969970703125,-0.1786346435546875
-0.391876220703125,1.0317230224609375,-0.460540771484375
-0.410064697265625,0.9841461181640624,-0.448577880859375
-0.433349609375,0.99017333984375,-0.1963348388671875
-0.5165557861328125,1.0084686279296875,-0.0993499755859375
-0.4904632568359375,1.0645599365234375,-0.16644287109375
-0.4374237060546875,1.099853515625,-0.2359466552734375
-0.4485321044921875,1.0541534423828125,-0.1711273193359375
-0.39788818359375,1.0032806396484375,-0.1073760986328125
-0.3298492431640625,0.9860992431640624,-0.11004638671875
-0.1141815185546875,0.9930267333984376,-0.100738525390625
0.028961181640625,0.9756622314453124,-0.0562286376953125
-0.04388427734375,1.0385284423828125,-0.018157958984375
-0.0355072021484375,0.96441650390625,0.0566253662109375
-0.136474609375,0.94732666015625,0.0006256103515625
-0.2396392822265625,1.034393310546875,0.0186767578125
-0.3747406005859375,1.091064453125,0.0719451904296875
-0.5157928466796875,1.0975494384765625,0.062835693359375
-0.660552978515625,1.091278076171875,0.0126800537109375
-0.713226318359375,1.0897979736328125,0.0175323486328125
-0.773590087890625,1.0649871826171875,0.025848388671875
-0.770111083984375,1.0153656005859375,0.0464324951171875
-0.776611328125,0.983367919921875,-0.025054931640625
-0.797454833984375,0.9012451171875,-0.124053955078125
-0.8518524169921875,0.871856689453125,-0.1195831298828125
-0.8465728759765625,0.89794921875,-0.00616455078125
-0.855804443359375,0.90863037109375,0.0195465087890625
-0.8350372314453125,1.009063720703125,-0.090362548828125
-0.7479705810546875,1.1787567138671875,-0.200592041015625
-0.6419525146484375,1.2103271484375,-0.2948760986328125
-0.5459747314453125,1.1213226318359375,-0.3076324462890625
-0.4926910400390625,1.0773468017578125,-0.3080902099609375
-0.4473724365234375,1.1325531005859375,-0.3266754150390625
-0.3711700439453125,1.1009979248046875,-0.3393402099609375
-0.342071533203125,1.0257110595703125,-0.24462890625
-0.3135528564453125,1.023223876953125,-0.21246337890625
-0.23785400390625,1.0034637451171875,-0.221435546875
-0.2122344970703125,0.854827880859375,-0.1895904541015625
-0.206329345703125,0.7714691162109375,-0.1215057373046875
-0.22454833984375,0.8854827880859375,-0.0765533447265625
-0.213775634765625,0.913818359375,-0.040374755859375
-0.426513671875,0.9699859619140624,0.042327880859375
-0.580230712890625,1.0418701171875,0.087310791015625
-0.6179351806640625,1.0749053955078125,-0.0138397216796875
-0.56884765625,0.972625732421875,-0.044952392578125
-0.6049346923828125,0.90289306640625,-0.005706787109375
-0.625946044921875,0.88763427734375,0.036163330078125
-0.6107025146484375,0.8849639892578125,0.0427703857421875
-0.6399993896484375,0.8991851806640625,0.008819580078125
-0.6678314208984375,0.990081787109375,-0.072845458984375
-0.7023468017578125,1.0777435302734375,-0.1217498779296875
-0.7238616943359375,1.0181121826171875,-0.197509765625
-0.7959442138671875,0.89794921875,-0.20196533203125
-0.8578948974609375,0.92236328125,-0.153656005859375
-0.7501678466796875,0.929718017578125,-0.073638916015625
-0.6649932861328125,0.83123779296875,-0.083160400390625
-0.6959075927734375,0.8494873046875,-0.143157958984375
-0.671417236328125,0.9777374267578124,-0.1284027099609375
-0.6068267822265625,1.0579681396484375,-0.2024383544921875
-0.577972412109375,1.057464599609375,-0.2589263916015625
-0.57330322265625,1.052032470703125,-0.274322509765625
-0.5164794921875,1.0577850341796875,-0.236358642578125
-0.4077301025390625,1.0118408203125,-0.1741943359375
-0.340850830078125,0.960784912109375,-0.1319122314453125
-0.3352813720703125,0.945831298828125,-0.131195068359375
-0.2836151123046875,0.9494171142578124,-0.0811614990234375
-0.208740234375,0.8431243896484375,-0.0594635009765625
-0.3136444091796875,0.74761962890625,-0.05743408203125
-0.4012908935546875,0.877777099609375,0.0245208740234375
-0.272369384765625,0.9037628173828124,-0.029296875
-0.4294281005859375,0.902252197265625,-0.0742340087890625
-0.586883544921875,1.0069427490234375,-0.1058807373046875
-0.6475982666015625,1.0666656494140625,-0.10858154296875
-0.636016845703125,0.9228057861328124,-0.0759124755859375
-0.6292572021484375,0.791748046875,-0.0587310791015625
-0.6379547119140625,0.792449951171875,-0.0763092041015625
-0.6138458251953125,0.840606689453125,-0.0394287109375
-0.6252288818359375,0.83648681640625,-0.06524658203125
-0.7659912109375,0.8628692626953125,-0.08111572265625
-0.9048614501953124,0.8740997314453125,-0.1029205322265625
-0.947418212890625,0.869598388671875,-0.1811676025390625
-0.87713623046875,0.8419952392578125,-0.1682891845703125
-0.798736572265625,0.8917388916015625,-0.0906219482421875
-0.7991180419921875,1.089935302734375,-0.089202880859375
-0.6512298583984375,1.1558990478515625,-0.1884918212890625
-0.6037445068359375,0.99127197265625,-0.2407684326171875
-0.729583740234375,0.9951171875,-0.106231689453125
-0.692047119140625,1.11968994140625,0.0951080322265625
-0.5274810791015625,1.104766845703125,0.138153076171875
-0.482147216796875,0.9646148681640624,-0.009674072265625
-0.4568023681640625,0.900421142578125,-0.1083221435546875
-0.31982421875,0.8290252685546875,-0.0377655029296875
-0.2104644775390625,0.71038818359375,0.07452392578125
-0.2744903564453125,0.64324951171875,0.1072540283203125
-0.39697265625,0.6587371826171875,0.121429443359375
-0.45489501953125,0.678619384765625,0.07806396484375
-0.4536590576171875,0.7944793701171875,-0.1182861328125
-0.449981689453125,0.9400787353515624,-0.3095245361328125
-0.5944976806640625,1.1080474853515625,-0.406097412109375
-0.5067596435546875,1.044952392578125,-0.40740966796875
-0.4954986572265625,0.8922882080078125,-0.4145660400390625
-0.724151611328125,0.94317626953125,-0.1772003173828125
-0.76409912109375,0.98980712890625,0.010467529296875
-0.678253173828125,0.9352569580078124,-0.0281829833984375
-0.629486083984375,0.795440673828125,-0.2181549072265625
-0.6310882568359375,0.721923828125,-0.27801513671875
-0.616241455078125,0.7981414794921875,-0.1582489013671875
-0.607879638671875,0.8436431884765625,-0.1042938232421875
-0.6247100830078125,0.8073577880859375,-0.0439910888671875
-0.697601318359375,0.8246307373046875,-0.0046234130859375
-0.7633819580078125,0.923126220703125,-0.034881591796875
-0.7301025390625,0.928619384765625,-0.1538543701171875
-0.723968505859375,0.8486480712890625,-0.2202606201171875
-0.8115081787109375,0.927398681640625,-0.211822509765625
-0.752593994140625,1.0487823486328125,-0.1617279052734375
-0.678863525390625,0.9359893798828124,-0.1988677978515625
-0.726715087890625,0.9468536376953124,-0.2828369140625
-0.74346923828125,1.055755615234375,-0.233489990234375
-0.6492462158203125,1.1020965576171875,-0.2676849365234375
-0.56610107421875,1.0450286865234375,-0.3320770263671875
-0.5309600830078125,0.9722900390625,-0.327484130859375
-0.4271697998046875,0.9651947021484376,-0.3101043701171875
-0.3209686279296875,0.8763885498046875,-0.238067626953125
-0.30584716796875,0.8545989990234375,-0.177886962890625
-0.2982025146484375,0.8904876708984375,-0.1320343017578125
-0.2658233642578125,0.949676513671875,-0.091583251953125
-0.2196502685546875,0.873687744140625,-0.12646484375
-0.439422607421875,0.89984130859375,-0.06787109375
-0.4156951904296875,0.919158935546875,-0.0328521728515625
-0.3990478515625,0.8304290771484375,-0.112091064453125
-0.5682525634765625,0.8847198486328125,-0.0447235107421875
-0.6424713134765625,1.021148681640625,0.0054931640625
-0.610931396484375,1.012847900390625,-0.00787353515625
-0.6342010498046875,0.8947601318359375,-0.059906005859375
-0.6848602294921875,0.8683929443359375,-0.11590576171875
-0.6861114501953125,0.8795623779296875,-0.1266632080078125
-0.6781005859375,0.8280792236328125,-0.10015869140625
-0.6976470947265625,0.8137664794921875,-0.1063079833984375
-0.7032928466796875,0.8764190673828125,-0.0997314453125
-0.6764068603515625,0.9468994140625,-0.0960235595703125
-0.647186279296875,0.8887176513671875,-0.17938232421875
-0.6835784912109375,0.80584716796875,-0.2190399169921875
-0.76690673828125,0.910125732421875,-0.205718994140625
-0.6975250244140625,0.9811859130859376,-0.2032928466796875
-0.7050018310546875,0.8137969970703125,-0.230255126953125
-0.836395263671875,0.84716796875,-0.207611083984375
-0.8487091064453125,1.0036468505859375,-0.1061553955078125
-0.7772979736328125,1.117431640625,-0.15289306640625
-0.7370147705078125,1.136260986328125,-0.298614501953125
-0.661163330078125,1.135498046875,-0.308013916015625
-0.4866790771484375,1.080474853515625,-0.1945953369140625
-0.2934112548828125,0.962860107421875,-0.11676025390625
-0.225067138671875,0.821197509765625,-0.0967559814453125
-0.2573089599609375,0.747589111328125,-0.109375
-0.235870361328125,0.7771759033203125,-0.1048583984375
-0.21343994140625,0.809600830078125,-0.0903167724609375
-0.2450408935546875,0.795928955078125,-0.15771484375
-0.435821533203125,0.8625030517578125,-0.10235595703125
-0.4530487060546875,0.948486328125,-0.087860107421875
-0.49664306640625,0.9504241943359376,-0.1422882080078125
-0.6947021484375,1.0228118896484375,-0.1072235107421875
-0.787689208984375,1.1259002685546875,-0.1719970703125
-0.7476654052734375,1.020721435546875,-0.2142486572265625
-0.7022552490234375,0.8628387451171875,-0.18975830078125
-0.663543701171875,0.7787628173828125,-0.0751495361328125
-0.62750244140625,0.7871246337890625,0.0065460205078125
-0.5921173095703125,0.800048828125,-0.01470947265625
-0.6168365478515625,0.767120361328125,-0.037384033203125
-0.6710052490234375,0.7836151123046875,-0.05902099609375
-0.770111083984375,0.9209442138671876,-0.14434814453125
-0.7675323486328125,0.9696807861328124,-0.235809326171875
-0.7712860107421875,0.891448974609375,-0.2878265380859375
-0.8537750244140625,0.964569091796875,-0.263031005859375
-0.774993896484375,1.0039825439453125,-0.118316650390625
-0.6855010986328125,0.891265869140625,-0.1107635498046875
-0.7775726318359375,0.951019287109375,-0.23992919921875
-0.819183349609375,1.108428955078125,-0.18048095703125
-0.72369384765625,1.21417236328125,-0.15228271484375
-0.60980224609375,1.1848907470703125,-0.14544677734375
-0.55242919921875,1.115570068359375,-0.0961151123046875
-0.4420623779296875,1.0236663818359375,0.0005340576171875
-0.3019256591796875,0.8960113525390625,0.0895843505859375
-0.2724456787109375,0.807098388671875,0.074066162109375
-0.2380218505859375,0.779571533203125,0.09112548828125
-0.2290191650390625,0.8159027099609375,0.038787841796875
-0.2202606201171875,0.82171630859375,-0.02423095703125
-0.23870849609375,0.8304443359375,-0.0843505859375
-0.343109130859375,0.9019317626953124,-0.1187591552734375
-0.3968658447265625,0.960601806640625,-0.064483642578125
-0.489501953125,0.9477996826171876,-0.137420654296875
-0.7223052978515625,1.04974365234375,-0.2117156982421875
-0.8710479736328125,1.1549530029296875,-0.335845947265625
-0.8195343017578125,1.1021575927734375,-0.4252777099609375
-0.7453460693359375,0.8184814453125,-0.396453857421875
-0.7408447265625,0.676116943359375,-0.1760101318359375
-0.6754302978515625,0.6987762451171875,-0.0158233642578125
-0.5782012939453125,0.7537384033203125,0.00970458984375
-0.584136962890625,0.7966156005859375,-0.037322998046875
-0.746734619140625,0.9409332275390624,-0.0123291015625
-0.83367919921875,1.0572509765625,-0.1337432861328125
-0.8256988525390625,1.0173797607421875,-0.2869873046875
-0.8894805908203125,0.896240234375,-0.35833740234375
-0.9714202880859376,0.8844451904296875,-0.201812744140625
-0.8742523193359375,0.862030029296875,-0.022796630859375
-0.7842864990234375,0.8488311767578125,-0.0673065185546875
-0.7826995849609375,0.9694061279296876,-0.220001220703125
-0.702972412109375,1.0695953369140625,-0.2497100830078125
-0.6664581298828125,1.066436767578125,-0.2888946533203125
-0.644866943359375,1.0478363037109375,-0.3199615478515625
-0.5849456787109375,1.0606536865234375,-0.298065185546875
-0.4748992919921875,1.022613525390625,-0.19927978515625
-0.3896331787109375,0.93994140625,-0.1173553466796875
-0.3394012451171875,0.89276123046875,-0.091583251953125
-0.298919677734375,0.8814544677734375,-0.10211181640625
-0.2488250732421875,0.9164581298828124,-0.07781982421875
-0.1546783447265625,0.8770294189453125,-0.0552215576171875
-0.2581787109375,0.76824951171875,-0.09423828125
-0.4499053955078125,0.7639312744140625,0.007659912109375
-0.3864593505859375,0.87554931640625,0.0948638916015625
-0.3611602783203125,0.9561920166015624,-0.1181640625
-0.522064208984375,1.0611114501953125,-0.1903533935546875
-0.64202880859375,1.1755828857421875,-0.203948974609375
-0.690673828125,1.095001220703125,-0.20068359375
-0.7163543701171875,0.9048614501953124,-0.1614837646484375
-0.7242584228515625,0.834197998046875,-0.1021728515625
-0.7398834228515625,0.8475189208984375,-0.0723114013671875
-0.75286865234375,0.8143157958984375,-0.1169891357421875
-0.79656982421875,0.80133056640625,-0.133941650390625
-0.802978515625,0.9146881103515624,-0.1707763671875
-0.793487548828125,0.964508056640625,-0.2208251953125
-0.75042724609375,0.8828887939453125,-0.19610595703125
-0.744842529296875,0.8311767578125,-0.139984130859375
-0.781036376953125,0.98468017578125,-0.1032562255859375
-0.7131195068359375,1.0890960693359375,-0.1598052978515625
-0.6616668701171875,0.9567413330078124,-0.219696044921875
-0.7598724365234375,0.9694061279296876,-0.2726593017578125
-0.7413330078125,1.1134033203125,-0.259735107421875
-0.6114044189453125,1.188629150390625,-0.25384521484375
-0.4807586669921875,1.1295623779296875,-0.310882568359375
-0.4357452392578125,1.0299072265625,-0.3569793701171875
-0.379852294921875,0.966705322265625,-0.327392578125
-0.2945404052734375,0.8695526123046875,-0.2467041015625
-0.27996826171875,0.75994873046875,-0.1964263916015625
-0.3221435546875,0.7315521240234375,-0.1285858154296875
-0.297698974609375,0.7657318115234375,-0.1214447021484375
-0.2234344482421875,0.7777862548828125,-0.1477813720703125
-0.254608154296875,0.7602386474609375,-0.143218994140625
-0.414276123046875,0.837310791015625,-0.0704345703125
-0.504150390625,0.9743499755859376,0.0327606201171875
-0.4915924072265625,1.0455169677734375,0.0016937255859375
-0.5731353759765625,1.002227783203125,-0.0618133544921875
-0.73779296875,1.0559539794921875,-0.0263824462890625
-0.8532867431640625,1.0836944580078125,0.0656890869140625
-0.857635498046875,1.0090484619140625,0.1091156005859375
-0.814697265625,0.9185333251953124,0.02032470703125
-0.7877655029296875,0.8705596923828125,-0.0318756103515625
-0.7310638427734375,0.809051513671875,0.056610107421875
-0.68511962890625,0.7869415283203125,0.0763397216796875
-0.6943817138671875,0.7711029052734375,0.0004425048828125
-0.709716796875,0.8369903564453125,-0.01690673828125
-0.705841064453125,0.8468017578125,-0.0475616455078125
-0.6878204345703125,0.8422393798828125,-0.0368194580078125
-0.6704864501953125,0.8731842041015625,-0.084075927734375
-0.5108489990234375,1.03570556640625,-0.21954345703125
-0.344024658203125,1.203125,-0.2685394287109375
-0.37744140625,1.061065673828125,-0.120941162109375
-0.4124908447265625,0.862945556640625,-0.150848388671875
-0.329345703125,0.8424224853515625,-0.2665252685546875
-0.28948974609375,0.897003173828125,-0.376678466796875
-0.316925048828125,0.88671875,-0.50634765625
-0.385162353515625,0.7810211181640625,-0.5252685546875
-0.4602813720703125,0.7151947021484375,-0.3737640380859375
-0.547027587890625,0.7026519775390625,-0.3045196533203125
-0.54974365234375,0.740020751953125,-0.352996826171875
-0.54150390625,0.778167724609375,-0.4716033935546875
-0.5508575439453125,0.85406494140625,-0.4290618896484375
-0.5604248046875,0.9077301025390624,-0.3201904296875
-0.5844573974609375,0.96942138671875,-0.2645263671875
-0.632965087890625,0.9757537841796876,-0.29205322265625
-0.7051544189453125,0.95758056640625,-0.314178466796875
-0.7287445068359375,0.9822998046875,-0.3018798828125
-0.6680145263671875,1.0075836181640625,-0.277587890625
-0.61871337890625,0.9818878173828124,-0.2746734619140625
-0.5576629638671875,0.9592132568359376,-0.2459259033203125
-0.4964599609375,0.930755615234375,-0.256256103515625
-0.4499053955078125,0.8773345947265625,-0.28460693359375
-0.4297027587890625,0.8314361572265625,-0.2725067138671875
-0.417205810546875,0.832244873046875,-0.2358245849609375
-0.3925323486328125,0.8433685302734375,-0.1972503662109375
-0.33172607421875,0.8125762939453125,-0.1377410888671875
-0.2764434814453125,0.8044891357421875,-0.0308990478515625
-0.182098388671875,0.816650390625,-0.060546875
-0.2664031982421875,0.902130126953125,-0.094207763671875
-0.322998046875,0.978515625,-0.0995941162109375
-0.377899169921875,0.977264404296875,-0.06170654296875
-0.4872894287109375,0.9959259033203124,-0.0159759521484375
-0.6337127685546875,1.0221099853515625,-0.0007781982421875
-0.7512359619140625,1.00506591796875,0.0439453125
-0.8045501708984375,0.959930419921875,0.078216552734375
-0.773651123046875,0.9289093017578124,0.0510711669921875
-0.777587890625,0.88238525390625,-0.074554443359375
-0.7938079833984375,0.8314666748046875,-0.06707763671875
-0.7947540283203125,0.8206329345703125,-0.0868682861328125
-0.7924041748046875,0.8180999755859375,-0.13275146484375
-0.8078155517578125,0.8067779541015625,-0.1757049560546875
-0.88909912109375,0.942169189453125,-0.20654296875
-0.84832763671875,1.00421142578125,-0.1993408203125
-0.7562103271484375,0.8636016845703125,-0.2273101806640625
-0.8136749267578125,0.9463958740234376,-0.300323486328125
-0.741455078125,1.1549072265625,-0.347625732421875
-0.5187530517578125,1.290496826171875,-0.4510498046875
-0.304595947265625,1.24676513671875,-0.68145751953125
-0.259063720703125,1.120361328125,-0.6287689208984375
-0.3003082275390625,0.9886322021484376,-0.628326416015625
-0.2488250732421875,0.8647613525390625,-0.4695587158203125
-0.133697509765625,0.7625885009765625,-0.4188232421875
-0.1038360595703125,0.746490478515625,-0.4804229736328125
-0.1933746337890625,0.61865234375,-0.509185791015625
-0.2932586669921875,0.4721832275390625,-0.5102996826171875
-0.31884765625,0.4095001220703125,-0.5433807373046875
-0.3296051025390625,0.43121337890625,-0.72320556640625
-0.33599853515625,0.413299560546875,-0.7240447998046875
-0.39764404296875,0.311798095703125,-0.67340087890625
-0.4915618896484375,0.283203125,-0.710784912109375
-0.4776763916015625,0.363555908203125,-0.66619873046875
-0.45123291015625,0.465423583984375,-0.7129974365234375
-0.4645538330078125,0.4963836669921875,-0.84197998046875
-0.4673919677734375,0.4440155029296875,-0.8218841552734375
-0.4618988037109375,0.401763916015625,-0.720977783203125
-0.4380340576171875,0.35748291015625,-0.68487548828125
-0.4412994384765625,0.339691162109375,-0.6873321533203125
-0.4212493896484375,0.33135986328125,-0.6229705810546875
-0.4323577880859375,0.340728759765625,-0.6184844970703125
-0.435089111328125,0.34527587890625,-0.6108551025390625
-0.3800811767578125,0.333465576171875,-0.641845703125
-0.310791015625,0.22735595703125,-0.662689208984375
-0.3253326416015625,0.2249755859375,-0.5903472900390625
-0.395477294921875,0.3393707275390625,-0.5777587890625
-0.409820556640625,0.542022705078125,-0.47930908203125
-0.4809417724609375,0.7141571044921875,-0.550445556640625
-0.460205078125,0.7883148193359375,-0.7683563232421875
-0.2688446044921875,0.7573089599609375,-0.7606201171875
-0.2324981689453125,0.6629791259765625,-0.7459716796875
-0.348968505859375,0.6042938232421875,-0.74615478515625
-0.314483642578125,0.5448150634765625,-0.6884765625
-0.2391510009765625,0.48260498046875,-0.790863037109375
-0.2472381591796875,0.3862152099609375,-0.9124755859375
-0.2914276123046875,0.3548583984375,-1.0615081787109375
-0.34307861328125,0.358489990234375,-1.1425323486328125
-0.240386962890625,0.4156036376953125,-1.273590087890625
-0.01409912109375,0.585296630859375,-1.2719268798828125
-0.097412109375,0.639617919921875,-1.36993408203125
-0.300933837890625,0.5668792724609375,-1.26019287109375
-0.507720947265625,0.4117279052734375,-1.1741790771484375
-0.6402587890625,0.4270172119140625,-1.0936126708984375
-0.544464111328125,0.425689697265625,-1.1933441162109375
-0.4758758544921875,0.5330047607421875,-1.2647705078125
-0.6732635498046875,0.54498291015625,-1.5688934326171875
-1.11322021484375,0.4646453857421875,-1.2737884521484375
-1.1303863525390625,0.2467193603515625,-0.8308258056640625
-1.163909912109375,0.6685638427734375,-0.6778564453125
-0.50457763671875,0.446441650390625,-0.7034912109375
0.2062835693359375,-0.480499267578125,-0.706298828125
-0.1009979248046875,-0.42083740234375,-0.61614990234375
-0.490081787109375,-0.5250396728515625,-0.1883392333984375
0.017181396484375,-0.5475311279296875,-0.7911224365234375
0.311676025390625,-0.477996826171875,-0.9620361328125
0.034088134765625,-0.656524658203125,-0.40655517578125
-0.0108642578125,-0.6835479736328125,-0.4530487060546875
0.1474609375,-0.6171875,-0.73077392578125
0.0423431396484375,-0.6128082275390625,-0.843902587890625
0.0147857666015625,-0.6219635009765625,-0.7453765869140625
0.032440185546875,-0.62542724609375,-0.5922698974609375
0.1272735595703125,-0.5575103759765625,-0.7841339111328125
0.2229766845703125,-0.513641357421875,-0.8264923095703125
0.3265228271484375,-0.5347442626953125,-0.8832550048828125
0.21820068359375,-0.5058135986328125,-0.882537841796875
0.1311492919921875,-0.53558349609375,-0.769989013671875
0.0829315185546875,-0.572357177734375,-0.7653350830078125
0.1762847900390625,-0.531158447265625,-0.80902099609375
0.166473388671875,-0.5128631591796875,-0.84027099609375
0.125030517578125,-0.544830322265625,-0.771942138671875
0.0894927978515625,-0.5612640380859375,-0.7169952392578125
0.0700531005859375,-0.55511474609375,-0.806060791015625
-0.018402099609375,-0.572265625,-0.8074798583984375
0.001678466796875,-0.55438232421875,-0.844512939453125
0.0584259033203125,-0.5332489013671875,-0.845947265625
0.03265380859375,-0.5377349853515625,-0.8486480712890625
0.06744384765625,-0.529205322265625,-0.8478240966796875
0.073394775390625,-0.538787841796875,-0.8350830078125
0.0539093017578125,-0.543853759765625,-0.80523681640625
0.040252685546875,-0.530609130859375,-0.852447509765625
0.0149993896484375,-0.533782958984375,-0.881256103515625
0.0071563720703125,-0.5427093505859375,-0.84893798828125
0.035430908203125,-0.5281524658203125,-0.873016357421875
0.05059814453125,-0.5218658447265625,-0.8596954345703125
0.05108642578125,-0.5021820068359375,-0.886566162109375
0.059112548828125,-0.51226806640625,-0.8482513427734375
0.0511627197265625,-0.4869384765625,-0.886474609375
