AccelerationX,AccelerationY,AccelerationZ
0.23712158203125,0.0284576416015625,-1.0476531982421875
0.203216552734375,-0.0066680908203125,-0.932159423828125
0.105194091796875,-0.031890869140625,-0.8782196044921875
0.069366455078125,-0.0795135498046875,-0.909271240234375
0.04412841796875,-0.0602874755859375,-0.88592529296875
-0.06011962890625,-0.072479248046875,-0.795562744140625
-0.177093505859375,-0.06243896484375,-0.73626708984375
-0.023590087890625,0.03228759765625,-0.9981536865234376
-0.091522216796875,0.008209228515625,-0.7478790283203125
-0.266357421875,0.013824462890625,-0.61346435546875
-0.343109130859375,0.126708984375,-0.6837158203125
-0.323822021484375,0.23736572265625,-0.8246002197265625
-0.3501434326171875,0.2879638671875,-0.4358673095703125
-0.630859375,0.399810791015625,-0.36376953125
-0.8175201416015625,0.5167083740234375,-0.6734466552734375
-0.82598876953125,0.5706939697265625,-0.414581298828125
-0.918670654296875,0.6629638671875,-0.588775634765625
-1.00634765625,0.652008056640625,-0.56158447265625
-0.9310302734375,0.6663970947265625,-0.4607086181640625
-1.0169525146484375,0.6878662109375,-0.6246795654296875
-1.0354156494140625,0.64093017578125,-0.5319061279296875
-0.956573486328125,0.57623291015625,-0.3121795654296875
-0.970611572265625,0.5810546875,-0.239166259765625
-0.983856201171875,0.59246826171875,-0.232574462890625
-1.0533447265625,0.621185302734375,-0.236541748046875
-0.9647064208984376,0.5780029296875,-0.13616943359375
-1.00604248046875,0.5947723388671875,-0.1642303466796875
-0.972808837890625,0.598602294921875,-0.11517333984375
-0.93328857421875,0.5961151123046875,-0.0798492431640625
-0.83709716796875,0.581024169921875,-0.119049072265625
-0.8450469970703125,0.5807647705078125,-0.0634765625
-0.8920745849609375,0.563812255859375,0.00469970703125
-0.821197509765625,0.7158966064453125,0.004638671875
-0.6698455810546875,0.6655120849609375,-0.2698822021484375
-0.734130859375,0.7328643798828125,-0.3367462158203125
-0.731414794921875,0.673065185546875,-0.1578216552734375
-0.687591552734375,0.7978973388671875,-0.1369781494140625
-0.68524169921875,0.904876708984375,-0.207000732421875
-0.69744873046875,0.83349609375,-0.0762176513671875
-0.50445556640625,0.6857452392578125,-0.0858154296875
-0.611053466796875,0.74383544921875,-0.0755462646484375
-0.621734619140625,0.7730865478515625,-0.053375244140625
-0.4213104248046875,0.6517486572265625,-0.00372314453125
-0.5415802001953125,0.673187255859375,0.0859527587890625
-0.5723419189453125,0.6906585693359375,0.086883544921875
-0.6337432861328125,0.7516021728515625,0.13037109375
-0.6473388671875,0.830841064453125,0.1452789306640625
-0.6482086181640625,0.857177734375,0.0749359130859375
-0.7475738525390625,0.969085693359375,0.0095977783203125
-0.6810302734375,0.9788055419921876,-0.02825927734375
-0.6431884765625,0.7888336181640625,-0.0407562255859375
-0.6725616455078125,0.5942535400390625,0.017578125
-0.666595458984375,0.6838226318359375,0.1703948974609375
-0.540863037109375,0.8426361083984375,0.1936187744140625
-0.57476806640625,0.7946319580078125,-0.0174102783203125
-0.6773223876953125,0.7096405029296875,0.0043792724609375
-0.6353607177734375,0.647186279296875,0.1341400146484375
-0.6485595703125,0.61431884765625,0.2888031005859375
-0.722442626953125,0.628326416015625,0.3277130126953125
-0.7320404052734375,0.6027374267578125,0.2359466552734375
-0.707366943359375,0.7037200927734375,0.207916259765625
-0.710052490234375,0.8939361572265625,0.1785125732421875
-0.703521728515625,0.901397705078125,0.2124786376953125
-0.69586181640625,0.8944091796875,0.2033538818359375
-0.69677734375,0.9720001220703124,0.2974395751953125
-0.649658203125,1.0720062255859375,0.241729736328125
-0.597259521484375,0.85540771484375,0.1385955810546875
-0.6953887939453125,0.8111114501953125,0.184814453125
-0.745208740234375,0.95361328125,0.2252960205078125
-0.5168304443359375,0.953277587890625,0.12811279296875
-0.45684814453125,0.791046142578125,0.0742645263671875
-0.484771728515625,0.766082763671875,0.112945556640625
-0.414642333984375,0.7679595947265625,0.1301727294921875
-0.3289031982421875,0.73223876953125,0.1817169189453125
-0.314788818359375,0.7104339599609375,0.2365264892578125
-0.3482818603515625,0.781982421875,0.31365966796875
-0.4130706787109375,0.8888397216796875,0.2650604248046875
-0.4571075439453125,0.8912353515625,0.18096923828125
-0.5706024169921875,0.88189697265625,0.2473297119140625
-0.6241302490234375,1.088775634765625,0.326263427734375
-0.59326171875,0.9733123779296876,0.2183837890625
-0.619171142578125,0.7466278076171875,0.1530914306640625
-0.742919921875,0.805267333984375,0.2149200439453125
-0.649658203125,0.8450927734375,0.26300048828125
-0.5920562744140625,0.739654541015625,0.2595367431640625
-0.6350250244140625,0.6491851806640625,0.248138427734375
-0.61529541015625,0.6773834228515625,0.267730712890625
-0.5977935791015625,0.6869049072265625,0.3010711669921875
-0.6085357666015625,0.665557861328125,0.34173583984375
-0.664154052734375,0.681304931640625,0.374267578125
-0.716888427734375,0.7768402099609375,0.3683319091796875
-0.76959228515625,0.8505859375,0.2747650146484375
-0.7978057861328125,0.9234771728515624,0.18426513671875
-0.7633819580078125,0.9500732421875,0.122528076171875
-0.7798309326171875,1.208160400390625,0.1008148193359375
-0.6803436279296875,1.2586669921875,0.0332794189453125
-0.4824676513671875,0.9400634765625,0.004150390625
-0.4940948486328125,0.80706787109375,0.0741424560546875
-0.4710845947265625,0.9004058837890625,0.085540771484375
-0.286407470703125,0.9931182861328124,-0.044219970703125
-0.2022552490234375,0.8399810791015625,-0.0701141357421875
-0.331207275390625,0.7100067138671875,0.04388427734375
-0.41229248046875,0.748291015625,0.13507080078125
-0.388916015625,0.7894287109375,0.1677703857421875
-0.37896728515625,0.805206298828125,0.20770263671875
-0.418731689453125,0.8339385986328125,0.2022552490234375
-0.4320831298828125,0.9035186767578124,0.2091827392578125
-0.411712646484375,0.960174560546875,0.253509521484375
-0.434661865234375,0.9296112060546876,0.258514404296875
-0.516998291015625,0.970794677734375,0.3176727294921875
-0.465789794921875,1.1348876953125,0.289215087890625
-0.3717803955078125,0.806365966796875,0.1210174560546875
-0.5280609130859375,0.702301025390625,0.1588134765625
-0.587860107421875,0.7625732421875,0.2184906005859375
-0.550140380859375,0.8640899658203125,0.2417755126953125
-0.5478973388671875,0.77935791015625,0.1314697265625
-0.625518798828125,0.7044830322265625,0.0973052978515625
-0.6113128662109375,0.74053955078125,0.13043212890625
-0.540283203125,0.7744598388671875,0.1972808837890625
-0.5531768798828125,0.792388916015625,0.1927032470703125
-0.560333251953125,0.7813873291015625,0.199188232421875
-0.5957489013671875,0.7679901123046875,0.206573486328125
-0.6199493408203125,0.830322265625,0.1797027587890625
-0.5946807861328125,0.8819427490234375,0.100799560546875
-0.6475372314453125,0.9479217529296876,0.100830078125
-0.735687255859375,1.174407958984375,0.0370330810546875
-0.5849761962890625,0.910858154296875,-0.018951416015625
-0.6706390380859375,0.79742431640625,0.0667572021484375
-0.712738037109375,0.92401123046875,0.0167694091796875
-0.601806640625,0.9985198974609376,-0.0344696044921875
-0.521881103515625,0.8748626708984375,-0.1207427978515625
-0.5396728515625,0.81292724609375,-0.1069488525390625
-0.5043792724609375,0.875,-0.055694580078125
-0.4049835205078125,0.868682861328125,0.02545166015625
-0.3123321533203125,0.802398681640625,0.0290374755859375
-0.2812652587890625,0.754913330078125,-0.01776123046875
-0.31878662109375,0.76531982421875,-0.05078125
-0.3731231689453125,0.857452392578125,-0.01629638671875
-0.398712158203125,0.874603271484375,0.0017852783203125
-0.5542449951171875,0.94873046875,0.0841217041015625
-0.5413818359375,1.152374267578125,0.0040435791015625
-0.4795684814453125,0.945404052734375,-0.2334747314453125
-0.642333984375,0.822998046875,-0.140380859375
-0.730438232421875,0.805938720703125,-0.0134735107421875
-0.6992950439453125,0.8538970947265625,0.0952606201171875
-0.6129913330078125,0.7386932373046875,0.0947723388671875
-0.5704803466796875,0.68963623046875,-0.0128173828125
-0.507965087890625,0.72412109375,-0.0631256103515625
-0.445159912109375,0.7126922607421875,-0.0422821044921875
-0.4489288330078125,0.69500732421875,0.0140533447265625
-0.5162200927734375,0.736846923828125,0.03924560546875
-0.6218414306640625,0.8448944091796875,0.0216827392578125
-0.7430877685546875,0.9801483154296876,0.0072784423828125
-0.7734832763671875,0.9873199462890624,-0.0676422119140625
-0.8341217041015625,0.9408721923828124,-0.1166534423828125
-0.814483642578125,0.9989471435546876,-0.0901336669921875
-0.700592041015625,1.0324249267578125,-0.035797119140625
-0.6170196533203125,0.866180419921875,-0.0915069580078125
-0.6679229736328125,0.841583251953125,-0.1304473876953125
-0.60693359375,0.9299468994140624,-0.1138916015625
-0.4848480224609375,0.9232635498046876,-0.1401824951171875
-0.4316864013671875,0.8316497802734375,-0.1640625
-0.4307708740234375,0.7828216552734375,-0.1643829345703125
-0.373382568359375,0.77667236328125,-0.105377197265625
-0.31158447265625,0.74273681640625,-0.0418853759765625
-0.263153076171875,0.707183837890625,0.013580322265625
-0.283538818359375,0.7476348876953125,-0.040313720703125
-0.40985107421875,0.873016357421875,-0.070709228515625
-0.4308929443359375,0.9212188720703124,-0.0300750732421875
-0.533782958984375,0.8992462158203125,-0.059295654296875
-0.7128753662109375,1.0728912353515625,-0.0430755615234375
-0.635040283203125,1.0912628173828125,-0.14971923828125
-0.62274169921875,0.9442901611328124,-0.2473297119140625
-0.7004852294921875,0.7680511474609375,-0.1050567626953125
-0.80963134765625,0.7386016845703125,0.0316925048828125
-0.8460540771484375,0.761383056640625,0.055938720703125
-0.785064697265625,0.661041259765625,-0.0461273193359375
-0.7421417236328125,0.645721435546875,-0.1635894775390625
-0.7013702392578125,0.675811767578125,-0.238250732421875
-0.6105499267578125,0.7311248779296875,-0.189483642578125
-0.572021484375,0.8130340576171875,-0.1358642578125
-0.5926513671875,0.790008544921875,0.0092010498046875
-0.6131439208984375,0.958709716796875,0.07537841796875
-0.569793701171875,1.0748748779296875,-0.0784912109375
-0.5114593505859375,1.0047607421875,-0.155914306640625
-0.6059722900390625,1.01715087890625,-0.077880859375
-0.6667938232421875,1.041229248046875,-0.079620361328125
-0.590972900390625,0.9043731689453124,-0.009674072265625
-0.570526123046875,0.714385986328125,0.06146240234375
-0.5992431640625,0.776519775390625,0.0541839599609375
-0.4941558837890625,0.835693359375,-0.0148468017578125
-0.3729705810546875,0.7478790283203125,-0.051177978515625
-0.402008056640625,0.6857452392578125,-0.0605621337890625
-0.4221649169921875,0.672576904296875,-0.0626220703125
-0.428955078125,0.685821533203125,-0.024993896484375
-0.437896728515625,0.7326202392578125,0.0319671630859375
-0.4643096923828125,0.8113555908203125,0.06085205078125
-0.5701141357421875,0.9390869140625,0.0661468505859375
-0.5922088623046875,1.0560455322265625,0.09661865234375
-0.5868988037109375,1.003997802734375,0.0804595947265625
-0.654937744140625,0.90460205078125,0.0529632568359375
-0.7274169921875,0.975372314453125,0.0358428955078125
-0.6470947265625,0.9580078125,-0.0551300048828125
-0.5102386474609375,0.677032470703125,-0.0146636962890625
-0.6278228759765625,0.681884765625,-0.0291595458984375
-0.701080322265625,0.7690887451171875,-0.0674285888671875
-0.6300506591796875,0.7459716796875,-0.016021728515625
-0.6118316650390625,0.6799774169921875,-0.044708251953125
-0.643798828125,0.7149810791015625,-0.0733642578125
-0.5796661376953125,0.7833709716796875,-0.1177978515625
-0.4769287109375,0.783660888671875,-0.1523590087890625
-0.4405517578125,0.7791748046875,-0.1584014892578125
-0.4780120849609375,0.859588623046875,-0.082427978515625
-0.4754180908203125,0.927032470703125,-0.02532958984375
-0.508056640625,0.9412078857421876,-0.01953125
-0.5999755859375,0.92401123046875,-0.0358428955078125
-0.7333831787109375,1.046661376953125,-0.023895263671875
-0.727325439453125,1.10626220703125,-0.1013641357421875
-0.69000244140625,0.8721466064453125,-0.0797576904296875
-0.7975616455078125,0.830841064453125,0.0099334716796875
-0.73284912109375,0.974578857421875,-0.0694427490234375
-0.582733154296875,1.0377349853515625,-0.148681640625
-0.4731292724609375,0.9001617431640625,-0.201751708984375
-0.476837158203125,0.7524261474609375,-0.1662750244140625
-0.4708251953125,0.7172393798828125,-0.1359710693359375
-0.3914642333984375,0.7440185546875,-0.0672454833984375
-0.3543853759765625,0.781890869140625,-0.025726318359375
-0.294464111328125,0.771453857421875,0.039886474609375
-0.320343017578125,0.7813873291015625,0.0493621826171875
-0.402313232421875,0.8976898193359375,-0.0031585693359375
-0.47235107421875,0.8743896484375,-0.0638580322265625
-0.6701202392578125,0.990936279296875,-0.0046844482421875
-0.6911773681640625,1.10516357421875,0.017791748046875
-0.633697509765625,0.9165802001953124,-0.10791015625
-0.7008514404296875,0.8140106201171875,-0.1533660888671875
-0.758941650390625,0.8273468017578125,-0.115814208984375
-0.7401580810546875,0.84698486328125,0.0014801025390625
-0.6430511474609375,0.77069091796875,0.0588226318359375
-0.5595855712890625,0.706207275390625,0.072418212890625
-0.4959716796875,0.7234039306640625,0.004974365234375
-0.4259185791015625,0.7351226806640625,-0.03936767578125
-0.3831024169921875,0.736724853515625,-0.0695343017578125
-0.411285400390625,0.7489471435546875,-0.084503173828125
-0.5576629638671875,0.8131866455078125,-0.0219879150390625
-0.648468017578125,0.8724212646484375,0.043060302734375
-0.6975555419921875,0.906219482421875,-0.0034332275390625
-0.732147216796875,0.8486480712890625,-0.080413818359375
-0.866943359375,0.8983154296875,-0.091583251953125
-0.858184814453125,1.0910491943359375,-0.158721923828125
-0.6489715576171875,1.0297088623046875,-0.1579742431640625
-0.65997314453125,0.852569580078125,-0.147735595703125
-0.657012939453125,0.9044189453125,-0.156036376953125
-0.578033447265625,1.0266265869140625,-0.138702392578125
-0.4720611572265625,1.0027313232421875,-0.174591064453125
-0.4692535400390625,0.901397705078125,-0.199249267578125
-0.4753570556640625,0.8367462158203125,-0.1504058837890625
-0.3933563232421875,0.80389404296875,-0.0763092041015625
-0.3214874267578125,0.7822723388671875,-0.0135345458984375
-0.2939300537109375,0.76336669921875,-0.0145111083984375
-0.3490753173828125,0.7646636962890625,-0.1512298583984375
-0.45703125,0.71405029296875,-0.122589111328125
-0.5263671875,0.718658447265625,-0.01812744140625
-0.5438232421875,0.804962158203125,-0.009521484375
-0.647491455078125,0.7989654541015625,-0.1205596923828125
-0.88189697265625,0.85394287109375,-0.09759521484375
-0.8584442138671875,0.9206085205078124,0.075439453125
-0.8238677978515625,0.821075439453125,-0.05975341796875
-0.8843841552734375,0.47076416015625,-0.1805419921875
-0.923675537109375,0.4144439697265625,-0.2931976318359375
-0.9547576904296876,0.5158538818359375,-0.2668914794921875
-0.8727264404296875,0.557891845703125,-0.21258544921875
-0.8018951416015625,0.5504150390625,-0.235565185546875
-0.6907958984375,0.5774078369140625,-0.2288970947265625
-0.646636962890625,0.5804595947265625,-0.2393341064453125
-0.7092132568359375,0.6108856201171875,-0.24810791015625
-0.737213134765625,0.5859527587890625,-0.1475677490234375
-0.748809814453125,0.5944976806640625,-0.2339324951171875
-0.80657958984375,0.604644775390625,-0.3060302734375
-0.823028564453125,0.596527099609375,-0.32000732421875
-0.852447509765625,0.644287109375,-0.3043975830078125
-0.8423614501953125,0.7037200927734375,-0.368072509765625
-0.667572021484375,0.5843353271484375,-0.2142791748046875
-0.7347259521484375,0.5858001708984375,-0.345947265625
-0.86553955078125,0.6967315673828125,-0.3103179931640625
-0.9182281494140624,0.7975311279296875,-0.40655517578125
-0.7143096923828125,0.5633544921875,-0.236236572265625
-0.618255615234375,0.426666259765625,-0.0826568603515625
-0.6050872802734375,0.5086822509765625,-0.1303253173828125
-0.55975341796875,0.6215057373046875,-0.1820220947265625
-0.68951416015625,0.6444549560546875,-0.128875732421875
-0.73675537109375,0.65191650390625,-0.0941314697265625
-0.7354278564453125,0.72967529296875,-0.105743408203125
-0.7474212646484375,0.7186126708984375,-0.0952606201171875
-0.7259979248046875,0.784637451171875,-0.104034423828125
-0.754150390625,0.871429443359375,-0.2472991943359375
-0.8017578125,0.8211669921875,-0.253753662109375
-0.7097015380859375,0.8402862548828125,-0.19635009765625
-0.55682373046875,0.8744659423828125,-0.21990966796875
-0.460540771484375,0.88116455078125,-0.2659912109375
-0.3992462158203125,0.91400146484375,-0.2666015625
-0.46881103515625,0.8495330810546875,-0.0571746826171875
-0.5471038818359375,0.8741455078125,0.0501556396484375
-0.5648956298828125,0.9786376953125,-0.18096923828125
-0.555694580078125,1.014923095703125,-0.2526702880859375
-0.54302978515625,0.9772186279296876,-0.12548828125
-0.5527801513671875,0.9419708251953124,0.0224609375
-0.50970458984375,0.952545166015625,0.093841552734375
-0.3988800048828125,1.0006866455078125,0.0583648681640625
-0.318817138671875,0.945098876953125,-0.0596923828125
-0.3618621826171875,0.8690032958984375,-0.0606536865234375
-0.34051513671875,0.8282623291015625,0.1479339599609375
-0.281707763671875,0.9525604248046876,0.209625244140625
-0.2455596923828125,1.0134429931640625,0.0838165283203125
-0.254486083984375,0.9013671875,0.1554718017578125
-0.268890380859375,0.81365966796875,0.3013458251953125
-0.28045654296875,0.785369873046875,0.40081787109375
-0.3202056884765625,0.8143463134765625,0.4143524169921875
-0.3946380615234375,0.900848388671875,0.30352783203125
-0.4334716796875,0.9576873779296876,0.22821044921875
-0.4932098388671875,0.9928741455078124,0.2488250732421875
-0.5790252685546875,0.9836883544921876,0.33221435546875
-0.693389892578125,0.931976318359375,0.395904541015625
-0.77850341796875,0.92230224609375,0.2660064697265625
-0.750091552734375,0.911956787109375,0.15850830078125
-0.75384521484375,0.9263458251953124,0.1253662109375
-0.737091064453125,1.108154296875,0.0572967529296875
-0.6203765869140625,0.984771728515625,0.026947021484375
-0.6136322021484375,0.80230712890625,0.09027099609375
-0.6050567626953125,0.9100494384765624,0.0810699462890625
-0.519378662109375,1.1045989990234375,-0.002288818359375
-0.419921875,1.0508270263671875,-0.1341552734375
-0.4688720703125,0.97991943359375,-0.14715576171875
-0.4420623779296875,0.9450531005859376,-0.042266845703125
-0.382232666015625,0.907470703125,0.0207672119140625
-0.32275390625,0.8707427978515625,0.0386810302734375
-0.3260498046875,0.85247802734375,0.1004486083984375
-0.2609100341796875,0.8900909423828125,0.0944366455078125
-0.29473876953125,0.93536376953125,0.11932373046875
-0.3197479248046875,0.952728271484375,0.2058563232421875
-0.363677978515625,0.852691650390625,0.217987060546875
-0.47613525390625,0.95245361328125,0.2648162841796875
-0.40435791015625,1.07879638671875,0.241180419921875
-0.365509033203125,0.95306396484375,0.164703369140625
-0.61181640625,0.8909759521484375,0.2205657958984375
-0.699554443359375,0.916839599609375,0.2521514892578125
-0.66241455078125,0.862701416015625,0.258819580078125
-0.6072845458984375,0.7007904052734375,0.1981353759765625
-0.566070556640625,0.703216552734375,0.1409759521484375
-0.43865966796875,0.7916107177734375,0.0991973876953125
-0.3632659912109375,0.7842254638671875,0.0943756103515625
-0.3980712890625,0.734100341796875,0.136138916015625
-0.48773193359375,0.8116912841796875,0.2081756591796875
-0.5673980712890625,1.029754638671875,0.192230224609375
-0.6458587646484375,1.005828857421875,0.113677978515625
-0.778411865234375,0.877044677734375,0.1070404052734375
-0.8347625732421875,0.9697723388671876,0.224273681640625
-0.7091827392578125,1.079254150390625,0.2669525146484375
-0.615142822265625,0.93682861328125,0.1153717041015625
-0.648101806640625,0.93463134765625,0.0690765380859375
-0.571533203125,1.0431060791015625,0.124847412109375
-0.42315673828125,1.0182952880859375,0.0803375244140625
-0.423736572265625,0.9212493896484376,0.038421630859375
-0.402679443359375,0.857818603515625,0.089111328125
-0.304107666015625,0.842010498046875,0.170928955078125
-0.25067138671875,0.7685699462890625,0.179473876953125
-0.249786376953125,0.7593841552734375,0.117767333984375
-0.2400665283203125,0.8520660400390625,0.07696533203125
-0.264801025390625,0.9595794677734376,0.08587646484375
-0.3253631591796875,0.9490203857421876,0.0902099609375
-0.5012969970703125,0.975982666015625,0.1822662353515625
-0.4879913330078125,1.108245849609375,0.1537017822265625
-0.4699249267578125,1.0582427978515625,0.0238037109375
-0.4960479736328125,0.8603057861328125,0.08245849609375
-0.5897674560546875,0.842864990234375,0.14141845703125
-0.649658203125,0.9078369140625,0.1153106689453125
-0.6085052490234375,0.8351287841796875,0.0491790771484375
-0.62152099609375,0.776031494140625,-0.0076141357421875
-0.605133056640625,0.6916961669921875,0.138092041015625
-0.5799560546875,0.7113800048828125,0.32672119140625
-0.5468292236328125,0.753692626953125,0.2433929443359375
-0.56634521484375,0.82916259765625,0.1048431396484375
-0.62677001953125,0.944671630859375,0.068328857421875
-0.68536376953125,0.992919921875,0.1175537109375
-0.72393798828125,0.9290008544921876,0.1697235107421875
-0.67059326171875,0.87774658203125,0.220916748046875
-0.6412506103515625,1.0488433837890625,0.22552490234375
-0.61376953125,1.234619140625,0.1825408935546875
-0.4848480224609375,1.0362396240234375,0.1007843017578125
-0.540924072265625,0.9016571044921876,0.1732330322265625
-0.516448974609375,0.9574127197265624,0.195465087890625
-0.42822265625,0.9957275390625,0.1464385986328125
-0.381988525390625,0.8838043212890625,0.05682373046875
-0.36981201171875,0.769012451171875,0.057037353515625
-0.31243896484375,0.726776123046875,0.0839385986328125
-0.229034423828125,0.74462890625,0.1290740966796875
-0.25738525390625,0.7487030029296875,0.149688720703125
-0.382904052734375,0.7144927978515625,0.1084747314453125
-0.4438018798828125,0.7651824951171875,0.0714874267578125
-0.444183349609375,0.8673095703125,0.0572357177734375
-0.499053955078125,0.955322265625,-0.04443359375
-0.602386474609375,0.968841552734375,-0.08709716796875
-0.70538330078125,1.1158599853515625,0.0206756591796875
-0.6425018310546875,1.16705322265625,0.0067901611328125
-0.572418212890625,0.92340087890625,-0.0278778076171875
-0.6007537841796875,0.6698760986328125,0.0815277099609375
-0.621551513671875,0.7191314697265625,0.1576995849609375
-0.53192138671875,0.8669891357421875,0.0794219970703125
-0.432861328125,0.8645172119140625,-0.0840606689453125
-0.486968994140625,0.79034423828125,-0.1101531982421875
-0.5126953125,0.782257080078125,0.0420989990234375
-0.50750732421875,0.7551422119140625,0.136260986328125
-0.531890869140625,0.7645721435546875,0.191314697265625
-0.615997314453125,0.8153076171875,0.203521728515625
-0.6840972900390625,0.917236328125,0.158203125
-0.7299346923828125,1.00830078125,0.1181793212890625
-0.6994171142578125,0.9729766845703124,0.0666961669921875
-0.7089385986328125,1.02069091796875,0.1103973388671875
-0.6672210693359375,1.1484222412109375,0.095947265625
-0.553924560546875,1.0141754150390625,0.0224761962890625
-0.621826171875,0.9768524169921876,0.0538330078125
-0.605804443359375,1.0545196533203125,0.0147705078125
-0.50262451171875,1.0869293212890625,-0.0525054931640625
-0.4343719482421875,0.9833831787109376,-0.1109161376953125
-0.4520111083984375,0.8785858154296875,-0.0895233154296875
-0.4053955078125,0.835418701171875,-0.0559539794921875
-0.2853240966796875,0.77679443359375,0.0313262939453125
-0.1802215576171875,0.7247161865234375,0.041107177734375
-0.1342620849609375,0.7037506103515625,0.0678863525390625
-0.1787567138671875,0.7792205810546875,0.0618438720703125
-0.238189697265625,0.9366912841796876,0.13348388671875
-0.30853271484375,1.00775146484375,0.154205322265625
-0.485687255859375,1.1012725830078125,0.219635009765625
-0.561553955078125,1.1971282958984375,0.2478485107421875
-0.551055908203125,1.149383544921875,0.098907470703125
-0.572540283203125,0.9804229736328124,0.096221923828125
-0.6173248291015625,0.9153289794921876,0.1617279052734375
-0.61962890625,0.92401123046875,0.188140869140625
-0.578369140625,0.831329345703125,0.1028594970703125
-0.562896728515625,0.766632080078125,0.02825927734375
-0.5509796142578125,0.7738189697265625,-0.0246124267578125
-0.48919677734375,0.7750701904296875,0.038055419921875
-0.456268310546875,0.7830047607421875,0.0948944091796875
-0.4345855712890625,0.8444366455078125,0.107330322265625
-0.454742431640625,0.9122314453125,0.1278533935546875
-0.5006103515625,0.9238128662109376,0.1963653564453125
-0.513885498046875,0.9473419189453124,0.2418060302734375
-0.5466156005859375,0.94659423828125,0.1823577880859375
-0.62353515625,1.05865478515625,0.20025634765625
-0.5749969482421875,1.1583709716796875,0.1666259765625
-0.54791259765625,1.03173828125,0.0649871826171875
-0.6224365234375,0.883544921875,0.0810394287109375
-0.6601715087890625,0.9743499755859376,0.104766845703125
-0.581756591796875,1.1516571044921875,0.046722412109375
-0.4895782470703125,1.078826904296875,-0.0853424072265625
-0.5012359619140625,0.961212158203125,-0.096527099609375
-0.4012451171875,0.9297332763671876,-0.0362396240234375
-0.237884521484375,0.8815765380859375,0.0263671875
-0.12322998046875,0.7920379638671875,0.061737060546875
-0.0612335205078125,0.725250244140625,0.0752410888671875
-0.090057373046875,0.7353973388671875,0.00701904296875
-0.2297210693359375,0.824554443359375,0.0830230712890625
-0.3278656005859375,0.96795654296875,0.184051513671875
-0.4217987060546875,1.021759033203125,0.2025146484375
-0.6409149169921875,1.1552886962890625,0.2485809326171875
-0.62261962890625,1.25994873046875,0.1478424072265625
-0.5846710205078125,1.1309051513671875,-0.0072021484375
-0.64453125,0.9055633544921876,0.0971832275390625
-0.7569580078125,0.8602294921875,0.139068603515625
-0.7770843505859375,0.8609619140625,0.1624603271484375
-0.6921234130859375,0.723236083984375,0.0869293212890625
-0.6307373046875,0.7053680419921875,0.03076171875
-0.5112457275390625,0.7843475341796875,0.00213623046875
-0.3649749755859375,0.796142578125,-0.0045318603515625
-0.304534912109375,0.760345458984375,-0.0138702392578125
-0.3792266845703125,0.7665252685546875,0.0484161376953125
-0.5251312255859375,0.8499603271484375,0.1591644287109375
-0.639129638671875,1.005859375,0.1458587646484375
-0.728546142578125,0.9658660888671876,0.10369873046875
-0.815673828125,0.929107666015625,0.17510986328125
-0.7788848876953125,1.1282501220703125,0.20721435546875
-0.6423797607421875,1.090911865234375,0.12548828125
-0.7047882080078125,0.885498046875,0.1466827392578125
-0.7140960693359375,0.905487060546875,0.1919708251953125
-0.582366943359375,1.0417938232421875,0.167694091796875
-0.37017822265625,0.971282958984375,0.0650634765625
-0.3442230224609375,0.806640625,0.0370635986328125
-0.3436737060546875,0.73187255859375,0.0862274169921875
-0.305084228515625,0.739990234375,0.1454010009765625
-0.3119659423828125,0.7475738525390625,0.1666107177734375
-0.3645477294921875,0.7793731689453125,0.099365234375
-0.4212493896484375,0.820770263671875,0.0713958740234375
-0.42657470703125,0.9333648681640624,0.0641326904296875
-0.411285400390625,0.93768310546875,0.010284423828125
-0.5187835693359375,0.985595703125,0.0100250244140625
-0.44891357421875,1.0277099609375,0.0020294189453125
-0.4611053466796875,1.00921630859375,-0.0306396484375
-0.5036468505859375,0.86468505859375,-0.0487213134765625
-0.5992584228515625,0.870635986328125,-0.005279541015625
-0.646942138671875,0.951904296875,-0.0325469970703125
-0.6369781494140625,0.8560333251953125,-0.05865478515625
-0.6322784423828125,0.759429931640625,0.0010223388671875
-0.5703887939453125,0.78790283203125,0.0284423828125
-0.50042724609375,0.7966461181640625,0.02496337890625
-0.488250732421875,0.78857421875,0.036224365234375
-0.5301055908203125,0.8207244873046875,0.094940185546875
-0.6214599609375,0.9404449462890624,0.153778076171875
-0.679473876953125,1.02935791015625,0.14013671875
-0.720733642578125,0.9369049072265624,0.068450927734375
-0.77838134765625,0.86273193359375,0.0322418212890625
-0.816802978515625,0.9859161376953124,0.06427001953125
-0.7071685791015625,1.09967041015625,0.0448455810546875
-0.6167144775390625,0.89923095703125,-0.071563720703125
-0.6891021728515625,0.854278564453125,-0.0364837646484375
-0.6436309814453125,1.010162353515625,0.05169677734375
-0.4973907470703125,1.1032257080078125,-0.01446533203125
-0.39801025390625,0.995025634765625,-0.13525390625
-0.4323883056640625,0.8902130126953125,-0.1533203125
-0.3792266845703125,0.8538055419921875,-0.072479248046875
-0.30340576171875,0.809783935546875,0.009765625
-0.2725372314453125,0.7931060791015625,0.065582275390625
-0.268890380859375,0.7972412109375,0.103729248046875
-0.320648193359375,0.87567138671875,0.137939453125
-0.3582763671875,0.972076416015625,0.1137847900390625
-0.4098663330078125,0.919342041015625,0.0814361572265625
-0.52020263671875,1.0380706787109375,0.190948486328125
-0.4361724853515625,1.080841064453125,0.1008758544921875
-0.4337921142578125,0.90924072265625,0.001708984375
-0.6008758544921875,0.846923828125,0.095794677734375
-0.699981689453125,0.903594970703125,0.1201934814453125
-0.650482177734375,0.906341552734375,0.073516845703125
-0.58123779296875,0.79302978515625,-0.0250244140625
-0.5872650146484375,0.7667236328125,-0.0789337158203125
-0.5370330810546875,0.799835205078125,-0.0367889404296875
-0.4598388671875,0.805755615234375,0.040802001953125
-0.48779296875,0.792205810546875,0.0590667724609375
-0.53973388671875,0.815887451171875,0.073089599609375
-0.6006317138671875,0.8957672119140625,0.0839691162109375
-0.6340789794921875,0.97979736328125,0.1059417724609375
-0.64520263671875,0.9455108642578124,0.07952880859375
-0.7251434326171875,0.93035888671875,0.11309814453125
-0.7161102294921875,1.0543670654296875,0.1404266357421875
-0.6476898193359375,1.068450927734375,0.055267333984375
-0.620330810546875,0.911468505859375,-0.0540618896484375
-0.6766204833984375,0.9421234130859376,-0.01702880859375
-0.6082611083984375,1.0417938232421875,0.03369140625
-0.525146484375,1.0763092041015625,-0.0037994384765625
-0.4799346923828125,0.999969482421875,-0.0850372314453125
-0.4759674072265625,0.9281463623046876,-0.06488037109375
-0.378326416015625,0.8975830078125,0.0070953369140625
-0.2736663818359375,0.8275604248046875,0.0356292724609375
-0.225860595703125,0.764434814453125,0.03033447265625
-0.215789794921875,0.7331695556640625,0.038360595703125
-0.2307891845703125,0.73602294921875,0.0786895751953125
-0.2601776123046875,0.7921905517578125,0.1021728515625
-0.3108673095703125,0.8809356689453125,0.06109619140625
-0.421173095703125,0.9407958984375,0.0904693603515625
-0.5600128173828125,1.181304931640625,0.2173004150390625
-0.5305328369140625,1.2352447509765625,0.132171630859375
-0.6035614013671875,1.1052398681640625,-0.0109405517578125
-0.6923065185546875,0.88873291015625,0.0553131103515625
-0.7630767822265625,0.834503173828125,0.20111083984375
-0.8082275390625,0.886627197265625,0.2186431884765625
-0.7487335205078125,0.8711090087890625,0.066864013671875
-0.705535888671875,0.83966064453125,-0.047515869140625
-0.5899505615234375,0.846435546875,-0.1481170654296875
-0.6249847412109375,0.7907562255859375,-0.0003204345703125
-0.6816864013671875,0.76153564453125,0.149749755859375
-0.6868133544921875,0.8199462890625,-0.026092529296875
-0.62359619140625,0.799713134765625,-0.46551513671875
-0.71356201171875,0.7268829345703125,-0.096221923828125
-0.774169921875,0.70318603515625,0.0980377197265625
-0.7231903076171875,0.7570343017578125,-0.040283203125
-0.7072906494140625,0.710662841796875,-0.1462860107421875
-0.6449737548828125,0.7149200439453125,-0.0924835205078125
-0.7310333251953125,0.96142578125,-0.149810791015625
-0.621429443359375,0.92279052734375,-0.2285614013671875
-0.560272216796875,0.750335693359375,-0.1410369873046875
-0.5010833740234375,0.6264801025390625,0.04144287109375
-0.522979736328125,0.6636962890625,-0.1164703369140625
-0.5675811767578125,0.7045440673828125,-0.229583740234375
-0.5576629638671875,0.778564453125,-0.315582275390625
-0.601470947265625,0.7891387939453125,-0.35150146484375
-0.5940093994140625,0.7723541259765625,-0.273345947265625
-0.5795745849609375,0.8144073486328125,-0.28289794921875
-0.6256561279296875,0.8499755859375,-0.2991790771484375
-0.7116546630859375,0.832244873046875,-0.241058349609375
-0.698699951171875,0.787017822265625,-0.0910186767578125
-0.761077880859375,0.7598876953125,-0.026458740234375
-0.838470458984375,0.7602996826171875,-0.043670654296875
-0.8031768798828125,0.8207244873046875,-0.135833740234375
-0.7297821044921875,0.851165771484375,-0.09210205078125
-0.7460479736328125,0.8974609375,-0.1189117431640625
-0.7469329833984375,0.9371337890625,-0.1982421875
-0.6922454833984375,0.9301605224609376,-0.1448516845703125
-0.653228759765625,0.951019287109375,-0.0813446044921875
-0.6440582275390625,0.967926025390625,0.0206451416015625
-0.58892822265625,0.93023681640625,-0.0338897705078125
-0.545684814453125,0.805877685546875,-0.0492706298828125
-0.469482421875,0.75128173828125,0.01422119140625
-0.3065948486328125,0.8424530029296875,0.1275634765625
-0.1207275390625,0.853790283203125,0.2723846435546875
-0.2306365966796875,0.80999755859375,0.1418304443359375
-0.3240203857421875,0.788360595703125,0.144927978515625
-0.3477783203125,0.8485107421875,0.3092193603515625
-0.432098388671875,0.8917388916015625,0.3534088134765625
-0.523468017578125,0.9243927001953124,0.283905029296875
-0.587005615234375,0.9271392822265624,0.2424774169921875
-0.6180877685546875,0.9342498779296876,0.2212677001953125
-0.64453125,0.944122314453125,0.1907958984375
-0.6818389892578125,0.91583251953125,0.2084197998046875
-0.7248687744140625,0.8537445068359375,0.2435150146484375
-0.76123046875,0.8421478271484375,0.2062225341796875
-0.7560577392578125,0.82550048828125,0.119964599609375
-0.7021484375,0.822052001953125,-0.017303466796875
-0.7082672119140625,0.934661865234375,-0.075653076171875
-0.669189453125,1.025177001953125,-0.0314483642578125
-0.6414031982421875,0.8643341064453125,0.037017822265625
-0.7566680908203125,0.8606719970703125,0.0387115478515625
-0.744720458984375,1.0061798095703125,-0.0256500244140625
-0.6646270751953125,1.101165771484375,-0.1396331787109375
-0.5856781005859375,1.0562591552734375,-0.193756103515625
-0.4890594482421875,1.0291290283203125,-0.219879150390625
-0.3931427001953125,0.9392547607421876,-0.1356964111328125
-0.3246307373046875,0.852294921875,-0.061859130859375
-0.2816619873046875,0.7784271240234375,-0.00341796875
-0.2747955322265625,0.8026275634765625,-0.038330078125
-0.2497711181640625,0.842620849609375,-0.028961181640625
-0.300506591796875,0.8910675048828125,0.012664794921875
-0.3420867919921875,0.9188385009765624,0.0284881591796875
-0.4257049560546875,0.9931488037109376,0.0243682861328125
-0.4766387939453125,1.050506591796875,0.0317535400390625
-0.5182647705078125,1.086181640625,0.021575927734375
-0.5777587890625,0.9604644775390624,0.03179931640625
-0.6803131103515625,0.8758544921875,0.076019287109375
-0.7315521240234375,0.87249755859375,0.07025146484375
-0.6278228759765625,0.8242340087890625,0.0409698486328125
-0.54254150390625,0.741729736328125,0.052001953125
-0.5304107666015625,0.711273193359375,0.067047119140625
-0.5086212158203125,0.725006103515625,0.0509796142578125
-0.5064544677734375,0.7434234619140625,0.054718017578125
-0.555755615234375,0.7798004150390625,0.0638885498046875
-0.65704345703125,0.8755340576171875,0.05279541015625
-0.72711181640625,0.954315185546875,0.01318359375
-0.7541961669921875,0.9148406982421876,-0.0115966796875
-0.76190185546875,0.9147796630859376,0.003387451171875
-0.71490478515625,1.038116455078125,0.008087158203125
-0.606109619140625,1.0605010986328125,-0.0324554443359375
-0.61651611328125,0.93865966796875,-0.0477294921875
-0.652435302734375,0.9610748291015624,-0.05145263671875
-0.601348876953125,1.026153564453125,-0.085052490234375
-0.4618988037109375,0.9328460693359376,-0.109039306640625
-0.4508514404296875,0.8192138671875,-0.0577545166015625
-0.4459075927734375,0.784912109375,-0.0228729248046875
-0.36627197265625,0.7504425048828125,0.0466156005859375
-0.2947998046875,0.728363037109375,0.037628173828125
-0.263519287109375,0.740753173828125,-0.0136260986328125
-0.3101959228515625,0.8114166259765625,-0.0216064453125
-0.39862060546875,0.9243927001953124,-0.0410308837890625
-0.4656829833984375,1.004791259765625,-0.0702667236328125
-0.5414276123046875,0.9817352294921876,-0.038848876953125
-0.6241607666015625,1.015350341796875,0.0184326171875
-0.6134033203125,1.063446044921875,0.0257110595703125
-0.5622406005859375,0.85260009765625,0.0744171142578125
-0.619598388671875,0.8047637939453125,0.0836334228515625
-0.714080810546875,0.8491973876953125,-0.0067291259765625
-0.7210845947265625,0.8172454833984375,-0.0449981689453125
-0.69415283203125,0.7494659423828125,-0.031982421875
-0.622161865234375,0.7745513916015625,-0.0538330078125
-0.5549163818359375,0.80364990234375,-0.0755157470703125
-0.5140380859375,0.7883758544921875,-0.065155029296875
-0.52362060546875,0.76739501953125,-0.054351806640625
-0.5747528076171875,0.7882232666015625,-0.0476226806640625
-0.6052703857421875,0.8097076416015625,-0.0425262451171875
-0.6308135986328125,0.8336944580078125,-0.0658111572265625
-0.621795654296875,0.83392333984375,-0.0663299560546875
-0.7216949462890625,0.961456298828125,-0.0429534912109375
-0.704833984375,1.1111602783203125,-0.0988616943359375
-0.5868072509765625,1.0740814208984375,-0.0965728759765625
-0.5460662841796875,0.9300079345703124,-0.14239501953125
-0.5774993896484375,0.8914031982421875,-0.2109527587890625
-0.5322265625,0.87677001953125,-0.1030731201171875
-0.5006256103515625,0.7709808349609375,-0.0163421630859375
-0.542938232421875,0.7043609619140625,-0.0917205810546875
-0.518402099609375,0.735809326171875,-0.1191253662109375
-0.4159698486328125,0.7960968017578125,-0.1122589111328125
-0.3406982421875,0.8299102783203125,-0.113922119140625
-0.326904296875,0.8361663818359375,-0.160064697265625
-0.3820343017578125,0.8743133544921875,-0.1303863525390625
-0.4362945556640625,0.9803924560546876,-0.0919952392578125
-0.4112091064453125,1.021514892578125,-0.0848388671875
-0.530609130859375,1.085601806640625,-0.0478515625
-0.4673309326171875,1.124603271484375,-0.0475921630859375
-0.4100189208984375,0.9471893310546876,-0.1466522216796875
-0.5253753662109375,0.8407440185546875,-0.0339202880859375
-0.6681671142578125,0.8678436279296875,0.1310882568359375
-0.73297119140625,0.877105712890625,0.12811279296875
-0.66595458984375,0.8012237548828125,-0.011871337890625
-0.5994110107421875,0.71929931640625,-0.04718017578125
-0.5206756591796875,0.7190399169921875,-0.0388031005859375
-0.4134368896484375,0.756591796875,0.025604248046875
-0.379241943359375,0.76165771484375,0.022125244140625
-0.3928375244140625,0.7700347900390625,-0.05072021484375
-0.49530029296875,0.8283843994140625,-0.053924560546875
-0.6351165771484375,0.9676513671875,-0.014923095703125
-0.691986083984375,1.0138092041015625,-0.0303192138671875
-0.7086944580078125,0.9357757568359376,-0.060150146484375
-0.7856597900390625,1.0655364990234375,-0.033905029296875
-0.7039794921875,1.163177490234375,-0.008209228515625
-0.5927886962890625,0.96429443359375,-0.0393829345703125
-0.649383544921875,0.85400390625,-0.021881103515625
-0.6443634033203125,0.9732208251953124,-0.0045623779296875
-0.5273284912109375,1.075347900390625,-0.0292205810546875
-0.4251708984375,0.9683380126953124,-0.1166534423828125
-0.41961669921875,0.8413543701171875,-0.155059814453125
-0.35113525390625,0.7945098876953125,-0.06927490234375
-0.261871337890625,0.7638702392578125,-0.028472900390625
-0.2144317626953125,0.70550537109375,-0.0165252685546875
-0.2067718505859375,0.6989898681640625,-0.0155487060546875
-0.2683258056640625,0.782073974609375,-0.0296173095703125
-0.3636016845703125,0.899871826171875,-0.056884765625
-0.4512786865234375,0.9540863037109376,-0.0787353515625
-0.637481689453125,1.167083740234375,-0.0888214111328125
-0.5830535888671875,1.17742919921875,-0.260589599609375
-0.615966796875,1.0061798095703125,-0.345489501953125
-0.685577392578125,0.800384521484375,-0.1993408203125
-0.7695770263671875,0.8020172119140625,-0.045074462890625
-0.705169677734375,0.8540802001953125,0.078399658203125
-0.52862548828125,0.7870330810546875,0.0775909423828125
-0.4464111328125,0.76202392578125,-0.0676422119140625
-0.4043731689453125,0.797271728515625,-0.159698486328125
-0.3997802734375,0.794189453125,-0.1105499267578125
-0.4316864013671875,0.738494873046875,-0.0087432861328125
-0.523345947265625,0.7566375732421875,0.028045654296875
-0.6015777587890625,0.8616790771484375,0.004150390625
-0.6680755615234375,0.94384765625,-0.056732177734375
-0.68994140625,0.8637847900390625,-0.0785675048828125
-0.7626953125,0.91241455078125,-0.080322265625
-0.754791259765625,1.1389617919921875,-0.0874481201171875
-0.579833984375,0.97674560546875,-0.0903472900390625
-0.64154052734375,0.796905517578125,-0.0845794677734375
-0.687042236328125,0.8588714599609375,0.0040435791015625
-0.65435791015625,1.1037750244140625,0.082305908203125
-0.5552520751953125,1.16888427734375,-0.070404052734375
-0.5431365966796875,1.0376434326171875,-0.2157440185546875
-0.4958648681640625,0.9055328369140624,-0.16943359375
-0.401824951171875,0.820343017578125,-0.016876220703125
-0.30267333984375,0.7565460205078125,0.02838134765625
-0.240386962890625,0.7270965576171875,0.0482025146484375
-0.1957550048828125,0.7289581298828125,0.019775390625
-0.227569580078125,0.74041748046875,-0.0797119140625
-0.3263397216796875,0.85009765625,-0.1242828369140625
-0.4317474365234375,1.0605621337890625,-0.1994781494140625
-0.52276611328125,1.1051483154296875,-0.297393798828125
-0.696441650390625,1.207763671875,-0.265777587890625
-0.6762542724609375,1.1898651123046875,-0.2653961181640625
-0.60137939453125,0.9789276123046876,-0.2077484130859375
-0.6806640625,0.832855224609375,-0.124481201171875
-0.7763671875,0.845062255859375,-0.10888671875
-0.7982635498046875,0.8250274658203125,-0.111846923828125
-0.7286376953125,0.7259063720703125,-0.157196044921875
-0.654876708984375,0.6617431640625,-0.1475067138671875
-0.56170654296875,0.680328369140625,-0.0465087890625
-0.49462890625,0.7579803466796875,0.0033111572265625
-0.4117584228515625,0.77008056640625,0.0090179443359375
-0.506134033203125,0.7671051025390625,-0.0492706298828125
-0.6800994873046875,0.8989105224609375,-0.069122314453125
-0.760284423828125,1.01727294921875,-0.0510406494140625
-0.720062255859375,1.0232391357421875,-0.1160430908203125
-0.6718597412109375,1.0688629150390625,-0.10882568359375
-0.5858154296875,1.1476287841796875,-0.052703857421875
-0.5007171630859375,1.0855255126953125,-0.0757293701171875
-0.501251220703125,0.8474578857421875,-0.171295166015625
-0.673828125,0.8178253173828125,-0.137420654296875
-0.65887451171875,0.89630126953125,-0.0050506591796875
-0.5062103271484375,0.927337646484375,-0.045379638671875
-0.4547576904296875,0.8245086669921875,-0.1558380126953125
-0.4520263671875,0.7322540283203125,-0.18511962890625
-0.384002685546875,0.7192230224609375,-0.1036224365234375
-0.3000640869140625,0.7235565185546875,-0.0459136962890625
-0.25970458984375,0.6973876953125,-0.0313720703125
-0.315399169921875,0.7291259765625,-0.026397705078125
-0.3814849853515625,0.8577880859375,0.006591796875
-0.4120025634765625,0.9911346435546876,0.015777587890625
-0.4962615966796875,1.056304931640625,-0.0152130126953125
-0.6317596435546875,1.24005126953125,-0.0594024658203125
-0.6616668701171875,1.292266845703125,-0.1943359375
-0.6594696044921875,1.026824951171875,-0.2365570068359375
-0.775482177734375,0.8243255615234375,-0.0900115966796875
-0.8247528076171875,0.7957305908203125,0.05029296875
-0.7659912109375,0.7871551513671875,0.019561767578125
-0.648529052734375,0.7152252197265625,-0.108489990234375
-0.560089111328125,0.7196044921875,-0.1737823486328125
-0.4889373779296875,0.77001953125,-0.16046142578125
-0.4531707763671875,0.7908477783203125,-0.091888427734375
-0.4434356689453125,0.7881622314453125,-0.0264739990234375
-0.4982147216796875,0.8237762451171875,-0.063690185546875
-0.5808868408203125,0.864959716796875,-0.09381103515625
-0.637420654296875,0.9452667236328124,-0.09326171875
-0.628692626953125,0.9666290283203124,-0.103790283203125
-0.6749267578125,1.070953369140625,-0.09686279296875
-0.6445465087890625,1.174560546875,-0.1624908447265625
-0.53607177734375,1.088714599609375,-0.2110595703125
-0.519927978515625,0.8482818603515625,-0.1602020263671875
-0.6029815673828125,0.8481903076171875,-0.064544677734375
-0.542633056640625,0.9658203125,-0.1089324951171875
-0.406890869140625,0.93798828125,-0.2428131103515625
-0.3847198486328125,0.81451416015625,-0.2680511474609375
-0.41064453125,0.7540283203125,-0.210968017578125
-0.376617431640625,0.742034912109375,-0.155242919921875
-0.342071533203125,0.7395782470703125,-0.12652587890625
-0.349761962890625,0.7936553955078125,-0.0608673095703125
-0.3595123291015625,0.870758056640625,0.0001983642578125
-0.38134765625,0.8925628662109375,-0.0001678466796875
-0.4320526123046875,0.8885498046875,0.0482177734375
-0.5121307373046875,1.02734375,0.098907470703125
-0.491851806640625,1.2141876220703125,0.0415191650390625
-0.5127716064453125,1.0167083740234375,-0.0565338134765625
-0.5689697265625,0.80755615234375,0.0492706298828125
-0.629730224609375,0.8016204833984375,0.1949310302734375
-0.68670654296875,0.910247802734375,0.190032958984375
-0.7334136962890625,0.915802001953125,0.0153045654296875
-0.7446136474609375,0.81195068359375,-0.1319580078125
-0.7166900634765625,0.7833404541015625,-0.18939208984375
-0.5706939697265625,0.7826080322265625,-0.1403350830078125
-0.4740753173828125,0.7818450927734375,-0.0755767822265625
-0.438018798828125,0.798828125,-0.0577392578125
-0.472869873046875,0.8168792724609375,-0.047607421875
-0.5644378662109375,0.8400115966796875,-0.05328369140625
-0.6376953125,0.8645477294921875,-0.050140380859375
-0.659088134765625,0.9073486328125,-0.072784423828125
-0.649627685546875,0.960418701171875,-0.1024322509765625
-0.637908935546875,1.038177490234375,-0.1647491455078125
-0.63787841796875,1.1631317138671875,-0.2046661376953125
-0.57122802734375,1.209442138671875,-0.2653350830078125
-0.418487548828125,0.985595703125,-0.2742767333984375
-0.4304656982421875,0.747039794921875,-0.1619415283203125
-0.426910400390625,0.834014892578125,-0.0470428466796875
-0.228057861328125,0.9785614013671876,-0.0867919921875
-0.014312744140625,0.913116455078125,-0.1936798095703125
-0.1752471923828125,0.8322601318359375,-0.25531005859375
-0.2521209716796875,0.828369140625,-0.1588897705078125
-0.2554473876953125,0.871002197265625,-0.110595703125
-0.2572021484375,0.831329345703125,0.009490966796875
-0.3301849365234375,0.839019775390625,0.0441131591796875
-0.3664093017578125,0.85076904296875,-0.0753326416015625
-0.382293701171875,0.7303924560546875,-0.05035400390625
-0.38287353515625,0.632171630859375,0.0277557373046875
-0.3728485107421875,0.6514739990234375,0.0181732177734375
-0.347076416015625,0.6892547607421875,-0.0505828857421875
-0.4519195556640625,0.7256927490234375,-0.0217437744140625
-0.7734375,1.1816864013671875,0.03631591796875
-0.8123016357421875,1.5795440673828125,-0.045196533203125
-1.2144622802734375,1.908477783203125,-0.0399017333984375
-1.129364013671875,1.243133544921875,-0.233001708984375
-0.844512939453125,0.891021728515625,0.2654266357421875
-0.537109375,0.8323974609375,0.4074249267578125
-0.39617919921875,0.822357177734375,0.2074127197265625
-0.2892608642578125,0.796844482421875,0.0764617919921875
-0.2334136962890625,0.7158050537109375,0.0038604736328125
-0.1677703857421875,0.61712646484375,0.0006561279296875
-0.1371002197265625,0.6124725341796875,-0.02032470703125
-0.0653076171875,0.5400543212890625,-0.0151824951171875
-0.062103271484375,0.5396881103515625,0.0778961181640625
-0.178009033203125,0.7607269287109375,0.0352020263671875
-0.3739776611328125,1.35894775390625,-0.0778961181640625
-0.42620849609375,1.7874603271484375,-0.2293701171875
-0.66412353515625,1.97552490234375,-0.24688720703125
-0.7205657958984375,1.61328125,-0.27557373046875
-0.748138427734375,1.2151641845703125,-0.197418212890625
-0.6182098388671875,0.8754425048828125,0.02838134765625
-0.5056304931640625,0.6768646240234375,0.1422882080078125
-0.4523468017578125,0.566192626953125,0.234527587890625
-0.4398651123046875,0.541168212890625,0.2416229248046875
-0.4162139892578125,0.56341552734375,0.18634033203125
-0.428466796875,0.5792999267578125,0.0061492919921875
-0.50714111328125,0.5841522216796875,-0.1073150634765625
-0.57958984375,0.590606689453125,-0.166595458984375
-0.7725830078125,0.9396514892578124,-0.06512451171875
-0.74517822265625,1.59161376953125,-1.52587890625e-05
-0.87890625,1.728118896484375,-0.0961761474609375
-1.0054168701171875,1.89471435546875,-0.275360107421875
-0.735076904296875,1.1656341552734375,-0.075347900390625
-0.550262451171875,0.810791015625,0.4580230712890625
-0.46392822265625,0.704010009765625,0.4400482177734375
-0.35479736328125,0.70379638671875,0.173095703125
-0.2036895751953125,0.6782989501953125,-0.004486083984375
-0.1694793701171875,0.6532135009765625,-0.0429534912109375
-0.08203125,0.5728759765625,-0.020477294921875
-0.0178070068359375,0.4549407958984375,-0.0023651123046875
-0.020294189453125,0.484771728515625,-0.10101318359375
-0.1073760986328125,0.6784210205078125,-0.0717620849609375
-0.2274169921875,1.1533355712890625,0.0333404541015625
-0.251495361328125,1.56903076171875,-0.00079345703125
-0.48583984375,2.0253143310546875,-0.124755859375
-0.6065826416015625,2.121124267578125,-0.1810455322265625
-0.8292999267578125,1.634857177734375,-0.1468353271484375
-0.8750152587890625,1.1019744873046875,-0.0695648193359375
-0.76153564453125,0.7621612548828125,0.0664825439453125
-0.606201171875,0.601409912109375,0.1760101318359375
-0.4499664306640625,0.456268310546875,0.321533203125
-0.3866424560546875,0.421844482421875,0.2568359375
-0.4314117431640625,0.4717864990234375,-0.0086822509765625
-0.58734130859375,0.5917205810546875,-0.2493896484375
-1.0224761962890625,1.1602630615234375,-0.213714599609375
-1.165008544921875,1.4717559814453125,-0.19537353515625
-1.36639404296875,1.8599853515625,-0.039093017578125
-1.02301025390625,2.0103759765625,0.083984375
-0.5817413330078125,1.7567291259765625,0.286285400390625
-0.3907623291015625,1.486968994140625,0.1165313720703125
0.0777435302734375,1.1263275146484375,0.1559295654296875
0.552978515625,0.883880615234375,0.1697540283203125
0.447723388671875,0.6929473876953125,-0.0608673095703125
0.149383544921875,0.6248779296875,-0.076446533203125
0.0233154296875,0.5716705322265625,0.0327301025390625
0.01654052734375,0.62933349609375,0.043792724609375
-0.0243072509765625,0.804534912109375,-0.0027923583984375
-0.1621856689453125,1.1360321044921875,-0.0179595947265625
-0.243438720703125,1.49468994140625,-0.0505828857421875
-0.429656982421875,1.7530975341796875,-0.078338623046875
-0.656005859375,2.210556030273437,-0.010345458984375
-0.6651611328125,1.87115478515625,-0.12420654296875
-0.808502197265625,1.31610107421875,-0.2034759521484375
-0.8080902099609375,0.949615478515625,-0.0506439208984375
-0.6577606201171875,0.7990875244140625,0.188629150390625
-0.526824951171875,0.6677093505859375,0.356170654296875
-0.4741973876953125,0.52691650390625,0.250244140625
-0.50445556640625,0.5447235107421875,0.144317626953125
-0.5204620361328125,0.677459716796875,-0.002777099609375
-0.4847564697265625,0.74041748046875,-0.1808929443359375
-0.4488525390625,0.687530517578125,-0.3464202880859375
-0.660125732421875,0.882476806640625,-0.25830078125
-0.7262115478515625,1.4584808349609375,-0.03216552734375
-0.4672698974609375,1.7202911376953125,0.02984619140625
-0.7208099365234375,1.756317138671875,-0.184906005859375
-0.67840576171875,1.3445892333984375,-0.048065185546875
-0.5035400390625,1.1218414306640625,0.47564697265625
-0.3236083984375,0.9804840087890624,0.322265625
-0.175750732421875,0.8150634765625,0.1141357421875
-0.0911865234375,0.6999053955078125,0.030975341796875
-0.049835205078125,0.6267242431640625,0.0114593505859375
-0.0633087158203125,0.614959716796875,-0.0151519775390625
-0.122955322265625,0.6157073974609375,-0.04901123046875
-0.2148284912109375,0.6667022705078125,0.047576904296875
-0.3141632080078125,0.73577880859375,0.1314239501953125
-0.4239044189453125,0.787689208984375,0.21600341796875
-0.5674896240234375,0.850738525390625,0.1581268310546875
-0.75762939453125,0.926666259765625,0.0681610107421875
-0.857025146484375,1.0595703125,-0.009918212890625
-0.830474853515625,1.1819305419921875,-0.05609130859375
-0.81915283203125,1.358489990234375,-0.0536651611328125
-0.6367645263671875,1.06866455078125,-0.1370697021484375
-0.6752471923828125,0.6577606201171875,-0.0986785888671875
-0.6697540283203125,0.50152587890625,-0.1249237060546875
-0.4743194580078125,0.57452392578125,-0.081939697265625
-0.2354278564453125,0.5670166015625,0.0369873046875
-0.265594482421875,0.4803314208984375,-0.0301666259765625
-0.3538360595703125,0.4893798828125,-0.0793304443359375
-0.5163421630859375,0.5358123779296875,-0.1185302734375
-0.675079345703125,0.5971527099609375,-0.1087493896484375
-0.685943603515625,0.687255859375,-0.07379150390625
-0.8121490478515625,0.7173919677734375,-0.0543365478515625
-1.0263824462890625,0.79425048828125,-0.066986083984375
-1.127471923828125,0.8531494140625,-0.126434326171875
-1.0242156982421875,0.892730712890625,-0.1501312255859375
-0.9561004638671876,0.85992431640625,-0.1963958740234375
-0.936859130859375,0.8284759521484375,-0.2932281494140625
-0.9153594970703124,0.739044189453125,-0.3357696533203125
-0.9022369384765624,0.7280426025390625,-0.3857879638671875
-0.8897552490234375,0.7206573486328125,-0.5906829833984375
-0.9912261962890624,0.71783447265625,-0.78033447265625
-0.8694610595703125,0.753173828125,-0.8715362548828125
-0.6822662353515625,0.6772918701171875,-1.090087890625
-0.5472259521484375,0.590179443359375,-1.02105712890625
-0.3650970458984375,0.506988525390625,-0.923309326171875
-0.2047882080078125,0.471527099609375,-1.0045166015625
-0.244873046875,0.3998260498046875,-1.092620849609375
-0.2136383056640625,0.29315185546875,-0.864105224609375
-0.12451171875,0.119842529296875,-0.731597900390625
-0.0744781494140625,-0.052276611328125,-0.72796630859375
-0.0210418701171875,-0.124267578125,-0.7919769287109375
-0.1168365478515625,-0.1689300537109375,-0.849517822265625
-0.046234130859375,-0.2259521484375,-1.0015869140625
-0.07269287109375,-0.260589599609375,-0.8246917724609375
-0.000732421875,-0.257904052734375,-0.7523193359375
0.0595703125,-0.2686309814453125,-0.789276123046875
0.1332244873046875,-0.29833984375,-0.8270416259765625
0.13897705078125,-0.314453125,-0.8294677734375
0.1075439453125,-0.344970703125,-0.8856353759765625
0.12664794921875,-0.3396453857421875,-0.9139251708984376
0.078216552734375,-0.3541412353515625,-0.8788299560546875
0.1435089111328125,-0.3703460693359375,-0.9935760498046876
0.1081085205078125,-0.36236572265625,-0.9087371826171876
0.1009674072265625,-0.3555908203125,-0.914398193359375
