AccelerationX,AccelerationY,AccelerationZ
-0.3240203857421875,0.7087860107421875,-0.584442138671875
-0.37591552734375,0.7008819580078125,-0.590545654296875
-0.369964599609375,0.735931396484375,-0.6711883544921875
-0.37841796875,0.68365478515625,-0.5217742919921875
-0.3662567138671875,0.6940765380859375,-0.5645294189453125
-0.3297119140625,0.71282958984375,-0.603240966796875
-0.314697265625,0.7245025634765625,-0.6503753662109375
-0.3670196533203125,0.718841552734375,-0.578460693359375
-0.363037109375,0.713592529296875,-0.593963623046875
-0.3697357177734375,0.679779052734375,-0.6128692626953125
-0.385833740234375,0.704437255859375,-0.5941619873046875
-0.365753173828125,0.7223663330078125,-0.4925689697265625
-0.4214324951171875,0.7450103759765625,-0.5401763916015625
-0.478118896484375,0.6772613525390625,-0.5947723388671875
-0.4550323486328125,0.7006072998046875,-0.5748443603515625
-0.44354248046875,0.6716766357421875,-0.571136474609375
-0.448577880859375,0.67303466796875,-0.5361480712890625
-0.41949462890625,0.6777496337890625,-0.5524444580078125
-0.4708099365234375,0.7140045166015625,-0.5649261474609375
-0.4883880615234375,0.7218017578125,-0.5843658447265625
-0.411590576171875,0.664886474609375,-0.53167724609375
-0.4127044677734375,0.660247802734375,-0.5651092529296875
-0.4450531005859375,0.7059478759765625,-0.59521484375
-0.473968505859375,0.6874847412109375,-0.543060302734375
-0.494354248046875,0.647186279296875,-0.5357666015625
-0.511077880859375,0.6642303466796875,-0.54974365234375
-0.5417327880859375,0.6683349609375,-0.51617431640625
-0.580535888671875,0.640533447265625,-0.482177734375
-0.585479736328125,0.65875244140625,-0.5097808837890625
-0.5807342529296875,0.6614532470703125,-0.495880126953125
-0.6316986083984375,0.630401611328125,-0.427825927734375
-0.608306884765625,0.62957763671875,-0.4135894775390625
-0.65338134765625,0.5954742431640625,-0.498931884765625
-0.6190643310546875,0.6459808349609375,-0.4217987060546875
-0.630584716796875,0.63043212890625,-0.3838043212890625
-0.6114501953125,0.639068603515625,-0.4434356689453125
-0.5765228271484375,0.6540679931640625,-0.46234130859375
-0.590362548828125,0.6464080810546875,-0.4574737548828125
-0.624847412109375,0.6448822021484375,-0.3328857421875
-0.58489990234375,0.733306884765625,-0.334808349609375
-0.5452117919921875,0.712432861328125,-0.2433013916015625
-0.5969390869140625,0.741607666015625,-0.2391204833984375
-0.5318756103515625,0.67999267578125,-0.315338134765625
-0.7324676513671875,0.9689178466796876,-0.432647705078125
-0.5300445556640625,0.71435546875,-0.2532806396484375
-0.7120819091796875,0.6140899658203125,-0.247222900390625
-0.72247314453125,0.5484161376953125,-0.24114990234375
-0.6972198486328125,0.6172027587890625,-0.2294769287109375
-0.73089599609375,0.6116485595703125,-0.24700927734375
-0.799468994140625,0.57611083984375,-0.2058868408203125
-0.8599853515625,0.6342010498046875,-0.2797393798828125
-0.9154510498046876,0.6731109619140625,-0.2091217041015625
-0.899078369140625,0.6620941162109375,-0.1121826171875
-0.86114501953125,0.6928558349609375,-0.0977630615234375
-0.820587158203125,0.6924896240234375,-0.081146240234375
-0.7977752685546875,0.7382965087890625,-0.0783538818359375
-0.792266845703125,0.85546875,-0.070465087890625
-0.778076171875,0.910797119140625,-0.2430877685546875
-0.5265350341796875,0.7584686279296875,-0.2838134765625
-0.3561553955078125,0.7772216796875,-0.140899658203125
-0.4000091552734375,0.823333740234375,-0.0220184326171875
-0.57489013671875,0.834747314453125,-0.1125335693359375
-0.5470123291015625,0.78021240234375,-0.1280517578125
-0.547149658203125,0.7115020751953125,-0.0737457275390625
-0.57684326171875,0.6875,-0.0724029541015625
-0.5771331787109375,0.693572998046875,-0.1244964599609375
-0.449005126953125,0.7245635986328125,-0.02630615234375
-0.4889373779296875,0.7844085693359375,0.066619873046875
-0.6323699951171875,0.9270172119140624,-0.033966064453125
-0.607208251953125,0.927886962890625,-0.0969085693359375
-0.7745208740234375,0.868896484375,-0.039764404296875
-0.8282318115234375,1.0161285400390625,-0.030120849609375
-0.68231201171875,0.907745361328125,-0.150543212890625
-0.583404541015625,0.65863037109375,-0.1473236083984375
-0.5251617431640625,0.703582763671875,-0.010101318359375
-0.5811920166015625,0.83685302734375,0.0207366943359375
-0.6741790771484375,0.7970123291015625,-0.1320953369140625
-0.6547088623046875,0.658966064453125,-0.2211761474609375
-0.62457275390625,0.595703125,-0.096893310546875
-0.615264892578125,0.565582275390625,-0.0118865966796875
-0.64849853515625,0.6112518310546875,-0.0435791015625
-0.554718017578125,0.6598968505859375,-0.0458984375
-0.61456298828125,0.7251739501953125,-0.0311431884765625
-0.7747039794921875,0.8885498046875,-0.0683746337890625
-0.7776336669921875,0.9639434814453124,-0.1277313232421875
-0.6991729736328125,0.89642333984375,-0.066680908203125
-0.6768951416015625,0.9033203125,-0.00067138671875
-0.749114990234375,0.9294891357421876,-0.122833251953125
-0.64697265625,0.8711090087890625,-0.214263916015625
-0.530059814453125,0.806640625,-0.0433807373046875
-0.4071197509765625,0.8018035888671875,0.0328521728515625
-0.4611968994140625,0.863739013671875,-0.1259307861328125
-0.4210052490234375,0.817230224609375,-0.1912841796875
-0.40557861328125,0.7711181640625,-0.0652313232421875
-0.4895172119140625,0.747772216796875,-0.038726806640625
-0.5637969970703125,0.7160491943359375,-0.0673675537109375
-0.5108642578125,0.7251434326171875,-0.0879364013671875
-0.5469512939453125,0.8039703369140625,-0.0536956787109375
-0.648834228515625,0.9222259521484376,-0.1010894775390625
-0.67633056640625,0.9175872802734376,-0.136566162109375
-0.68115234375,0.7777099609375,-0.094696044921875
-0.72808837890625,0.82879638671875,-0.0452728271484375
-0.71875,0.9245147705078124,-0.135101318359375
-0.6155242919921875,0.654815673828125,-0.1293182373046875
-0.64984130859375,0.6173248291015625,-0.079559326171875
-0.704620361328125,0.7041473388671875,-0.0870513916015625
-0.7446441650390625,0.7075958251953125,-0.08465576171875
-0.7236480712890625,0.6356201171875,-0.065399169921875
-0.6417083740234375,0.6340179443359375,-0.0177764892578125
-0.6569061279296875,0.662109375,-0.045318603515625
-0.6736602783203125,0.6293792724609375,-0.06903076171875
-0.7278900146484375,0.6373443603515625,-0.09307861328125
-0.8310699462890625,0.732421875,-0.11480712890625
-0.6899566650390625,0.8603363037109375,0.0192413330078125
-0.64202880859375,0.804229736328125,0.1065826416015625
-0.7243194580078125,0.8153839111328125,-0.0084381103515625
-0.72900390625,0.95953369140625,-0.1507415771484375
-0.68829345703125,0.9834136962890624,-0.2145233154296875
-0.5665283203125,0.8086395263671875,-0.2229156494140625
-0.4663848876953125,0.7335205078125,-0.1868438720703125
-0.4172821044921875,0.8121337890625,-0.1399383544921875
-0.48040771484375,0.8744659423828125,-0.036102294921875
-0.562286376953125,0.772491455078125,-0.0532379150390625
-0.572723388671875,0.6837310791015625,-0.098724365234375
-0.534515380859375,0.67645263671875,-0.1893768310546875
-0.50787353515625,0.690582275390625,-0.0826263427734375
-0.5220184326171875,0.74267578125,0.0026092529296875
-0.62457275390625,0.8283233642578125,0.0105743408203125
-0.6837310791015625,0.85089111328125,-0.0386199951171875
-0.649749755859375,0.8642730712890625,-0.0784454345703125
-0.6579132080078125,0.8563079833984375,-0.1125640869140625
-0.633056640625,0.808135986328125,-0.0826873779296875
-0.6591033935546875,0.96600341796875,-0.0498046875
-0.53948974609375,0.865234375,-0.149444580078125
-0.4894256591796875,0.593536376953125,-0.072509765625
-0.5977630615234375,0.7061920166015625,0.0421600341796875
-0.6751251220703125,0.8721923828125,-0.0024261474609375
-0.620819091796875,0.820709228515625,-0.0888214111328125
-0.5244293212890625,0.667999267578125,-0.1615142822265625
-0.5454864501953125,0.637786865234375,-0.08648681640625
-0.604095458984375,0.633209228515625,-0.027069091796875
-0.64105224609375,0.6443023681640625,-0.010955810546875
-0.6456146240234375,0.66650390625,-0.0779266357421875
-0.7168426513671875,0.75640869140625,-0.1026763916015625
-0.77020263671875,0.88201904296875,-0.11492919921875
-0.6965179443359375,0.9133453369140624,-0.0908660888671875
-0.66448974609375,0.853515625,-0.07916259765625
-0.6947174072265625,0.8819732666015625,-0.0863494873046875
-0.7012786865234375,0.953216552734375,-0.1655426025390625
-0.7181243896484375,0.8319854736328125,-0.2108154296875
-0.674285888671875,0.867889404296875,-0.1524200439453125
-0.514495849609375,0.9490814208984376,-0.1073455810546875
-0.434326171875,0.840789794921875,-0.057861328125
-0.5102081298828125,0.7286834716796875,-0.1717376708984375
-0.514007568359375,0.7274627685546875,-0.19842529296875
-0.372772216796875,0.740966796875,-0.0875396728515625
-0.4373321533203125,0.6763458251953125,-0.0227508544921875
-0.4932098388671875,0.721343994140625,-0.054443359375
-0.4536895751953125,0.7814178466796875,-0.0159912109375
-0.583160400390625,0.85791015625,-0.05889892578125
-0.6930694580078125,0.9700927734375,-0.08087158203125
-0.66827392578125,0.8769989013671875,-0.111602783203125
-0.745513916015625,1.06170654296875,-0.0787353515625
-0.6106719970703125,0.9141845703125,-0.2236480712890625
-0.4523162841796875,0.7393798828125,-0.22900390625
-0.5500946044921875,0.6917724609375,-0.0105133056640625
-0.644317626953125,0.7556304931640625,0.0731201171875
-0.62078857421875,0.7985382080078125,-0.0276947021484375
-0.4811553955078125,0.6887359619140625,-0.08831787109375
-0.5462799072265625,0.6094512939453125,-0.125091552734375
-0.696258544921875,0.64984130859375,-0.0968170166015625
-0.7167205810546875,0.69775390625,0.010772705078125
-0.6990203857421875,0.7251739501953125,-0.03033447265625
-0.683349609375,0.7398529052734375,-0.14019775390625
-0.6794586181640625,0.7716827392578125,-0.076171875
-0.7183074951171875,0.8283538818359375,-0.072662353515625
-0.689483642578125,0.859588623046875,-0.0285491943359375
-0.7487335205078125,0.9492950439453124,-0.07550048828125
-0.7967987060546875,0.9503936767578124,-0.194915771484375
-0.723724365234375,0.8443450927734375,-0.2300262451171875
-0.614837646484375,0.792388916015625,-0.080352783203125
-0.588470458984375,0.8417816162109375,-0.0732879638671875
-0.5683135986328125,0.8931884765625,-0.1694488525390625
-0.432403564453125,0.83148193359375,-0.119354248046875
-0.3715057373046875,0.7512664794921875,-0.079498291015625
-0.3801727294921875,0.7323150634765625,-0.128875732421875
-0.4798126220703125,0.7289581298828125,-0.10272216796875
-0.5418243408203125,0.73291015625,-0.01800537109375
-0.4979248046875,0.75146484375,-0.00274658203125
-0.543487548828125,0.8360595703125,-0.018707275390625
-0.6103515625,0.9139862060546876,-0.072845458984375
-0.639007568359375,0.8781890869140625,-0.11578369140625
-0.7252197265625,0.9969024658203124,-0.1128997802734375
-0.6797027587890625,0.90814208984375,-0.19561767578125
-0.588836669921875,0.7787628173828125,-0.2239227294921875
-0.596954345703125,0.63079833984375,-0.0637664794921875
-0.69500732421875,0.69073486328125,0.023345947265625
-0.7154998779296875,0.787567138671875,-0.0714263916015625
-0.6230926513671875,0.7259063720703125,-0.1528167724609375
-0.57666015625,0.63433837890625,-0.1216278076171875
-0.6055755615234375,0.651947021484375,-0.0561981201171875
-0.6525115966796875,0.658294677734375,0.0106353759765625
-0.62005615234375,0.6745758056640625,0.013702392578125
-0.6655731201171875,0.71142578125,-0.0932159423828125
-0.7619781494140625,0.73138427734375,-0.1197662353515625
-0.762939453125,0.795440673828125,-0.072784423828125
-0.729583740234375,0.832366943359375,-0.02606201171875
-0.7200775146484375,0.8160552978515625,-0.014617919921875
-0.75543212890625,0.910552978515625,-0.0814056396484375
-0.7596893310546875,0.9102325439453124,-0.17071533203125
-0.7467498779296875,0.8201141357421875,-0.2189178466796875
-0.70281982421875,0.72509765625,-0.1825714111328125
-0.635711669921875,0.8164520263671875,-0.1573486328125
-0.4931793212890625,0.9171142578125,-0.1037445068359375
-0.425048828125,0.8014678955078125,-0.066070556640625
-0.4852294921875,0.697052001953125,-0.182281494140625
-0.41864013671875,0.69171142578125,-0.1332550048828125
-0.4545440673828125,0.6915283203125,-0.065277099609375
-0.4946136474609375,0.7101287841796875,-0.0179901123046875
-0.5101470947265625,0.7303009033203125,-0.014068603515625
-0.593109130859375,0.774932861328125,-0.0269927978515625
-0.6876220703125,0.8567962646484375,0.0220489501953125
-0.72979736328125,0.860748291015625,0.0430450439453125
-0.7479705810546875,0.8059234619140625,-0.036224365234375
-0.7220001220703125,0.956756591796875,-0.1155853271484375
-0.6353607177734375,0.8798675537109375,-0.2135772705078125
-0.6295166015625,0.6147613525390625,-0.1233367919921875
-0.6701812744140625,0.642181396484375,-0.00885009765625
-0.619903564453125,0.777191162109375,-0.0104522705078125
-0.6397705078125,0.7492828369140625,-0.0757904052734375
-0.6128387451171875,0.665069580078125,-0.101104736328125
-0.5593109130859375,0.6683807373046875,-0.1268463134765625
-0.577301025390625,0.6517486572265625,-0.1267242431640625
-0.6273193359375,0.6698150634765625,-0.104278564453125
-0.69873046875,0.6707611083984375,-0.06988525390625
-0.7369537353515625,0.701385498046875,-0.02880859375
-0.772674560546875,0.8043670654296875,-0.07989501953125
-0.8099517822265625,0.835723876953125,-0.10296630859375
-0.891204833984375,0.893524169921875,-0.1039886474609375
-0.8486785888671875,0.9731597900390624,-0.1796722412109375
-0.673553466796875,0.9505615234375,-0.2388458251953125
-0.569244384765625,0.7596435546875,-0.1889801025390625
-0.5586700439453125,0.837188720703125,-0.0809478759765625
-0.5947113037109375,0.95501708984375,-0.1519012451171875
-0.5305023193359375,0.8175201416015625,-0.1598663330078125
-0.5048980712890625,0.703857421875,-0.1593170166015625
-0.4056243896484375,0.719085693359375,-0.1841888427734375
-0.3861083984375,0.7588958740234375,-0.13775634765625
-0.4363861083984375,0.7584686279296875,-0.0172271728515625
-0.44818115234375,0.7749176025390625,0.0097503662109375
-0.500457763671875,0.8495635986328125,-0.024749755859375
-0.5925140380859375,0.94635009765625,-0.0350494384765625
-0.6056060791015625,0.8650054931640625,-0.105133056640625
-0.672515869140625,0.9339141845703124,-0.1129913330078125
-0.6881561279296875,0.9498138427734376,-0.11419677734375
-0.6405792236328125,0.8572235107421875,-0.1347808837890625
-0.6717681884765625,0.6799774169921875,-0.120880126953125
-0.7086029052734375,0.724945068359375,-0.08251953125
-0.643096923828125,0.8159027099609375,-0.030975341796875
-0.5639190673828125,0.7374267578125,-0.038482666015625
-0.5328369140625,0.666717529296875,-0.0548095703125
-0.5451507568359375,0.6408538818359375,-0.052734375
-0.61651611328125,0.6715087890625,-0.066436767578125
-0.673553466796875,0.6840362548828125,-0.065582275390625
-0.6814117431640625,0.6731109619140625,-0.0494842529296875
-0.6973724365234375,0.7098236083984375,-0.0196685791015625
-0.8022613525390625,0.8290557861328125,-0.078338623046875
-0.8053131103515625,0.866912841796875,-0.1075439453125
-0.790863037109375,0.9617919921875,-0.12969970703125
-0.7476959228515625,0.9453887939453124,-0.1452789306640625
-0.7122650146484375,0.806304931640625,-0.1154632568359375
-0.714019775390625,0.8081512451171875,-0.0957794189453125
-0.67852783203125,0.8705291748046875,-0.1956634521484375
-0.6217498779296875,0.88922119140625,-0.24761962890625
-0.5057830810546875,0.7960205078125,-0.1827545166015625
-0.54425048828125,0.760162353515625,-0.1442108154296875
-0.4998779296875,0.759979248046875,-0.121734619140625
-0.4139404296875,0.751617431640625,-0.0579681396484375
-0.3856201171875,0.7263031005859375,0.00836181640625
-0.48992919921875,0.696075439453125,-0.1192474365234375
-0.5494537353515625,0.7577972412109375,-0.1143341064453125
-0.5437774658203125,0.89031982421875,-0.044891357421875
-0.62646484375,0.8956451416015625,-0.0641632080078125
-0.6623992919921875,0.9501495361328124,-0.090118408203125
-0.6475677490234375,0.8983612060546875,-0.1538543701171875
-0.612762451171875,0.7949981689453125,-0.1940155029296875
-0.5929107666015625,0.6943817138671875,-0.077117919921875
-0.5637054443359375,0.771209716796875,0.011474609375
-0.5802459716796875,0.850555419921875,-0.0660247802734375
-0.58465576171875,0.752960205078125,-0.2046356201171875
-0.575286865234375,0.66748046875,-0.1792449951171875
-0.6446533203125,0.657470703125,-0.0861663818359375
-0.6892547607421875,0.677642822265625,-0.0123138427734375
-0.672637939453125,0.7047119140625,-0.01568603515625
-0.6972808837890625,0.672698974609375,-0.080841064453125
-0.74530029296875,0.7398223876953125,-0.128082275390625
-0.7613983154296875,0.7918701171875,-0.14727783203125
-0.81329345703125,0.7830657958984375,-0.14776611328125
-0.8687896728515625,0.859649658203125,-0.127197265625
-0.7624359130859375,0.90167236328125,-0.1466522216796875
-0.734954833984375,0.8580474853515625,-0.1710205078125
-0.7116851806640625,0.7280731201171875,-0.1698455810546875
-0.6591339111328125,0.8309783935546875,-0.194183349609375
-0.6319427490234375,0.981964111328125,-0.2581939697265625
-0.5582733154296875,0.8935089111328125,-0.2826385498046875
-0.568267822265625,0.790618896484375,-0.21929931640625
-0.54058837890625,0.7489166259765625,-0.1892547607421875
-0.4978179931640625,0.762725830078125,-0.1685638427734375
-0.451690673828125,0.7519378662109375,-0.1248626708984375
-0.4303436279296875,0.7834014892578125,-0.1303558349609375
-0.4657745361328125,0.8038330078125,-0.1507720947265625
-0.5596923828125,0.8353424072265625,-0.13616943359375
-0.6336212158203125,0.8704376220703125,-0.09381103515625
-0.639617919921875,0.891998291015625,-0.0974273681640625
-0.591796875,0.6717987060546875,-0.17718505859375
-0.65301513671875,0.4470672607421875,-0.1251068115234375
-0.6703033447265625,0.5277557373046875,0.144195556640625
-0.701171875,0.8536529541015625,0.1568145751953125
-0.716461181640625,0.9153594970703124,0.1184539794921875
-0.7779388427734375,0.7592010498046875,-0.0092315673828125
-0.7911834716796875,0.669525146484375,-0.1031494140625
-0.774932861328125,0.64727783203125,-0.16827392578125
-0.634796142578125,0.663970947265625,-0.0846405029296875
-0.6334686279296875,0.698333740234375,-0.03021240234375
-0.6602325439453125,0.77349853515625,-0.1078643798828125
-0.6620635986328125,0.8506622314453125,-0.2679290771484375
-0.6021881103515625,0.80108642578125,-0.247222900390625
-0.553863525390625,0.792572021484375,-0.165771484375
-0.5544586181640625,0.783935546875,-0.1709442138671875
-0.5686492919921875,0.772430419921875,-0.3120574951171875
-0.5629119873046875,0.8089141845703125,-0.38323974609375
-0.565582275390625,0.819061279296875,-0.303375244140625
-0.6212158203125,0.8229217529296875,-0.3636016845703125
-0.6277618408203125,0.8052825927734375,-0.4458770751953125
-0.6530914306640625,0.793304443359375,-0.39337158203125
-0.7001800537109375,0.82122802734375,-0.3509674072265625
-0.6848602294921875,0.84344482421875,-0.396148681640625
-0.659271240234375,0.845672607421875,-0.3545989990234375
-0.6440582275390625,0.8380889892578125,-0.2449188232421875
-0.6463623046875,0.86273193359375,-0.212738037109375
-0.607086181640625,0.87298583984375,-0.19927978515625
-0.52569580078125,0.8316802978515625,-0.233551025390625
-0.5321197509765625,0.83013916015625,-0.1858062744140625
-0.4664764404296875,0.8502044677734375,-0.120574951171875
-0.4147491455078125,0.866058349609375,-0.0628509521484375
-0.5121917724609375,0.8377685546875,-0.0597991943359375
-0.47283935546875,0.8516998291015625,-0.0212554931640625
-0.4969635009765625,0.8136138916015625,-0.01153564453125
-0.42291259765625,0.7484130859375,0.072601318359375
-0.3913726806640625,0.89935302734375,0.073333740234375
-0.3770294189453125,0.9770965576171876,0.033843994140625
-0.3784637451171875,0.9065399169921876,0.0831756591796875
-0.426544189453125,0.8199462890625,0.127471923828125
-0.5148468017578125,0.8195343017578125,0.0046234130859375
-0.5885009765625,0.8411865234375,-0.0615386962890625
-0.6539154052734375,0.8448028564453125,-0.041839599609375
-0.7110748291015625,0.8296661376953125,0.031036376953125
-0.7856597900390625,0.7518157958984375,0.0278472900390625
-0.811004638671875,0.7692413330078125,-0.0201263427734375
-0.7837066650390625,0.79925537109375,-0.019927978515625
-0.7786102294921875,0.83294677734375,-0.0021820068359375
-0.8395233154296875,0.9480743408203124,-0.0520477294921875
-0.8326263427734375,0.9691162109375,-0.1198272705078125
-0.7552337646484375,0.833831787109375,-0.1705169677734375
-0.6377716064453125,0.737457275390625,-0.144927978515625
-0.4978485107421875,0.8661346435546875,-0.1149139404296875
-0.4158477783203125,0.8878326416015625,-0.06756591796875
-0.519012451171875,0.841064453125,-0.2365570068359375
-0.4762115478515625,0.8429107666015625,-0.2212371826171875
-0.3419342041015625,0.8322296142578125,-0.10711669921875
-0.4217071533203125,0.8115997314453125,-0.055419921875
-0.5351104736328125,0.82928466796875,-0.0887451171875
-0.3972930908203125,0.853363037109375,-0.0421905517578125
-0.38824462890625,0.89093017578125,-0.0843658447265625
-0.459991455078125,0.99053955078125,-0.0416412353515625
-0.5021514892578125,1.008697509765625,0.016693115234375
-0.5067138671875,0.9668731689453124,0.070465087890625
-0.473907470703125,0.9903717041015624,-0.0986785888671875
-0.51220703125,0.8819580078125,-0.1982421875
-0.57159423828125,0.79901123046875,-0.0407562255859375
-0.6334381103515625,0.8322296142578125,-0.0209808349609375
-0.583099365234375,0.8306427001953125,-0.044464111328125
-0.47900390625,0.6902008056640625,-0.0507354736328125
-0.4701690673828125,0.62652587890625,-0.0287322998046875
-0.5374908447265625,0.6844482421875,0.013671875
-0.6058502197265625,0.71087646484375,0.07281494140625
-0.6878814697265625,0.74603271484375,0.01531982421875
-0.7468414306640625,0.788970947265625,-0.031646728515625
-0.7933349609375,0.8845672607421875,-0.0020599365234375
-0.7615203857421875,0.911224365234375,-0.02899169921875
-0.6962432861328125,0.8868255615234375,-0.026885986328125
-0.6728363037109375,1.0205230712890625,-0.07073974609375
-0.6470794677734375,1.0314178466796875,-0.1147918701171875
-0.590087890625,0.8368682861328125,-0.1540374755859375
-0.552764892578125,0.8444976806640625,-0.0698394775390625
-0.47479248046875,0.879669189453125,-0.0031280517578125
-0.513519287109375,0.855682373046875,-0.171417236328125
-0.6234283447265625,0.7958831787109375,-0.2659454345703125
-0.5351104736328125,0.78363037109375,-0.15277099609375
-0.3749237060546875,0.7704010009765625,0.0294036865234375
-0.427459716796875,0.717803955078125,0.103515625
-0.4824066162109375,0.734283447265625,0.0294647216796875
-0.394012451171875,0.8217620849609375,-0.0257720947265625
-0.4902496337890625,0.9256744384765624,-0.1017608642578125
-0.58819580078125,0.9320526123046876,-0.14935302734375
-0.624237060546875,0.8671417236328125,-0.14776611328125
-0.5939483642578125,1.053131103515625,-0.0225982666015625
-0.5472412109375,1.01629638671875,-0.1702880859375
-0.5319671630859375,0.7720489501953125,-0.2187957763671875
-0.5801544189453125,0.7435760498046875,-0.1614990234375
-0.621368408203125,0.776214599609375,-0.08929443359375
-0.5971221923828125,0.73486328125,0.020172119140625
-0.5319976806640625,0.6563873291015625,0.02166748046875
-0.498321533203125,0.6494903564453125,-0.01116943359375
-0.5354156494140625,0.67327880859375,0.0035552978515625
-0.62860107421875,0.7196502685546875,0.03814697265625
-0.69024658203125,0.74200439453125,0.0910797119140625
-0.7081146240234375,0.8036346435546875,0.0110931396484375
-0.7797088623046875,0.93170166015625,-0.1078643798828125
-0.8230133056640625,0.9176025390625,-0.146697998046875
-0.7848663330078125,0.826202392578125,-0.0709381103515625
-0.731048583984375,0.9558258056640624,-0.0726776123046875
-0.7248687744140625,0.9647979736328124,-0.190704345703125
-0.6739044189453125,0.79681396484375,-0.1283111572265625
-0.581085205078125,0.793365478515625,-0.0514373779296875
-0.585235595703125,0.859405517578125,-0.0602569580078125
-0.605194091796875,0.9113922119140624,-0.0963897705078125
-0.5494842529296875,0.8585205078125,-0.1175537109375
-0.45709228515625,0.798858642578125,-0.0592498779296875
-0.44561767578125,0.75872802734375,-0.0976104736328125
-0.463409423828125,0.7444000244140625,-0.1332244873046875
-0.4481658935546875,0.7661285400390625,-0.1005401611328125
-0.4666290283203125,0.7712860107421875,-0.0702667236328125
-0.5003509521484375,0.812103271484375,-0.0272979736328125
-0.5611419677734375,0.91162109375,-0.0297393798828125
-0.6769256591796875,0.946441650390625,-0.0341796875
-0.7503662109375,1.0442352294921875,-0.0542144775390625
-0.5859832763671875,0.95013427734375,-0.1886138916015625
-0.5255279541015625,0.6436767578125,-0.1256103515625
-0.59381103515625,0.5852508544921875,-0.035186767578125
-0.5735626220703125,0.6958770751953125,0.0140533447265625
-0.428680419921875,0.7275238037109375,-0.0540618896484375
-0.53240966796875,0.6725616455078125,-0.12896728515625
-0.633819580078125,0.6613922119140625,-0.07916259765625
-0.560028076171875,0.689422607421875,-0.0479736328125
-0.58282470703125,0.7054443359375,-0.1142730712890625
-0.6743621826171875,0.68212890625,-0.0318603515625
-0.7139892578125,0.728240966796875,0.06719970703125
-0.7653350830078125,0.8687286376953125,0.0063629150390625
-0.8327178955078125,0.8531646728515625,-0.0539093017578125
-0.9224700927734376,0.8334808349609375,-0.0587158203125
-0.9489288330078124,0.9249725341796876,-0.09295654296875
-0.9031982421875,0.9620208740234376,-0.104644775390625
-0.792816162109375,0.7678070068359375,-0.13739013671875
-0.708892822265625,0.7650604248046875,-0.166961669921875
-0.6529083251953125,0.89349365234375,-0.2105560302734375
-0.550140380859375,0.9204864501953124,-0.1801605224609375
-0.473724365234375,0.7902374267578125,-0.118804931640625
-0.43017578125,0.7264251708984375,-0.1641387939453125
-0.37518310546875,0.720123291015625,-0.1683502197265625
-0.3386383056640625,0.6942901611328125,-0.1769866943359375
-0.364715576171875,0.6696624755859375,-0.0688934326171875
-0.4246826171875,0.7226409912109375,-0.0171356201171875
-0.5349273681640625,0.89154052734375,-0.0294647216796875
-0.57904052734375,0.959197998046875,-0.0536651611328125
-0.7547760009765625,1.00177001953125,-0.0565643310546875
-0.7877655029296875,0.968658447265625,-0.056365966796875
-0.673492431640625,0.792724609375,-0.137420654296875
-0.72674560546875,0.691925048828125,-0.100006103515625
-0.7471923828125,0.7829437255859375,-0.03668212890625
-0.7177886962890625,0.78839111328125,-0.0662078857421875
-0.6231231689453125,0.63232421875,-0.099517822265625
-0.566680908203125,0.604156494140625,-0.070831298828125
-0.5359649658203125,0.6690673828125,-0.047393798828125
-0.4940338134765625,0.7040252685546875,-0.0489044189453125
-0.5039520263671875,0.6846466064453125,-0.066162109375
-0.5455780029296875,0.679779052734375,-0.0998382568359375
-0.6516571044921875,0.7894287109375,-0.0630035400390625
-0.7519378662109375,0.8881988525390625,-0.0742034912109375
-0.801849365234375,0.867095947265625,-0.0983123779296875
-0.8918609619140625,0.903717041015625,-0.1104583740234375
-0.8860626220703125,0.939422607421875,-0.118743896484375
-0.7921600341796875,0.821990966796875,-0.1436920166015625
-0.7681121826171875,0.741363525390625,-0.1423187255859375
-0.6894683837890625,0.8350372314453125,-0.1647796630859375
-0.63177490234375,0.9288787841796876,-0.14263916015625
-0.5527496337890625,0.8460540771484375,-0.1631317138671875
-0.5120849609375,0.75244140625,-0.1504669189453125
-0.4787750244140625,0.742584228515625,-0.100250244140625
-0.415374755859375,0.719207763671875,-0.0203399658203125
-0.3596954345703125,0.685882568359375,0.0085296630859375
-0.3695068359375,0.7321624755859375,-0.04266357421875
-0.4406585693359375,0.833465576171875,-0.03485107421875
-0.4797821044921875,0.916839599609375,-0.0345001220703125
-0.5305938720703125,0.8661041259765625,-0.125579833984375
-0.65765380859375,0.8466339111328125,-0.1190338134765625
-0.6891937255859375,0.9701690673828124,-0.0288238525390625
-0.58734130859375,0.93975830078125,-0.0983734130859375
-0.5835723876953125,0.803009033203125,-0.1783294677734375
-0.6476593017578125,0.8206634521484375,-0.1229248046875
-0.6837310791015625,0.798095703125,-0.0406036376953125
-0.59759521484375,0.7781982421875,-0.0384674072265625
-0.48577880859375,0.7269134521484375,-0.04010009765625
-0.4720306396484375,0.72998046875,-0.0888519287109375
-0.547088623046875,0.747772216796875,-0.1625213623046875
-0.6150665283203125,0.73419189453125,-0.122528076171875
-0.64947509765625,0.727264404296875,-0.0482635498046875
-0.7252349853515625,0.7725372314453125,-0.0728759765625
-0.7654571533203125,0.8517303466796875,-0.087890625
-0.725341796875,0.87255859375,-0.0668487548828125
-0.7470550537109375,0.9723052978515624,-0.060943603515625
-0.733489990234375,1.0376434326171875,-0.0973052978515625
-0.704742431640625,0.8388214111328125,-0.119537353515625
-0.73101806640625,0.7956695556640625,-0.0637054443359375
-0.63934326171875,0.9434814453125,-0.0607452392578125
-0.6007537841796875,1.0181732177734375,-0.0747222900390625
-0.463958740234375,0.966583251953125,-0.0661468505859375
-0.41363525390625,0.8549652099609375,0.004119873046875
-0.3916168212890625,0.814300537109375,0.0143890380859375
-0.4912567138671875,0.80010986328125,-0.068634033203125
-0.5084075927734375,0.786590576171875,-0.08807373046875
-0.4296875,0.7841796875,-0.0556793212890625
-0.421844482421875,0.7803497314453125,-0.06585693359375
-0.4929046630859375,0.8444061279296875,-0.0358428955078125
-0.485748291015625,0.8394622802734375,-0.087249755859375
-0.527679443359375,0.7698211669921875,-0.1358795166015625
-0.631011962890625,0.856201171875,-0.1207733154296875
-0.5621185302734375,0.9019927978515624,-0.173553466796875
-0.574798583984375,0.7214813232421875,-0.1970672607421875
-0.733978271484375,0.7931976318359375,-0.1232147216796875
-0.78839111328125,0.8469085693359375,-0.1421356201171875
-0.69366455078125,0.7654266357421875,-0.0890655517578125
-0.508056640625,0.7051849365234375,-0.103851318359375
-0.4912261962890625,0.6647186279296875,-0.1014251708984375
-0.5448455810546875,0.6944122314453125,-0.0449371337890625
-0.5684967041015625,0.7023468017578125,0.0743408203125
-0.619140625,0.7591400146484375,-0.0098419189453125
-0.772216796875,0.8574676513671875,-0.1139068603515625
-0.8743133544921875,0.92877197265625,-0.1062164306640625
-0.8511810302734375,0.8484954833984375,-0.050048828125
-0.825103759765625,0.9113616943359376,-0.0743865966796875
-0.7727813720703125,0.9690704345703124,-0.1260223388671875
-0.7126922607421875,0.8532867431640625,-0.173187255859375
-0.7069549560546875,0.722076416015625,-0.1428070068359375
-0.6156768798828125,0.8091278076171875,-0.1606292724609375
-0.558319091796875,0.913848876953125,-0.16455078125
-0.478271484375,0.883514404296875,-0.210540771484375
-0.4117279052734375,0.777862548828125,-0.29718017578125
-0.455657958984375,0.7447967529296875,-0.277557373046875
-0.470245361328125,0.7213134765625,-0.0951080322265625
-0.4875335693359375,0.6938629150390625,-0.022979736328125
-0.495330810546875,0.7542266845703125,-0.0020904541015625
-0.5413970947265625,0.8494415283203125,0.0113983154296875
-0.587432861328125,0.98956298828125,-0.01898193359375
-0.55804443359375,0.9278106689453124,-0.102142333984375
-0.5889129638671875,0.8278656005859375,-0.18450927734375
-0.5148773193359375,0.9931793212890624,-0.04034423828125
-0.3839111328125,1.0010833740234375,-0.1314697265625
-0.56121826171875,0.7729034423828125,-0.1383514404296875
-0.6694793701171875,0.7519378662109375,0.0178375244140625
-0.6100616455078125,0.8293609619140625,0.016754150390625
-0.5411529541015625,0.7851409912109375,-0.101593017578125
-0.513397216796875,0.72662353515625,-0.102447509765625
-0.5341949462890625,0.726837158203125,-0.058624267578125
-0.6014556884765625,0.6967315673828125,-0.0607452392578125
-0.6727752685546875,0.696807861328125,-0.0629730224609375
-0.7098388671875,0.7318878173828125,-0.0808868408203125
-0.75262451171875,0.7367095947265625,-0.0829010009765625
-0.754791259765625,0.7950592041015625,-0.08111572265625
-0.715606689453125,0.8363037109375,-0.0654296875
-0.72149658203125,0.83502197265625,-0.095611572265625
-0.68585205078125,0.9160614013671876,-0.0630645751953125
-0.6164093017578125,1.056365966796875,-0.1045074462890625
-0.6781463623046875,0.94732666015625,-0.124664306640625
-0.71136474609375,0.7965545654296875,-0.02825927734375
-0.5627899169921875,0.8900146484375,-0.019989013671875
-0.443695068359375,0.948822021484375,-0.0901641845703125
-0.462615966796875,0.9113616943359376,-0.3236541748046875
-0.4818878173828125,0.835357666015625,-0.2428436279296875
-0.4707794189453125,0.803985595703125,0.0131683349609375
-0.4769439697265625,0.7440338134765625,0.056884765625
-0.486968994140625,0.7375946044921875,-0.112518310546875
-0.42572021484375,0.7559967041015625,-0.1530303955078125
-0.366851806640625,0.74871826171875,-0.10992431640625
-0.3763275146484375,0.79962158203125,-0.01287841796875
-0.46881103515625,0.883758544921875,-0.0735931396484375
-0.573455810546875,0.88677978515625,-0.0958251953125
-0.6771240234375,0.99322509765625,-0.0623931884765625
-0.69671630859375,1.0007171630859375,-0.0990753173828125
-0.6785888671875,0.84527587890625,-0.1700286865234375
-0.7096710205078125,0.56866455078125,-0.110382080078125
-0.7918243408203125,0.634490966796875,0.0223388671875
-0.81695556640625,0.7970123291015625,0.057525634765625
-0.780853271484375,0.7964630126953125,-0.0535125732421875
-0.698394775390625,0.75689697265625,-0.1729736328125
-0.626129150390625,0.7285003662109375,-0.181640625
-0.583160400390625,0.712066650390625,-0.1173248291015625
-0.5501708984375,0.7198333740234375,-0.0999908447265625
-0.5385589599609375,0.759613037109375,-0.0921173095703125
-0.5961761474609375,0.79522705078125,-0.114776611328125
-0.665069580078125,0.8003387451171875,-0.1264190673828125
-0.706207275390625,0.7631378173828125,-0.047882080078125
-0.68707275390625,0.759735107421875,-0.039764404296875
-0.647216796875,0.7905426025390625,-0.07781982421875
-0.5778961181640625,0.7909393310546875,-0.1287841796875
-0.572021484375,0.827606201171875,-0.11822509765625
-0.619354248046875,0.9450225830078124,-0.16015625
-0.5420379638671875,0.7735443115234375,-0.076141357421875
-0.46502685546875,0.619415283203125,0.00970458984375
-0.4666290283203125,0.6551055908203125,-0.04595947265625
-0.4795989990234375,0.7763671875,-0.19482421875
-0.5542755126953125,0.79925537109375,-0.27947998046875
-0.6446380615234375,0.75079345703125,-0.2288055419921875
-0.70074462890625,0.7203369140625,-0.2430267333984375
-0.7111968994140625,0.7151031494140625,-0.310882568359375
-0.687164306640625,0.7220916748046875,-0.2694091796875
-0.7100830078125,0.7467193603515625,-0.272003173828125
-0.78643798828125,0.73455810546875,-0.23419189453125
-0.8065032958984375,0.673919677734375,-0.2474212646484375
-0.81854248046875,0.68292236328125,-0.26409912109375
-0.832305908203125,0.7540283203125,-0.3552703857421875
-0.7391815185546875,0.7805328369140625,-0.4586944580078125
-0.5845947265625,0.8427886962890625,-0.428955078125
-0.4881439208984375,0.8447723388671875,-0.2946624755859375
-0.466094970703125,0.8430633544921875,-0.1684417724609375
-0.4566497802734375,0.90362548828125,-0.2187652587890625
-0.479217529296875,0.846954345703125,-0.21759033203125
-0.5988006591796875,0.847320556640625,-0.2010955810546875
-0.5440826416015625,0.788116455078125,-0.1711273193359375
-0.5424652099609375,0.8016510009765625,-0.1595611572265625
-0.5702972412109375,0.8050689697265625,-0.139251708984375
-0.5878448486328125,0.760406494140625,-0.045562744140625
-0.630950927734375,0.7125701904296875,0.0340118408203125
-0.7557830810546875,0.7726593017578125,0.04644775390625
-0.6363677978515625,0.7779083251953125,0.1561126708984375
-0.611602783203125,0.753753662109375,0.144927978515625
-0.6346435546875,0.759918212890625,0.017486572265625
-0.5474395751953125,0.7878570556640625,0.0299072265625
-0.459381103515625,0.7977447509765625,0.074676513671875
-0.4838409423828125,0.76507568359375,0.069183349609375
-0.53302001953125,0.7419281005859375,0.045806884765625
-0.572998046875,0.728851318359375,0.03094482421875
-0.6038360595703125,0.751556396484375,0.0516204833984375
-0.631439208984375,0.745147705078125,0.0252838134765625
-0.725921630859375,0.752716064453125,0.001617431640625
-0.7650604248046875,0.744781494140625,0.0182037353515625
-0.7328338623046875,0.739654541015625,0.008819580078125
-0.7496795654296875,0.729827880859375,-0.027496337890625
-0.7680206298828125,0.7313690185546875,-0.027374267578125
-0.8117828369140625,0.7047882080078125,-0.01837158203125
-0.748291015625,0.7390594482421875,-0.0795135498046875
-0.733154296875,0.8433990478515625,-0.1573638916015625
-0.7304534912109375,0.8839874267578125,-0.1973419189453125
-0.6529388427734375,0.8165283203125,-0.108978271484375
-0.4509735107421875,0.82720947265625,-0.1032562255859375
-0.426910400390625,0.8638763427734375,-0.24725341796875
-0.6417694091796875,0.9071807861328124,-0.3133697509765625
-0.619842529296875,0.9012603759765624,-0.1674041748046875
-0.5451202392578125,0.8214111328125,-0.0638580322265625
-0.5304107666015625,0.75164794921875,-0.151123046875
-0.4976043701171875,0.7314605712890625,-0.129913330078125
-0.5013580322265625,0.74932861328125,-0.1051177978515625
-0.5046539306640625,0.7610321044921875,-0.14361572265625
-0.5248260498046875,0.7525177001953125,-0.094390869140625
-0.48687744140625,0.7851715087890625,-0.0212860107421875
-0.5873565673828125,0.8707733154296875,0.0318145751953125
-0.651092529296875,0.9423980712890624,-0.0174102783203125
-0.67962646484375,0.9333953857421876,-0.05999755859375
-0.6619110107421875,0.98480224609375,-0.0447998046875
-0.6265411376953125,0.9276123046875,-0.219451904296875
-0.63079833984375,0.802154541015625,-0.29913330078125
-0.583526611328125,0.6528167724609375,-0.1043701171875
-0.596954345703125,0.6123809814453125,0.0450592041015625
-0.6247100830078125,0.7160797119140625,-0.1128997802734375
-0.616180419921875,0.753753662109375,-0.2098236083984375
-0.5798492431640625,0.743743896484375,-0.2102813720703125
-0.5244903564453125,0.690460205078125,-0.1612396240234375
-0.511810302734375,0.7116546630859375,-0.119537353515625
-0.46380615234375,0.7097625732421875,-0.028656005859375
-0.515106201171875,0.727386474609375,-0.0784759521484375
-0.5677032470703125,0.7666778564453125,-0.0704803466796875
-0.65997314453125,0.775299072265625,-0.0406951904296875
-0.6680908203125,0.81268310546875,-0.03375244140625
-0.6732025146484375,0.8625946044921875,-0.119720458984375
-0.684478759765625,0.8698577880859375,-0.1556854248046875
-0.7608642578125,0.943145751953125,-0.1610107421875
-0.6742706298828125,0.96051025390625,-0.173431396484375
-0.63214111328125,0.8350067138671875,-0.2104644775390625
-0.653076171875,0.7801055908203125,-0.2263946533203125
-0.668914794921875,0.924041748046875,-0.2221527099609375
-0.462432861328125,0.931671142578125,-0.147186279296875
-0.4085693359375,0.7563629150390625,-0.23870849609375
-0.49603271484375,0.6824798583984375,-0.290802001953125
-0.466766357421875,0.7503204345703125,-0.1725311279296875
-0.3595733642578125,0.771697998046875,-0.0421295166015625
-0.3585968017578125,0.7430419921875,0.0178375244140625
-0.533111572265625,0.765838623046875,-0.1365509033203125
-0.641143798828125,0.8840179443359375,-0.16986083984375
-0.5864105224609375,0.929443359375,-0.1115264892578125
-0.6058349609375,0.8552398681640625,-0.1380462646484375
-0.7234954833984375,0.86669921875,-0.0859222412109375
-0.6242828369140625,0.9022674560546876,-0.159393310546875
-0.500244140625,0.8348236083984375,-0.242645263671875
-0.5384979248046875,0.6345367431640625,-0.1435089111328125
-0.6500091552734375,0.6703338623046875,-0.0572509765625
-0.6993408203125,0.83392333984375,-0.1558685302734375
-0.6602783203125,0.77532958984375,-0.239013671875
-0.6444854736328125,0.686767578125,-0.2008819580078125
-0.6100921630859375,0.7016448974609375,-0.1324920654296875
-0.622100830078125,0.7030181884765625,-0.0913848876953125
-0.63092041015625,0.7142791748046875,-0.0519866943359375
-0.620697021484375,0.735260009765625,-0.0820465087890625
-0.73089599609375,0.7344512939453125,-0.14703369140625
-0.752838134765625,0.765533447265625,-0.0875091552734375
-0.661224365234375,0.8613739013671875,-0.076019287109375
-0.5925750732421875,0.8577880859375,-0.092864990234375
-0.6672210693359375,0.84332275390625,-0.137969970703125
-0.7054443359375,0.94732666015625,-0.23101806640625
-0.678314208984375,0.9374847412109376,-0.30743408203125
-0.5951080322265625,0.7589111328125,-0.292022705078125
-0.58251953125,0.7427978515625,-0.2788848876953125
-0.5725860595703125,0.7827301025390625,-0.2790679931640625
-0.554351806640625,0.8461151123046875,-0.1766357421875
-0.50091552734375,0.7489776611328125,-0.1103363037109375
-0.50213623046875,0.68841552734375,-0.17840576171875
-0.473175048828125,0.66827392578125,-0.24627685546875
-0.469085693359375,0.67694091796875,-0.1279754638671875
-0.4536895751953125,0.74151611328125,-0.1152191162109375
-0.51324462890625,0.789459228515625,-0.1261444091796875
-0.6074371337890625,0.853485107421875,-0.1150360107421875
-0.67791748046875,0.9490814208984376,-0.0760498046875
-0.678955078125,0.9214019775390624,-0.0849456787109375
-0.66058349609375,0.8461761474609375,-0.103271484375
-0.6348876953125,0.98455810546875,-0.125732421875
-0.5069122314453125,0.92462158203125,-0.1874237060546875
-0.4655914306640625,0.6885528564453125,-0.1142120361328125
-0.5224456787109375,0.590301513671875,-0.002197265625
-0.6075439453125,0.7015838623046875,-0.0483551025390625
-0.6638946533203125,0.8078155517578125,-0.1419219970703125
-0.5831146240234375,0.71759033203125,-0.170684814453125
-0.5268402099609375,0.6995697021484375,-0.196563720703125
-0.511322021484375,0.7368011474609375,-0.15814208984375
-0.5178680419921875,0.7549591064453125,-0.13189697265625
-0.559661865234375,0.7441253662109375,-0.1216278076171875
-0.581298828125,0.7646331787109375,-0.1280517578125
-0.567718505859375,0.80548095703125,-0.1160736083984375
-0.57415771484375,0.84661865234375,-0.0958099365234375
-0.5632171630859375,0.9061279296875,-0.08837890625
-0.6077880859375,0.8834381103515625,-0.141021728515625
-0.7229766845703125,0.9611053466796876,-0.207366943359375
-0.7236328125,0.9209747314453124,-0.219146728515625
-0.6491851806640625,0.7938385009765625,-0.0823822021484375
-0.612213134765625,0.8585205078125,-0.1355133056640625
-0.5090179443359375,0.9545135498046876,-0.2506103515625
-0.4170989990234375,0.8993988037109375,-0.27490234375
-0.4411773681640625,0.76287841796875,-0.2739715576171875
-0.512451171875,0.732177734375,-0.2306060791015625
-0.5643768310546875,0.74102783203125,-0.1342010498046875
-0.5758209228515625,0.7793121337890625,-0.12548828125
-0.53265380859375,0.77667236328125,-0.1546783447265625
-0.4946441650390625,0.7749176025390625,-0.1484832763671875
-0.511749267578125,0.85491943359375,-0.1113433837890625
-0.48858642578125,0.9229736328125,-0.0939788818359375
-0.541229248046875,0.8307952880859375,-0.140655517578125
-0.6630401611328125,0.8912506103515625,-0.125244140625
-0.561431884765625,0.9987030029296876,-0.147491455078125
-0.4449615478515625,0.94793701171875,-0.3160858154296875
-0.4539031982421875,0.693115234375,-0.295684814453125
-0.5736236572265625,0.6486663818359375,-0.104583740234375
-0.5925445556640625,0.766082763671875,-0.053192138671875
-0.4610137939453125,0.815704345703125,-0.1483154296875
-0.3965606689453125,0.787017822265625,-0.210662841796875
-0.413970947265625,0.7529144287109375,-0.222503662109375
-0.5037994384765625,0.716339111328125,-0.1882476806640625
-0.6185150146484375,0.704345703125,-0.103668212890625
-0.6388092041015625,0.7345123291015625,-0.0882110595703125
-0.6905364990234375,0.7788543701171875,-0.1810760498046875
-0.760223388671875,0.798858642578125,-0.1857757568359375
-0.809417724609375,0.81451416015625,-0.1249542236328125
-0.732879638671875,0.7931671142578125,-0.1106719970703125
-0.668182373046875,0.7892913818359375,-0.1572723388671875
-0.7060089111328125,1.009033203125,-0.2086944580078125
-0.6999664306640625,0.901885986328125,-0.205810546875
-0.7559051513671875,0.7418670654296875,-0.12548828125
-0.719635009765625,0.9132537841796876,-0.168548583984375
-0.6147308349609375,1.0106201171875,-0.1647186279296875
-0.58697509765625,0.91943359375,-0.1967620849609375
-0.62298583984375,0.85675048828125,-0.17791748046875
-0.489990234375,0.85687255859375,-0.079437255859375
-0.34844970703125,0.808074951171875,-0.061859130859375
-0.366943359375,0.7472991943359375,-0.0902099609375
-0.3943023681640625,0.7017059326171875,-0.0978240966796875
-0.3816070556640625,0.6866455078125,-0.0877227783203125
-0.3896331787109375,0.7364501953125,-0.1258392333984375
-0.450286865234375,0.8309173583984375,-0.18109130859375
-0.516387939453125,0.8933868408203125,-0.2763824462890625
-0.6114044189453125,0.930999755859375,-0.3532562255859375
-0.6385040283203125,1.00677490234375,-0.3957672119140625
-0.6108856201171875,0.963836669921875,-0.4650726318359375
-0.6162261962890625,0.7576141357421875,-0.4551239013671875
-0.7580718994140625,0.705841064453125,-0.3285980224609375
-0.781158447265625,0.7373046875,-0.2066497802734375
-0.5371551513671875,0.7438507080078125,-0.111968994140625
-0.3170166015625,0.6982574462890625,0.0182952880859375
-0.3757476806640625,0.714019775390625,0.0428924560546875
-0.4420318603515625,0.768402099609375,-0.0067901611328125
-0.460784912109375,0.8127593994140625,-0.1756134033203125
-0.6199188232421875,0.7998504638671875,-0.2373504638671875
-0.7255706787109375,0.7834320068359375,-0.174896240234375
-0.8062896728515625,0.8128814697265625,-0.1786346435546875
-0.7607879638671875,0.8680877685546875,-0.1034698486328125
-0.724029541015625,0.79754638671875,-0.0395050048828125
-0.7466583251953125,0.848663330078125,-0.1277618408203125
-0.6833953857421875,0.9250946044921876,-0.204681396484375
-0.666961669921875,0.8809356689453125,-0.2752685546875
-0.7021484375,0.7581329345703125,-0.194854736328125
-0.5904998779296875,0.8660430908203125,-0.1396942138671875
-0.51788330078125,0.9754638671875,-0.2100677490234375
-0.4834442138671875,0.92596435546875,-0.2602081298828125
-0.4404449462890625,0.8179168701171875,-0.28289794921875
-0.4350738525390625,0.8135223388671875,-0.2458953857421875
-0.3876800537109375,0.7753143310546875,-0.150482177734375
-0.3636322021484375,0.7353363037109375,-0.14849853515625
-0.3587646484375,0.7499847412109375,-0.2018280029296875
-0.3834075927734375,0.7656402587890625,-0.173126220703125
-0.49652099609375,0.796722412109375,-0.0484161376953125
-0.5610198974609375,0.910675048828125,-0.004058837890625
-0.57366943359375,0.92376708984375,-0.1503753662109375
-0.6929168701171875,1.112579345703125,-0.175079345703125
-0.6363983154296875,1.0427093505859375,-0.2539825439453125
-0.6516265869140625,0.7994842529296875,-0.2957000732421875
-0.719329833984375,0.605255126953125,-0.1363525390625
-0.740966796875,0.6849365234375,-0.01556396484375
-0.750732421875,0.7689666748046875,-0.095367431640625
-0.666534423828125,0.74261474609375,-0.1934051513671875
-0.580535888671875,0.6930389404296875,-0.2397003173828125
-0.4703369140625,0.69091796875,-0.169097900390625
-0.46002197265625,0.7103729248046875,-0.1743316650390625
-0.5030670166015625,0.709014892578125,-0.12554931640625
-0.5408782958984375,0.7205352783203125,-0.1128997802734375
-0.5984954833984375,0.728271484375,-0.1524658203125
-0.6376953125,0.7359771728515625,-0.141387939453125
-0.653900146484375,0.7655181884765625,-0.1436767578125
-0.6612548828125,0.773712158203125,-0.1194000244140625
-0.77001953125,1.0305328369140625,-0.155670166015625
-0.6856231689453125,1.0663909912109375,-0.2549896240234375
-0.673004150390625,0.667877197265625,-0.166015625
-0.7580413818359375,0.6914825439453125,-0.1424713134765625
-0.66650390625,0.9642333984375,-0.205413818359375
-0.521270751953125,0.928314208984375,-0.257476806640625
-0.54632568359375,0.746124267578125,-0.2275238037109375
-0.500457763671875,0.70599365234375,-0.239471435546875
-0.4296112060546875,0.7201995849609375,-0.1780853271484375
-0.4101409912109375,0.72296142578125,-0.1139068603515625
-0.4135284423828125,0.721923828125,-0.045867919921875
-0.4498443603515625,0.745635986328125,-0.0314483642578125
-0.50689697265625,0.791778564453125,-0.0758514404296875
-0.55072021484375,0.8489532470703125,-0.08990478515625
-0.641571044921875,0.8839874267578125,-0.0831756591796875
-0.7502593994140625,1.11468505859375,-0.093658447265625
-0.6820220947265625,0.9787750244140624,-0.2135772705078125
-0.68731689453125,0.6232147216796875,-0.1362762451171875
-0.736785888671875,0.6433563232421875,-0.0535125732421875
-0.74395751953125,0.7365264892578125,-0.0256500244140625
-0.7419281005859375,0.7675018310546875,-0.1208953857421875
-0.6681976318359375,0.70904541015625,-0.2232818603515625
-0.6099395751953125,0.6999359130859375,-0.3004608154296875
-0.5485382080078125,0.6839141845703125,-0.2544097900390625
-0.555816650390625,0.668792724609375,-0.2264862060546875
-0.5759429931640625,0.7141265869140625,-0.24432373046875
-0.6529388427734375,0.7511749267578125,-0.206024169921875
-0.7191314697265625,0.7860107421875,-0.159088134765625
-0.7121734619140625,0.855255126953125,-0.1984710693359375
-0.660491943359375,0.880950927734375,-0.22705078125
-0.6172027587890625,1.052398681640625,-0.2697601318359375
-0.5516204833984375,1.06646728515625,-0.401336669921875
-0.531494140625,0.903594970703125,-0.3752593994140625
-0.4800567626953125,0.7297821044921875,-0.2474822998046875
-0.4105377197265625,0.764007568359375,-0.2089080810546875
-0.4075469970703125,0.8744354248046875,-0.2755126953125
-0.4041748046875,0.8013458251953125,-0.269775390625
-0.482177734375,0.764495849609375,-0.3079071044921875
-0.5104217529296875,0.7567291259765625,-0.283203125
-0.5407867431640625,0.8166961669921875,-0.1709136962890625
-0.486419677734375,0.85986328125,-0.1746368408203125
-0.499359130859375,0.854705810546875,-0.243011474609375
-0.4359130859375,0.8415985107421875,-0.2143096923828125
-0.3610076904296875,0.866790771484375,-0.1788787841796875
-0.395660400390625,0.9631805419921876,-0.10107421875
-0.4854736328125,1.1171112060546875,-0.1189117431640625
-0.4063568115234375,0.9210662841796876,-0.27569580078125
-0.391143798828125,0.7003021240234375,-0.1971435546875
-0.4785308837890625,0.7126922607421875,-0.023773193359375
-0.610992431640625,0.861572265625,-0.0020904541015625
-0.64544677734375,0.95654296875,-0.13214111328125
-0.626495361328125,0.82818603515625,-0.1504058837890625
-0.65631103515625,0.715850830078125,-0.1678009033203125
-0.6616668701171875,0.6923828125,-0.1047821044921875
-0.6388702392578125,0.7117462158203125,-0.0793304443359375
-0.609649658203125,0.716033935546875,-0.134185791015625
-0.58831787109375,0.70318603515625,-0.15673828125
-0.5843353271484375,0.68304443359375,-0.17083740234375
-0.5597076416015625,0.6143646240234375,-0.0819549560546875
-0.529541015625,0.5019989013671875,-0.003570556640625
-0.443023681640625,0.52410888671875,0.0113372802734375
-0.40997314453125,0.567169189453125,-0.0449676513671875
-0.4343109130859375,0.59259033203125,-0.118438720703125
-0.4752655029296875,0.70208740234375,-0.097412109375
-0.6005859375,1.1358795166015625,-0.1866912841796875
-0.631256103515625,1.277679443359375,-0.310272216796875
-0.71807861328125,1.4240264892578125,-0.355987548828125
-0.601348876953125,1.5417938232421875,-0.3975830078125
-0.3497314453125,0.959136962890625,-0.3129119873046875
-0.3406829833984375,0.89410400390625,-0.2299957275390625
-0.2612457275390625,0.8051300048828125,-0.1871337890625
-0.318695068359375,0.6431121826171875,-0.101104736328125
-0.3964996337890625,0.5333251953125,0.005523681640625
-0.4757232666015625,0.5373687744140625,0.020263671875
-0.51885986328125,0.5626068115234375,0.0123291015625
-0.546112060546875,0.5933074951171875,-0.01593017578125
-0.5376434326171875,0.58221435546875,-0.112213134765625
-0.5823974609375,0.54180908203125,-0.1295166015625
-0.7501373291015625,1.01898193359375,-0.1263427734375
-1.0077972412109375,1.4319610595703125,-0.297943115234375
-1.217803955078125,1.3361663818359375,-0.4285125732421875
-1.3271942138671875,1.183837890625,-0.37823486328125
-0.925994873046875,1.044647216796875,-0.2109222412109375
-0.467620849609375,0.9080657958984376,0.0288848876953125
-0.1551666259765625,0.689178466796875,0.2458343505859375
-0.0900115966796875,0.474517822265625,0.3938140869140625
-0.2000579833984375,0.4716796875,0.1782073974609375
-0.170867919921875,0.6409759521484375,-0.0175323486328125
-0.1969757080078125,0.68255615234375,-0.1609039306640625
-0.272186279296875,0.5876922607421875,-0.1143035888671875
-0.348663330078125,0.7090301513671875,0.0516204833984375
-0.524383544921875,1.0067291259765625,0.04229736328125
-0.6597137451171875,1.4565887451171875,-0.1620025634765625
-0.7527618408203125,1.868896484375,-0.3930206298828125
-0.7845458984375,1.6429290771484375,-0.395843505859375
-0.771331787109375,1.120086669921875,-0.26348876953125
-0.6742401123046875,0.8025360107421875,-0.2542572021484375
-0.496734619140625,0.581512451171875,-0.03717041015625
-0.41082763671875,0.3939056396484375,0.0900726318359375
-0.3985748291015625,0.288848876953125,0.05963134765625
-0.40716552734375,0.25494384765625,0.0604248046875
-0.482208251953125,0.3060302734375,0.025146484375
-0.5578765869140625,0.4173126220703125,-0.0623779296875
-0.663421630859375,0.64581298828125,-0.1743316650390625
-0.9498748779296876,1.5093231201171875,-0.35479736328125
-1.0723724365234375,1.7063140869140625,-0.32025146484375
-1.1288604736328125,1.8531494140625,-0.46099853515625
-0.9111175537109376,1.31793212890625,-0.0635223388671875
-0.8563232421875,0.935150146484375,0.4174346923828125
-0.6091156005859375,0.867889404296875,0.298919677734375
-0.328125,0.7811279296875,0.0967559814453125
-0.2511444091796875,0.665283203125,-0.00677490234375
-0.18048095703125,0.6000823974609375,-0.01141357421875
-0.16046142578125,0.5290679931640625,-0.068115234375
-0.1365203857421875,0.5104827880859375,-0.0386810302734375
-0.066802978515625,0.52410888671875,0.0426177978515625
-0.1847686767578125,0.504669189453125,0.079864501953125
-0.3292999267578125,0.4867706298828125,0.118560791015625
-0.39166259765625,0.561126708984375,0.0680389404296875
-0.41448974609375,0.9321441650390624,0.0346832275390625
-0.543060302734375,1.5570220947265625,-0.1724700927734375
-0.8626556396484375,2.026962280273437,-0.4579620361328125
-0.908447265625,1.773529052734375,-0.485595703125
-0.874725341796875,1.2009429931640625,-0.238922119140625
-0.8271484375,1.0477294921875,-0.14141845703125
-0.62451171875,0.884307861328125,-0.017181396484375
-0.4872283935546875,0.664276123046875,0.0306243896484375
-0.479766845703125,0.4937896728515625,0.00830078125
-0.496307373046875,0.4099273681640625,0.0259857177734375
-0.5164337158203125,0.4201202392578125,0.059722900390625
-0.5216827392578125,0.4931793212890625,-0.017974853515625
-0.5405731201171875,0.6028289794921875,-0.1251983642578125
-0.52423095703125,0.6766357421875,-0.23370361328125
-0.5469818115234375,0.641754150390625,-0.245452880859375
-0.719970703125,0.9452972412109376,-0.0765380859375
-0.8222503662109375,1.457733154296875,0.0059051513671875
-0.78521728515625,1.6088714599609375,-0.1300201416015625
-0.8016510009765625,1.724151611328125,-0.35101318359375
-0.57403564453125,1.1292877197265625,-0.1095428466796875
-0.5358734130859375,0.62103271484375,0.181640625
-0.38507080078125,0.51483154296875,0.0572509765625
-0.2006378173828125,0.552642822265625,0.0205230712890625
-0.21124267578125,0.5775909423828125,0.0802459716796875
-0.336761474609375,0.5411224365234375,-0.016571044921875
-0.3677520751953125,0.5349884033203125,-0.088348388671875
-0.363189697265625,0.5599365234375,-0.1470489501953125
-0.3592376708984375,0.618743896484375,-0.08575439453125
-0.41192626953125,0.66021728515625,0.065277099609375
-0.5162811279296875,0.98199462890625,0.0615081787109375
-0.6307220458984375,1.54669189453125,-0.1376495361328125
-0.7557220458984375,1.8617401123046875,-0.285308837890625
-0.7657318115234375,1.441864013671875,-0.322479248046875
-0.77044677734375,1.010589599609375,-0.2761993408203125
-0.5736541748046875,0.84832763671875,-0.3072357177734375
-0.3042144775390625,0.6929931640625,-0.14947509765625
-0.2601776123046875,0.528656005859375,-0.02325439453125
-0.3369293212890625,0.4533843994140625,0.0580596923828125
-0.4160614013671875,0.44403076171875,0.0959014892578125
-0.4759368896484375,0.4885406494140625,0.057342529296875
-0.48370361328125,0.5817718505859375,-0.061553955078125
-0.4895477294921875,0.6475372314453125,-0.201324462890625
-0.571502685546875,0.6717376708984375,-0.2366790771484375
-0.8387908935546875,1.163360595703125,-0.09869384765625
-0.783660888671875,1.60809326171875,0.070526123046875
-0.8364105224609375,1.8539886474609373,-0.2242889404296875
-0.871124267578125,1.250640869140625,-0.16192626953125
-0.7635650634765625,0.8291778564453125,0.3722991943359375
-0.567169189453125,0.678253173828125,0.2884674072265625
-0.39031982421875,0.5870513916015625,-0.01556396484375
-0.3051605224609375,0.5218505859375,-0.167266845703125
-0.301971435546875,0.3987884521484375,-0.1199951171875
-0.3031158447265625,0.318389892578125,-0.0199127197265625
-0.3613128662109375,0.26898193359375,-0.059051513671875
-0.46185302734375,0.1846771240234375,-0.4662017822265625
-0.6452178955078125,0.3898468017578125,-0.6495208740234375
-0.647186279296875,0.6704864501953125,-0.6109619140625
-0.8636932373046875,0.616912841796875,-0.7612152099609375
-0.81219482421875,0.708160400390625,-1.0991058349609375
-0.7279205322265625,0.643310546875,-1.182525634765625
-0.701934814453125,0.5128936767578125,-0.9680633544921876
-0.4912872314453125,0.323699951171875,-0.9755401611328124
-0.486968994140625,0.2794189453125,-1.0893707275390625
-0.46942138671875,0.2374267578125,-1.3436126708984375
-0.223907470703125,0.266326904296875,-1.3905487060546875
-0.19940185546875,0.1520233154296875,-1.0290679931640625
-0.1199188232421875,-0.0262451171875,-1.030670166015625
-0.4360198974609375,-0.0936126708984375,-1.4815673828125
-0.1425933837890625,-0.1230316162109375,-1.303192138671875
0.0924835205078125,-0.1622161865234375,-1.19525146484375
-0.090728759765625,-0.1811065673828125,-0.9442596435546876
-0.0904998779296875,-0.2523345947265625,-0.73699951171875
-0.0631866455078125,-0.3524017333984375,-0.746368408203125
-0.1263580322265625,-0.44384765625,-0.784149169921875
-0.080841064453125,-0.4876708984375,-0.8521728515625
-0.1608123779296875,-0.4705810546875,-0.832366943359375
-0.1050872802734375,-0.46356201171875,-0.650604248046875
-0.1192169189453125,-0.481414794921875,-0.5906219482421875
-0.094146728515625,-0.50323486328125,-0.7098236083984375
-0.1162261962890625,-0.526947021484375,-0.7602386474609375
-0.0979766845703125,-0.515411376953125,-0.8952178955078125
-0.0901031494140625,-0.4795379638671875,-0.864959716796875
-0.1461944580078125,-0.4778594970703125,-0.7325897216796875
-0.0880126953125,-0.5023956298828125,-0.797607421875
-0.0662689208984375,-0.5045013427734375,-0.8548736572265625
-0.093292236328125,-0.528717041015625,-0.781646728515625
-0.1171875,-0.5338134765625,-0.8081207275390625
-0.1000823974609375,-0.50439453125,-0.800262451171875
-0.0859527587890625,-0.4718475341796875,-0.820892333984375
-0.1100616455078125,-0.4780426025390625,-0.877166748046875
-0.16571044921875,-0.4792327880859375,-0.8527374267578125
-0.1416015625,-0.4877166748046875,-0.8682403564453125
-0.1242828369140625,-0.4943389892578125,-0.8791351318359375
-0.11151123046875,-0.5033416748046875,-0.88671875
-0.11529541015625,-0.4958648681640625,-0.900238037109375
-0.1450958251953125,-0.4783172607421875,-0.9131927490234376
-0.1488037109375,-0.4659576416015625,-0.8712615966796875
-0.1856689453125,-0.4557952880859375,-0.8685302734375
-0.1551513671875,-0.45465087890625,-0.901458740234375
-0.1712188720703125,-0.458648681640625,-0.826385498046875
-0.16217041015625,-0.4701080322265625,-0.852142333984375
