AccelerationX,AccelerationY,AccelerationZ
0.2631072998046875,-0.8966827392578125,-0.37542724609375
0.240081787109375,-0.876800537109375,-0.3866729736328125
0.2729949951171875,-0.8656005859375,-0.431304931640625
0.214447021484375,-0.846923828125,-0.3821258544921875
0.2402496337890625,-0.86004638671875,-0.414337158203125
0.293304443359375,-0.903045654296875,-0.483978271484375
0.188873291015625,-0.8843231201171875,-0.42919921875
0.225921630859375,-0.8717041015625,-0.4504852294921875
0.2343292236328125,-0.85870361328125,-0.4676971435546875
0.2223663330078125,-0.8246917724609375,-0.4331207275390625
0.2024993896484375,-0.8425140380859375,-0.4586181640625
0.181427001953125,-0.8632659912109375,-0.46588134765625
0.1642913818359375,-0.8610382080078125,-0.409881591796875
0.076812744140625,-0.910369873046875,-0.494720458984375
-0.1276702880859375,-0.90667724609375,-0.4869384765625
-0.0753326416015625,-0.910858154296875,-0.4317169189453125
0.1249847412109375,-0.9647064208984376,-0.3721771240234375
0.191558837890625,-0.98486328125,-0.3335723876953125
0.0970611572265625,-0.9180755615234376,-0.319671630859375
0.20697021484375,-0.8748016357421875,-0.3797760009765625
0.2111663818359375,-0.771026611328125,-0.3437347412109375
0.2926177978515625,-0.8309326171875,-0.2603607177734375
0.1267242431640625,-0.859283447265625,-0.1829681396484375
0.0890350341796875,-0.9351806640625,-0.188262939453125
0.1485595703125,-0.96240234375,-0.2039642333984375
0.218963623046875,-1.0388641357421875,-0.2669219970703125
0.14453125,-1.0776519775390625,-0.317230224609375
0.1721649169921875,-1.112030029296875,-0.3735504150390625
0.153533935546875,-1.201629638671875,-0.4309844970703125
0.14434814453125,-1.390380859375,-0.47198486328125
0.210784912109375,-1.31414794921875,-0.51251220703125
0.2246551513671875,-1.061859130859375,-0.485015869140625
0.0197296142578125,-0.8335113525390625,-0.3112335205078125
0.1129913330078125,-0.959869384765625,-0.2660369873046875
0.2330780029296875,-1.166778564453125,-0.2283172607421875
0.159759521484375,-1.2571868896484375,-0.0910491943359375
0.18585205078125,-1.075286865234375,-0.09869384765625
0.234649658203125,-0.9571533203125,-0.0488128662109375
0.18597412109375,-0.778717041015625,-0.07501220703125
0.24334716796875,-0.70501708984375,-0.116119384765625
0.3173370361328125,-0.6852874755859375,-0.1407928466796875
0.2791595458984375,-0.684722900390625,-0.0942230224609375
0.2121429443359375,-0.761993408203125,-0.0938568115234375
0.2380828857421875,-0.9359283447265624,-0.2232818603515625
0.2335052490234375,-1.1365509033203125,-0.240447998046875
0.234283447265625,-1.4347076416015625,-0.135406494140625
0.218780517578125,-1.26922607421875,-0.219512939453125
0.1005096435546875,-0.9581756591796876,-0.4323883056640625
0.0151519775390625,-1.0117034912109375,-0.3817291259765625
0.0566558837890625,-1.0597991943359375,-0.2141265869140625
0.042388916015625,-0.7825469970703125,-0.1707000732421875
0.026580810546875,-0.635528564453125,-0.1715240478515625
0.1129150390625,-0.663909912109375,-0.21820068359375
0.0912628173828125,-0.6750946044921875,-0.262908935546875
0.1619720458984375,-0.7316131591796875,-0.284149169921875
0.2203521728515625,-0.808929443359375,-0.3395843505859375
0.2497406005859375,-1.04345703125,-0.3750762939453125
0.2523956298828125,-1.1415252685546875,-0.461822509765625
0.275177001953125,-1.2676849365234375,-0.5045013427734375
0.292633056640625,-1.2495269775390625,-0.5548095703125
0.233917236328125,-1.21441650390625,-0.450439453125
0.1884765625,-1.1758880615234375,-0.324005126953125
0.132659912109375,-1.2778778076171875,-0.215087890625
0.05804443359375,-1.25244140625,-0.161041259765625
0.084014892578125,-1.0298919677734375,-0.137603759765625
0.11138916015625,-0.898223876953125,-0.14410400390625
0.1327056884765625,-0.8620758056640625,-0.136627197265625
0.19610595703125,-0.803131103515625,-0.15264892578125
0.2599639892578125,-0.729949951171875,-0.1305999755859375
0.2297210693359375,-0.622772216796875,-0.087677001953125
0.2247161865234375,-0.5981292724609375,-0.067291259765625
0.3284454345703125,-0.816680908203125,-0.0959625244140625
0.3546600341796875,-0.891265869140625,-0.1569366455078125
0.370513916015625,-1.1871490478515625,-0.2456207275390625
0.33135986328125,-1.2259979248046875,-0.3604278564453125
0.174896240234375,-1.069366455078125,-0.488922119140625
0.0714874267578125,-1.1262969970703125,-0.3736572265625
0.0694122314453125,-1.0885162353515625,-0.248809814453125
0.026763916015625,-0.9275665283203124,-0.2041778564453125
0.0736846923828125,-0.717132568359375,-0.263214111328125
0.0953369140625,-0.7803192138671875,-0.1894989013671875
0.0898284912109375,-0.8056182861328125,-0.1978607177734375
0.1981048583984375,-0.871917724609375,-0.280426025390625
0.2069854736328125,-0.848541259765625,-0.336944580078125
0.315948486328125,-1.003448486328125,-0.4049530029296875
0.370635986328125,-1.0969696044921875,-0.5252838134765625
0.25946044921875,-1.114959716796875,-0.41717529296875
0.3207550048828125,-1.342529296875,-0.4067230224609375
0.27520751953125,-1.292022705078125,-0.35693359375
0.136474609375,-1.0427398681640625,-0.2220916748046875
0.1041107177734375,-1.0722503662109375,-0.1899261474609375
0.0771331787109375,-1.0311737060546875,-0.1536407470703125
0.09112548828125,-0.9278717041015624,-0.132904052734375
0.142364501953125,-0.8691864013671875,-0.1610260009765625
0.16888427734375,-0.86676025390625,-0.1829833984375
0.224700927734375,-0.7982635498046875,-0.1922760009765625
0.2640838623046875,-0.756683349609375,-0.1539154052734375
0.2480316162109375,-0.736572265625,-0.095977783203125
0.256103515625,-0.83087158203125,-0.058837890625
0.2986602783203125,-0.9684906005859376,-0.1085357666015625
0.2899017333984375,-1.1399993896484375,-0.22271728515625
0.27789306640625,-1.3386077880859375,-0.280120849609375
0.240753173828125,-1.1933135986328125,-0.3040008544921875
0.1622467041015625,-1.00128173828125,-0.3997802734375
-0.010955810546875,-1.0154266357421875,-0.295867919921875
0.093292236328125,-0.880584716796875,-0.2369232177734375
0.071502685546875,-0.64923095703125,-0.19610595703125
0.055694580078125,-0.57440185546875,-0.28466796875
0.0110626220703125,-0.6927032470703125,-0.2593536376953125
0.100677490234375,-0.778106689453125,-0.2496795654296875
0.2552642822265625,-0.893585205078125,-0.3159332275390625
0.234954833984375,-0.878021240234375,-0.3053741455078125
0.293853759765625,-1.06060791015625,-0.3753204345703125
0.3426361083984375,-1.3437652587890625,-0.490875244140625
0.3419342041015625,-1.68853759765625,-0.54718017578125
0.2054901123046875,-1.443511962890625,-0.4698486328125
-0.0279693603515625,-0.8533935546875,-0.2901611328125
0.04974365234375,-0.887786865234375,-0.2364959716796875
0.093658447265625,-1.0195159912109375,-0.184814453125
0.1522216796875,-1.0249786376953125,-0.1417236328125
0.1465606689453125,-0.9114990234375,-0.1571807861328125
0.14923095703125,-0.840301513671875,-0.2116241455078125
0.1705780029296875,-0.768157958984375,-0.211181640625
0.2149200439453125,-0.6837921142578125,-0.161163330078125
0.252716064453125,-0.6507415771484375,-0.114776611328125
0.286529541015625,-0.7342376708984375,-0.084075927734375
0.3286590576171875,-1.0042266845703125,-0.08746337890625
0.317291259765625,-1.0984954833984375,-0.159576416015625
0.285491943359375,-1.191864013671875,-0.20037841796875
0.2627105712890625,-1.222442626953125,-0.212005615234375
0.1671905517578125,-1.007171630859375,-0.2271728515625
0.031585693359375,-0.9639892578125,-0.30523681640625
0.08978271484375,-1.0911407470703125,-0.3686065673828125
0.0995941162109375,-0.998748779296875,-0.3286285400390625
0.04681396484375,-0.745941162109375,-0.24169921875
0.1152801513671875,-0.624481201171875,-0.2252655029296875
0.142486572265625,-0.6859893798828125,-0.2350616455078125
0.1768798828125,-0.777099609375,-0.22625732421875
0.247955322265625,-0.8551025390625,-0.240142822265625
0.298095703125,-1.04962158203125,-0.2916412353515625
0.366729736328125,-1.270843505859375,-0.44317626953125
0.3897552490234375,-1.51336669921875,-0.540618896484375
0.3444061279296875,-1.491302490234375,-0.5081939697265625
0.13043212890625,-1.06158447265625,-0.3190765380859375
0.0253448486328125,-0.895965576171875,-0.21453857421875
0.0364990234375,-1.04962158203125,-0.095733642578125
0.075653076171875,-1.1219635009765625,-0.082672119140625
0.117279052734375,-0.966400146484375,-0.160003662109375
0.15771484375,-0.8782958984375,-0.200958251953125
0.137969970703125,-0.7825469970703125,-0.2730865478515625
0.20001220703125,-0.6791229248046875,-0.238616943359375
0.226287841796875,-0.6073150634765625,-0.150421142578125
0.26904296875,-0.6346893310546875,-0.0927581787109375
0.3058013916015625,-0.8031005859375,-0.0322265625
0.334014892578125,-1.0668792724609375,-0.0146484375
0.327392578125,-1.076446533203125,-0.138702392578125
0.31146240234375,-1.44146728515625,-0.22467041015625
0.2530975341796875,-1.2750244140625,-0.265533447265625
0.171875,-1.0837860107421875,-0.3209228515625
0.063201904296875,-1.0399017333984375,-0.2547607421875
0.07843017578125,-0.9843292236328124,-0.1926727294921875
0.0459442138671875,-0.7787628173828125,-0.1692657470703125
0.0649566650390625,-0.632781982421875,-0.2289886474609375
0.0893707275390625,-0.663116455078125,-0.2344512939453125
0.14947509765625,-0.7644805908203125,-0.2634124755859375
0.196807861328125,-0.8280029296875,-0.332000732421875
0.206817626953125,-0.8560638427734375,-0.351104736328125
0.247650146484375,-1.0784454345703125,-0.3931884765625
0.3061370849609375,-1.2607421875,-0.4869537353515625
0.3441162109375,-1.5757293701171875,-0.5366973876953125
0.237060546875,-1.4725341796875,-0.408599853515625
0.0176544189453125,-0.959320068359375,-0.219085693359375
-0.0120697021484375,-1.03204345703125,-0.1528167724609375
0.043701171875,-1.1436004638671875,-0.079925537109375
0.12054443359375,-1.137298583984375,-0.123382568359375
0.10546875,-0.829437255859375,-0.1427459716796875
0.2023773193359375,-0.739227294921875,-0.193206787109375
0.1824493408203125,-0.66094970703125,-0.193084716796875
0.2446136474609375,-0.643280029296875,-0.169403076171875
0.3008880615234375,-0.667327880859375,-0.1203155517578125
0.306427001953125,-0.787811279296875,-0.0499114990234375
0.308624267578125,-1.0299835205078125,-0.0244903564453125
0.2840423583984375,-1.0587921142578125,-0.076812744140625
0.3156585693359375,-1.320770263671875,-0.12744140625
0.3386383056640625,-1.3258514404296875,-0.281097412109375
0.2677764892578125,-0.953521728515625,-0.481109619140625
0.221954345703125,-0.8035430908203125,-0.457305908203125
0.1109466552734375,-0.8929595947265625,-0.23291015625
0.103546142578125,-1.065032958984375,-0.14178466796875
-0.10260009765625,-0.885986328125,-0.14215087890625
0.0045013427734375,-0.77325439453125,-0.2433319091796875
0.2272186279296875,-0.7652587890625,-0.3453369140625
0.0368499755859375,-0.7828216552734375,-0.355072021484375
0.075042724609375,-0.8181610107421875,-0.3779754638671875
0.0798187255859375,-0.8326873779296875,-0.3958587646484375
0.1689300537109375,-1.01812744140625,-0.4236907958984375
0.1998443603515625,-1.1766204833984375,-0.4696197509765625
0.192535400390625,-1.4393463134765625,-0.4800567626953125
0.1898040771484375,-1.50714111328125,-0.435577392578125
0.035400390625,-1.1328887939453125,-0.2155914306640625
0.033966064453125,-1.0069122314453125,-0.1255645751953125
0.0847320556640625,-1.1757354736328125,-0.1045989990234375
0.14251708984375,-1.13470458984375,-0.07562255859375
0.2168731689453125,-0.8674774169921875,-0.1686553955078125
0.267364501953125,-0.7377166748046875,-0.213775634765625
0.24249267578125,-0.652618408203125,-0.2261199951171875
0.2979583740234375,-0.583404541015625,-0.187896728515625
0.2771759033203125,-0.5595855712890625,-0.115875244140625
0.248992919921875,-0.6206207275390625,-0.0652313232421875
0.25421142578125,-0.9484405517578124,-0.06829833984375
0.2710723876953125,-1.2993621826171875,-0.0214385986328125
0.2463531494140625,-1.2715606689453125,-0.059661865234375
0.2798004150390625,-1.5029754638671875,-0.181884765625
0.1923370361328125,-1.1128082275390625,-0.429107666015625
0.132049560546875,-0.797515869140625,-0.51068115234375
0.190093994140625,-1.076416015625,-0.352508544921875
0.1295928955078125,-1.1783905029296875,-0.1324615478515625
0.05230712890625,-0.8702392578125,-0.1060638427734375
-0.0418548583984375,-0.6488037109375,-0.1816253662109375
0.012542724609375,-0.5448760986328125,-0.262176513671875
0.1151580810546875,-0.5974578857421875,-0.3513336181640625
0.1967620849609375,-0.631195068359375,-0.3968048095703125
0.316558837890625,-0.823516845703125,-0.47650146484375
0.3798980712890625,-0.996734619140625,-0.528717041015625
0.3625640869140625,-1.1328887939453125,-0.565460205078125
0.269134521484375,-1.170806884765625,-0.4283599853515625
0.4078521728515625,-1.2237396240234375,-0.485260009765625
0.4148712158203125,-1.2293243408203125,-0.4502410888671875
0.2953643798828125,-1.349090576171875,-0.26348876953125
0.2406005859375,-1.4078216552734375,-0.192901611328125
0.238067626953125,-1.2460784912109375,-0.17730712890625
0.2873687744140625,-0.97802734375,-0.217529296875
0.212188720703125,-0.830413818359375,-0.1556243896484375
0.11407470703125,-0.768035888671875,-0.1144866943359375
0.2609405517578125,-0.7098846435546875,-0.13812255859375
0.29168701171875,-0.7630767822265625,-0.1025848388671875
0.274505615234375,-0.8404388427734375,-0.066009521484375
0.2534027099609375,-0.96343994140625,-0.0487823486328125
0.2264556884765625,-0.9020233154296876,-0.1447906494140625
0.2719879150390625,-1.0918731689453125,-0.198089599609375
0.355010986328125,-1.141082763671875,-0.2034149169921875
0.339263916015625,-0.8933563232421875,-0.4903717041015625
0.3396759033203125,-0.812469482421875,-0.695556640625
0.3703765869140625,-0.90960693359375,-0.5289306640625
0.2707672119140625,-0.9443817138671876,-0.23504638671875
0.0029754638671875,-0.8824005126953125,-0.0473175048828125
-0.050994873046875,-0.869781494140625,-0.1800689697265625
-0.0778656005859375,-0.923370361328125,-0.3026123046875
-0.1739501953125,-0.8887176513671875,-0.2664642333984375
0.0769500732421875,-0.9129791259765624,-0.3469696044921875
0.1788787841796875,-0.8848876953125,-0.4171600341796875
0.3233184814453125,-0.97894287109375,-0.47894287109375
0.4098663330078125,-1.0640411376953125,-0.5407257080078125
0.3632354736328125,-1.083099365234375,-0.506195068359375
0.2978515625,-1.265625,-0.485076904296875
0.1759796142578125,-1.16973876953125,-0.3414306640625
0.1319427490234375,-1.09381103515625,-0.2511138916015625
0.2272186279296875,-1.3664398193359375,-0.2267608642578125
0.18109130859375,-1.4109954833984375,-0.1145172119140625
0.1793975830078125,-1.0538330078125,-0.1299285888671875
0.154144287109375,-0.82672119140625,-0.18865966796875
0.1376495361328125,-0.7517242431640625,-0.1872406005859375
0.1891326904296875,-0.722412109375,-0.15057373046875
0.2814178466796875,-0.743377685546875,-0.1083984375
0.27655029296875,-0.776580810546875,-0.0443267822265625
0.3118438720703125,-0.9056396484375,-0.038848876953125
0.3876800537109375,-1.1793060302734375,-0.0576934814453125
0.3751678466796875,-1.0850372314453125,-0.1546783447265625
0.401397705078125,-1.1624908447265625,-0.217498779296875
0.341522216796875,-0.935821533203125,-0.3797149658203125
0.2399139404296875,-0.7054595947265625,-0.487701416015625
0.300689697265625,-0.804840087890625,-0.4091033935546875
0.2877044677734375,-0.92657470703125,-0.268646240234375
0.17608642578125,-0.932891845703125,-0.20513916015625
0.0104217529296875,-0.762725830078125,-0.2015533447265625
0.0210723876953125,-0.690887451171875,-0.3096923828125
0.0397491455078125,-0.7486724853515625,-0.3044586181640625
0.080169677734375,-0.8159332275390625,-0.31890869140625
0.1985321044921875,-0.9253387451171876,-0.3895721435546875
0.2371673583984375,-1.00640869140625,-0.427978515625
0.3215484619140625,-1.239044189453125,-0.5370635986328125
0.331207275390625,-1.4022369384765625,-0.58807373046875
0.2621612548828125,-1.471954345703125,-0.4825439453125
0.1578216552734375,-1.17822265625,-0.3016357421875
0.042449951171875,-0.8563690185546875,-0.2257080078125
0.11602783203125,-1.101898193359375,-0.167449951171875
0.1731414794921875,-1.2769012451171875,-0.1305999755859375
0.251678466796875,-1.1057281494140625,-0.146209716796875
0.250946044921875,-0.9020538330078124,-0.2154998779296875
0.17694091796875,-0.7890625,-0.2025146484375
0.1634979248046875,-0.7248992919921875,-0.1361236572265625
0.2419891357421875,-0.7213134765625,-0.0765380859375
0.292449951171875,-0.7921905517578125,-0.0163726806640625
0.2789459228515625,-0.9073028564453124,0.017578125
0.2509918212890625,-1.1379852294921875,0.042022705078125
0.2611846923828125,-1.053375244140625,-0.0352020263671875
0.3141021728515625,-1.27435302734375,-0.1023101806640625
0.274932861328125,-1.0351104736328125,-0.2418365478515625
0.22198486328125,-0.6842498779296875,-0.394866943359375
0.2589874267578125,-0.9160614013671876,-0.372222900390625
0.2887420654296875,-1.131591796875,-0.3030548095703125
0.198333740234375,-1.0115509033203125,-0.2905120849609375
-0.0654754638671875,-0.7462615966796875,-0.238128662109375
-0.1053314208984375,-0.623443603515625,-0.2878875732421875
-0.01397705078125,-0.724029541015625,-0.2692718505859375
0.033660888671875,-0.760528564453125,-0.293792724609375
0.14996337890625,-0.8259429931640625,-0.3295745849609375
0.232940673828125,-0.9935150146484376,-0.378753662109375
0.379119873046875,-1.2634735107421875,-0.5721282958984375
0.292449951171875,-1.32012939453125,-0.5581207275390625
0.2440032958984375,-1.4741668701171875,-0.399749755859375
0.2052001953125,-1.4439697265625,-0.341796875
0.0726776123046875,-0.880828857421875,-0.2052459716796875
0.1519927978515625,-0.98748779296875,-0.17425537109375
0.1478424072265625,-1.1437530517578125,-0.13818359375
0.2173004150390625,-1.0180511474609375,-0.1241455078125
0.266571044921875,-0.853912353515625,-0.1782073974609375
0.2079010009765625,-0.79266357421875,-0.1598968505859375
0.1969451904296875,-0.7612457275390625,-0.1055450439453125
0.2206878662109375,-0.7484130859375,-0.034271240234375
0.2741241455078125,-0.86767578125,0.059112548828125
0.2650909423828125,-0.9901885986328124,0.1073455810546875
0.2523956298828125,-1.20367431640625,0.0988922119140625
0.2603302001953125,-1.102386474609375,-0.0456695556640625
0.239837646484375,-1.311065673828125,-0.0926055908203125
0.1122894287109375,-1.1433563232421875,-0.2089385986328125
0.16168212890625,-0.8153533935546875,-0.3272705078125
0.124847412109375,-0.8098907470703125,-0.2937164306640625
0.126068115234375,-1.0093536376953125,-0.1659698486328125
0.16229248046875,-0.9812469482421876,-0.234466552734375
-0.0072479248046875,-0.8084716796875,-0.25579833984375
-0.1620330810546875,-0.7128753662109375,-0.2463531494140625
-0.0992889404296875,-0.7880859375,-0.2392730712890625
-0.0426025390625,-0.8793792724609375,-0.29132080078125
0.031280517578125,-1.00604248046875,-0.3360748291015625
0.1098480224609375,-0.990447998046875,-0.39569091796875
0.173919677734375,-1.1546783447265625,-0.451141357421875
0.1841888427734375,-1.18408203125,-0.47943115234375
0.1592254638671875,-1.329986572265625,-0.3483123779296875
0.177520751953125,-1.368316650390625,-0.3421783447265625
0.0723724365234375,-1.185791015625,-0.17327880859375
0.1179351806640625,-1.079132080078125,-0.139312744140625
0.2512359619140625,-1.19940185546875,-0.1675262451171875
0.3435821533203125,-1.1784210205078125,-0.1745147705078125
0.302154541015625,-0.8798065185546875,-0.164215087890625
0.2260894775390625,-0.7090301513671875,-0.074920654296875
0.222412109375,-0.681732177734375,-0.0126953125
0.2596588134765625,-0.74029541015625,-0.030914306640625
0.2148590087890625,-0.7919769287109375,0.0722808837890625
0.3365325927734375,-0.90118408203125,0.2053680419921875
0.196319580078125,-1.0501251220703125,0.178375244140625
0.1688690185546875,-1.065582275390625,0.046600341796875
0.272613525390625,-1.1739349365234375,-0.1686248779296875
0.3628692626953125,-1.30230712890625,-0.3313140869140625
0.2899017333984375,-1.088531494140625,-0.333404541015625
-0.05169677734375,-0.8912353515625,-0.1953887939453125
0.0455169677734375,-1.127655029296875,-0.09576416015625
0.0389251708984375,-1.08135986328125,-0.1519622802734375
0.0362091064453125,-1.03753662109375,-0.1768646240234375
0.0693206787109375,-0.9001617431640625,-0.2307586669921875
0.0076904296875,-0.83050537109375,-0.2481842041015625
0.006103515625,-0.8162078857421875,-0.2769317626953125
0.1047210693359375,-0.782318115234375,-0.3431243896484375
0.125244140625,-0.854339599609375,-0.3421173095703125
0.1802520751953125,-1.00189208984375,-0.332763671875
0.2464447021484375,-1.17999267578125,-0.276947021484375
0.216644287109375,-1.1052093505859375,-0.186279296875
0.2696685791015625,-1.2384490966796875,-0.1874542236328125
0.2398223876953125,-1.162933349609375,-0.132598876953125
0.2682342529296875,-1.2566986083984375,0.04571533203125
0.2932281494140625,-1.32171630859375,0.0309600830078125
0.3223876953125,-1.3223876953125,0.0096588134765625
0.3352203369140625,-1.0478363037109375,-0.077789306640625
0.1723785400390625,-0.715545654296875,-0.0883636474609375
0.12420654296875,-0.6458587646484375,-0.0931243896484375
0.2850494384765625,-0.8105010986328125,-0.074188232421875
0.287567138671875,-0.8122100830078125,0.0471038818359375
0.2977752685546875,-0.932952880859375,0.112457275390625
0.224609375,-1.1504364013671875,0.181182861328125
0.17645263671875,-1.1591796875,0.1271514892578125
0.3273162841796875,-1.1466064453125,-0.1097564697265625
0.2721405029296875,-1.131622314453125,-0.194976806640625
0.2891998291015625,-0.9882354736328124,-0.3441162109375
0.2878570556640625,-0.8914794921875,-0.3914337158203125
0.2010498046875,-0.945465087890625,-0.2587432861328125
0.11346435546875,-1.0050048828125,-0.155364990234375
0.0529022216796875,-0.91033935546875,-0.2046051025390625
0.105072021484375,-0.7574920654296875,-0.2831268310546875
0.0318145751953125,-0.7220458984375,-0.232757568359375
0.0764923095703125,-0.7942352294921875,-0.236602783203125
0.1256103515625,-0.856201171875,-0.28216552734375
0.1695709228515625,-0.8557891845703125,-0.3461456298828125
0.2190704345703125,-0.917449951171875,-0.376007080078125
0.3144683837890625,-1.112152099609375,-0.4809112548828125
0.28631591796875,-1.2180938720703125,-0.52001953125
0.2494659423828125,-1.2653350830078125,-0.480987548828125
0.2377166748046875,-1.3266448974609375,-0.32415771484375
0.1597137451171875,-1.3132171630859375,-0.1657562255859375
0.2232513427734375,-1.3323974609375,-0.1279296875
0.3094482421875,-1.2810516357421875,-0.17181396484375
0.2747955322265625,-0.98394775390625,-0.1930084228515625
0.19244384765625,-0.791290283203125,-0.1698760986328125
0.1884613037109375,-0.747039794921875,-0.13665771484375
0.2296905517578125,-0.7194976806640625,-0.0831146240234375
0.262908935546875,-0.7273101806640625,-0.0432891845703125
0.244293212890625,-0.7757720947265625,-0.0067138671875
0.2237548828125,-0.94140625,0.0431365966796875
0.2793426513671875,-1.2863006591796875,0.0941009521484375
0.1649017333984375,-1.05364990234375,0.050201416015625
0.1354522705078125,-1.23773193359375,-0.05157470703125
0.2737884521484375,-1.09832763671875,-0.2531890869140625
0.2418670654296875,-0.9292144775390624,-0.3519439697265625
0.1442413330078125,-1.0678863525390625,-0.276611328125
0.01751708984375,-1.175811767578125,-0.110748291015625
-0.0732421875,-1.061920166015625,-0.0839385986328125
-0.0863494873046875,-0.8873291015625,-0.2404937744140625
0.105865478515625,-0.84478759765625,-0.3453369140625
0.1072235107421875,-0.7739410400390625,-0.376129150390625
0.1574554443359375,-0.777191162109375,-0.3653411865234375
0.2413787841796875,-0.835113525390625,-0.461883544921875
0.2935333251953125,-0.958648681640625,-0.6426849365234375
0.3381195068359375,-1.2398223876953125,-0.7574615478515625
0.162322998046875,-1.220977783203125,-0.5573272705078125
0.139801025390625,-1.45574951171875,-0.43280029296875
0.0133514404296875,-1.293609619140625,-0.328582763671875
-0.0064544677734375,-1.097625732421875,-0.2141571044921875
0.0808258056640625,-1.3697509765625,-0.140045166015625
0.17474365234375,-1.582611083984375,-0.032440185546875
0.2849273681640625,-1.307220458984375,-0.056884765625
0.295654296875,-0.9848175048828124,-0.115814208984375
0.2542724609375,-0.856597900390625,-0.1480255126953125
0.1973114013671875,-0.8339996337890625,-0.0915679931640625
0.2967987060546875,-0.76092529296875,-0.0524749755859375
0.2641754150390625,-0.7108154296875,-0.004547119140625
0.251495361328125,-0.72711181640625,0.0076446533203125
0.2225341796875,-0.7962646484375,-0.011444091796875
0.2877960205078125,-0.788848876953125,-0.0867767333984375
0.3517303466796875,-0.8947296142578125,-0.231781005859375
0.354248046875,-0.969390869140625,-0.3563232421875
0.300506591796875,-0.930572509765625,-0.48297119140625
0.1252593994140625,-0.9975738525390624,-0.3776702880859375
0.040557861328125,-1.23284912109375,-0.2171478271484375
0.1303863525390625,-1.360321044921875,-0.298675537109375
0.077301025390625,-1.203094482421875,-0.426605224609375
0.06512451171875,-0.9165496826171876,-0.423980712890625
-0.0079193115234375,-0.8461151123046875,-0.3560943603515625
-0.0290374755859375,-0.8404541015625,-0.372039794921875
0.0347900390625,-0.80413818359375,-0.3515625
0.1475982666015625,-0.789306640625,-0.36859130859375
0.3240814208984375,-1.0253753662109375,-0.5107574462890625
0.4212493896484375,-1.1731719970703125,-0.6478424072265625
0.28253173828125,-1.3658905029296875,-0.4731903076171875
0.241302490234375,-1.4932708740234375,-0.444671630859375
-0.002349853515625,-1.280120849609375,-0.123199462890625
-0.043670654296875,-1.1631927490234375,-0.035247802734375
0.1002044677734375,-1.44183349609375,0.06951904296875
0.2438201904296875,-1.2871551513671875,0.102752685546875
0.45489501953125,-0.9480133056640624,-0.11126708984375
0.37982177734375,-0.8749542236328125,-0.1919403076171875
0.23358154296875,-0.8206329345703125,-0.1417999267578125
0.2508697509765625,-0.7866668701171875,-0.032257080078125
0.2720794677734375,-0.8255462646484375,0.0557861328125
0.260498046875,-0.879608154296875,0.1114044189453125
0.2618560791015625,-1.0102081298828125,0.0926666259765625
0.2730865478515625,-1.0384063720703125,-0.0195770263671875
0.3279571533203125,-1.2205047607421875,-0.10211181640625
0.351715087890625,-1.027191162109375,-0.2829437255859375
0.324310302734375,-0.682220458984375,-0.54931640625
0.337493896484375,-0.8463287353515625,-0.5108489990234375
0.4213409423828125,-1.081939697265625,-0.4508819580078125
0.245574951171875,-1.1171722412109375,-0.1793365478515625
-0.099761962890625,-0.9432373046875,-0.1095733642578125
-0.23748779296875,-0.8469696044921875,-0.23004150390625
-0.2239532470703125,-0.7242584228515625,-0.3498382568359375
0.0596923828125,-0.670074462890625,-0.5489959716796875
0.674102783203125,-0.754638671875,-0.5866851806640625
-0.0453033447265625,-0.9776153564453124,-0.3607940673828125
-0.192718505859375,-1.0159912109375,-0.443359375
-0.0504608154296875,-1.00518798828125,-0.5159912109375
0.2017059326171875,-1.2153778076171875,-0.5631256103515625
0.432647705078125,-1.1309814453125,-0.5464935302734375
0.28070068359375,-1.1019134521484375,-0.429656982421875
0.4058990478515625,-1.3827667236328125,-0.40093994140625
0.50640869140625,-1.493377685546875,-0.4024658203125
0.454986572265625,-1.1698760986328125,-0.2690887451171875
0.1720123291015625,-0.8514862060546875,-0.1940155029296875
0.172576904296875,-0.661651611328125,-0.11883544921875
0.2289886474609375,-0.5709686279296875,-0.058868408203125
0.38031005859375,-0.594970703125,-0.1433868408203125
0.467376708984375,-0.656097412109375,-0.1728363037109375
0.457916259765625,-0.798004150390625,-0.1886444091796875
0.325103759765625,-0.9686737060546876,-0.1326904296875
0.17510986328125,-0.954833984375,-0.140655517578125
0.3149871826171875,-1.2067413330078125,-0.33880615234375
0.3293304443359375,-1.1089324951171875,-0.5414581298828125
0.220703125,-0.94781494140625,-0.573455810546875
0.2068023681640625,-0.948944091796875,-0.4617767333984375
0.04296875,-0.9194793701171876,-0.2536163330078125
-0.03662109375,-0.839111328125,-0.195831298828125
0.0308380126953125,-0.741363525390625,-0.2578277587890625
0.03173828125,-0.75225830078125,-0.3045654296875
0.046051025390625,-0.8302764892578125,-0.2691802978515625
0.0242462158203125,-0.805999755859375,-0.2720794677734375
0.007843017578125,-0.854644775390625,-0.311431884765625
0.1179656982421875,-1.1338348388671875,-0.3793487548828125
0.2045440673828125,-1.263763427734375,-0.48614501953125
0.0648345947265625,-1.2532958984375,-0.4394073486328125
0.20806884765625,-1.32855224609375,-0.4733123779296875
0.2997589111328125,-1.06829833984375,-0.46051025390625
0.3000946044921875,-1.13848876953125,-0.294189453125
0.3885345458984375,-1.278106689453125,-0.260223388671875
0.3016815185546875,-1.250732421875,-0.179290771484375
0.18682861328125,-0.95281982421875,-0.147003173828125
0.11114501953125,-0.7700042724609375,-0.14013671875
0.1275177001953125,-0.746978759765625,-0.113616943359375
0.19964599609375,-0.7645263671875,-0.08685302734375
0.2736663818359375,-0.8001251220703125,-0.1087646484375
0.22454833984375,-0.8067474365234375,-0.03643798828125
0.23101806640625,-1.0262451171875,0.0149078369140625
0.244232177734375,-1.1444091796875,0.0034942626953125
0.3249969482421875,-1.049896240234375,-0.1533966064453125
0.317230224609375,-1.1113739013671875,-0.2557220458984375
0.2464447021484375,-0.8985137939453125,-0.31109619140625
0.243072509765625,-0.9412689208984376,-0.301605224609375
0.2405242919921875,-0.962615966796875,-0.319610595703125
0.2409210205078125,-0.9288177490234376,-0.3003082275390625
0.1387939453125,-0.7371826171875,-0.237213134765625
0.0559539794921875,-0.652496337890625,-0.1956787109375
0.0956268310546875,-0.7799530029296875,-0.24200439453125
0.1106414794921875,-0.8921966552734375,-0.2835693359375
0.17144775390625,-0.998321533203125,-0.3615264892578125
0.1464385986328125,-1.0231170654296875,-0.340972900390625
0.24017333984375,-1.26373291015625,-0.4557952880859375
0.2336578369140625,-1.2509918212890625,-0.5375823974609375
0.20941162109375,-1.329010009765625,-0.4720306396484375
0.1801605224609375,-1.1693572998046875,-0.5225067138671875
0.152587890625,-1.1681976318359375,-0.3591766357421875
0.1887359619140625,-1.263153076171875,-0.2702484130859375
0.231170654296875,-1.3095855712890625,-0.2423858642578125
0.194305419921875,-1.1295318603515625,-0.1924285888671875
0.127166748046875,-0.891815185546875,-0.1767425537109375
0.1429595947265625,-0.7637939453125,-0.1963043212890625
0.1704864501953125,-0.708770751953125,-0.164398193359375
0.2076873779296875,-0.6980133056640625,-0.131103515625
0.2300262451171875,-0.7710418701171875,-0.0746612548828125
0.195953369140625,-1.07635498046875,0.035308837890625
0.217041015625,-1.236297607421875,0.06610107421875
0.2813873291015625,-1.0969696044921875,-0.0845184326171875
0.300140380859375,-1.2510986328125,-0.144378662109375
0.1970062255859375,-0.945892333984375,-0.1411895751953125
0.169158935546875,-0.7836151123046875,-0.250457763671875
0.2137298583984375,-0.9837799072265624,-0.3354034423828125
0.1984100341796875,-1.0807647705078125,-0.2434844970703125
0.15826416015625,-0.9362945556640624,-0.1774444580078125
-0.01202392578125,-0.779144287109375,-0.16119384765625
-0.08831787109375,-0.7469329833984375,-0.181243896484375
-0.00433349609375,-0.79443359375,-0.20074462890625
0.089691162109375,-0.8710174560546875,-0.2628631591796875
0.2159881591796875,-0.9337005615234376,-0.35784912109375
0.279541015625,-1.1411285400390625,-0.46783447265625
0.2626953125,-1.254058837890625,-0.551300048828125
0.129241943359375,-1.1737213134765625,-0.43255615234375
0.0786895751953125,-1.26519775390625,-0.4125823974609375
0.12420654296875,-1.1884307861328125,-0.3871917724609375
0.1222991943359375,-1.1824188232421875,-0.225677490234375
0.2274169921875,-1.28533935546875,-0.2679290771484375
0.2262420654296875,-1.2678985595703125,-0.2539215087890625
0.1389617919921875,-1.0227508544921875,-0.170806884765625
0.1288909912109375,-0.8257904052734375,-0.1404266357421875
0.1425628662109375,-0.7543182373046875,-0.13812255859375
0.1742401123046875,-0.729095458984375,-0.1035308837890625
0.2205963134765625,-0.75439453125,-0.086090087890625
0.230743408203125,-0.7889556884765625,-0.047515869140625
0.2280426025390625,-0.9598388671875,-0.0205841064453125
0.2840728759765625,-1.05810546875,-0.0376434326171875
0.2877044677734375,-1.030426025390625,-0.16778564453125
0.29095458984375,-1.286376953125,-0.2040252685546875
0.257354736328125,-1.1781768798828125,-0.276885986328125
0.175750732421875,-0.9730072021484376,-0.3817901611328125
0.1556549072265625,-0.9979095458984376,-0.3034515380859375
0.1765289306640625,-0.960968017578125,-0.2266693115234375
0.0609588623046875,-0.7691192626953125,-0.010894775390625
-0.02740478515625,-0.6237640380859375,-0.309356689453125
0.0610504150390625,-0.66619873046875,-0.1865386962890625
-0.1113433837890625,-0.765045166015625,-0.2534332275390625
0.08843994140625,-0.9222259521484376,-0.32037353515625
0.2024078369140625,-0.984588623046875,-0.43609619140625
0.2599639892578125,-1.308563232421875,-0.525238037109375
0.269500732421875,-1.277984619140625,-0.572418212890625
0.1756744384765625,-1.3970947265625,-0.5574798583984375
0.13702392578125,-1.3144378662109375,-0.5617523193359375
-0.035125732421875,-1.0233306884765625,-0.319488525390625
0.047760009765625,-1.0810394287109375,-0.2396087646484375
0.14544677734375,-1.3717193603515625,-0.2154541015625
0.255340576171875,-1.4052276611328125,-0.2183685302734375
0.22210693359375,-1.0528717041015625,-0.243621826171875
0.1491851806640625,-0.8696136474609375,-0.2327728271484375
0.13372802734375,-0.73431396484375,-0.1837005615234375
0.2075347900390625,-0.701507568359375,-0.14678955078125
0.228668212890625,-0.63494873046875,-0.09271240234375
0.2276153564453125,-0.641387939453125,-0.086517333984375
0.217620849609375,-0.7166748046875,-0.0928802490234375
0.2760772705078125,-0.7974090576171875,-0.124267578125
0.3396453857421875,-0.8916778564453125,-0.2281646728515625
0.327545166015625,-1.1179351806640625,-0.289794921875
0.2966461181640625,-1.271453857421875,-0.33740234375
0.2224578857421875,-1.272796630859375,-0.41607666015625
0.080413818359375,-1.3126983642578125,-0.292388916015625
0.050567626953125,-1.200408935546875,-0.2783660888671875
-0.0797271728515625,-0.8598785400390625,-0.2214813232421875
-0.066741943359375,-0.6507415771484375,-0.2100982666015625
0.0105438232421875,-0.6934051513671875,-0.2145843505859375
0.07379150390625,-0.748992919921875,-0.24859619140625
0.2381744384765625,-0.7279052734375,-0.327789306640625
0.357208251953125,-0.8192901611328125,-0.366668701171875
0.3983612060546875,-1.1361541748046875,-0.421661376953125
0.3244476318359375,-1.185760498046875,-0.450164794921875
0.280364990234375,-1.4463958740234375,-0.4175262451171875
0.25067138671875,-1.1371002197265625,-0.5420074462890625
0.08819580078125,-1.1633758544921875,-0.4473876953125
0.1351776123046875,-1.5539703369140625,-0.297454833984375
0.0858917236328125,-1.69677734375,-0.1366424560546875
0.100372314453125,-1.26806640625,-0.2015228271484375
0.0933380126953125,-0.9478759765625,-0.232269287109375
0.10107421875,-0.6689300537109375,-0.25396728515625
0.212188720703125,-0.594207763671875,-0.3156890869140625
0.21551513671875,-0.567840576171875,-0.199310302734375
0.2218170166015625,-0.5201873779296875,-0.1501007080078125
0.2279052734375,-0.56268310546875,-0.14398193359375
0.220123291015625,-0.6200103759765625,-0.1682891845703125
0.25714111328125,-0.6504974365234375,-0.1875457763671875
0.2993316650390625,-0.9644317626953124,-0.2879791259765625
0.41064453125,-1.76409912109375,-0.4691162109375
0.3755645751953125,-1.551544189453125,-0.4083709716796875
0.096343994140625,-1.2510986328125,-0.2739410400390625
-0.127655029296875,-1.3734588623046875,-0.1945648193359375
-0.0907440185546875,-1.1567535400390625,-0.1541900634765625
0.0777130126953125,-0.8251495361328125,-0.144500732421875
0.10693359375,-0.72235107421875,-0.1416015625
0.1781158447265625,-0.72479248046875,-0.1632537841796875
0.3417816162109375,-0.6814117431640625,-0.2317657470703125
0.3756103515625,-0.6657257080078125,-0.2583770751953125
0.350860595703125,-0.77703857421875,-0.24432373046875
0.37689208984375,-1.148681640625,-0.2695770263671875
0.375274658203125,-1.240692138671875,-0.3683624267578125
0.2836151123046875,-1.374114990234375,-0.4998626708984375
0.215972900390625,-1.2346649169921875,-0.704254150390625
0.03717041015625,-1.097564697265625,-0.4450531005859375
0.0247802734375,-1.3491668701171875,-0.266998291015625
0.0351409912109375,-1.5047760009765625,-0.2253265380859375
-0.032989501953125,-1.2254180908203125,-0.230560302734375
-0.0241851806640625,-0.9191436767578124,-0.3347625732421875
0.0746612548828125,-0.7027130126953125,-0.370025634765625
0.2036285400390625,-0.6225128173828125,-0.3830108642578125
0.236175537109375,-0.56353759765625,-0.33172607421875
0.1739044189453125,-0.582427978515625,-0.2161102294921875
0.1597442626953125,-0.5800323486328125,-0.161590576171875
0.189788818359375,-0.73162841796875,-0.168243408203125
0.284332275390625,-1.0039520263671875,-0.1950836181640625
0.3686370849609375,-1.490447998046875,-0.211395263671875
0.40325927734375,-1.613861083984375,-0.2076873779296875
0.2411956787109375,-1.2062835693359375,-0.3472442626953125
-0.0174407958984375,-1.1702880859375,-0.3159027099609375
-0.0525970458984375,-1.1171417236328125,-0.16357421875
-0.002044677734375,-0.88153076171875,-0.1228179931640625
0.011810302734375,-0.6510772705078125,-0.1316986083984375
0.1385955810546875,-0.6400299072265625,-0.2091522216796875
0.198822021484375,-0.690185546875,-0.261871337890625
0.2747650146484375,-0.766815185546875,-0.291717529296875
0.3222503662109375,-0.824859619140625,-0.32330322265625
0.3058013916015625,-1.0225677490234375,-0.3031463623046875
0.35931396484375,-1.3180084228515625,-0.4161224365234375
0.346466064453125,-1.417999267578125,-0.4738006591796875
0.3494873046875,-1.3455352783203125,-0.6087188720703125
0.1938629150390625,-1.0991058349609375,-0.5491180419921875
0.0780181884765625,-1.1661529541015625,-0.3597564697265625
0.00250244140625,-1.4495391845703125,-0.1096038818359375
-0.0069580078125,-1.2733612060546875,-0.01434326171875
0.012054443359375,-0.9941253662109376,-0.0762176513671875
0.0280914306640625,-0.8191680908203125,-0.1701507568359375
0.17401123046875,-0.7503814697265625,-0.2552032470703125
0.3356475830078125,-0.6429443359375,-0.2844085693359375
0.28399658203125,-0.589447021484375,-0.1897430419921875
0.2545013427734375,-0.620880126953125,-0.0991973876953125
0.265167236328125,-0.7199249267578125,-0.0704803466796875
0.289764404296875,-0.866485595703125,-0.123748779296875
0.298492431640625,-1.0326690673828125,-0.3252716064453125
0.3065643310546875,-1.4152984619140625,-0.366973876953125
0.2041778564453125,-1.322998046875,-0.2962646484375
0.1040802001953125,-1.2742462158203125,-0.184112548828125
0.0016632080078125,-1.1879425048828125,-0.1015167236328125
0.02777099609375,-1.0647125244140625,-0.123870849609375
0.0446319580078125,-0.829315185546875,-0.2241058349609375
0.06072998046875,-0.6694488525390625,-0.35382080078125
0.110137939453125,-0.7664031982421875,-0.345703125
0.17132568359375,-0.8197479248046875,-0.372100830078125
0.210296630859375,-0.83465576171875,-0.37542724609375
0.238067626953125,-0.8970489501953125,-0.3413238525390625
0.3008270263671875,-1.1446533203125,-0.385955810546875
0.32147216796875,-1.193634033203125,-0.3753814697265625
0.327484130859375,-1.364501953125,-0.35870361328125
0.2194976806640625,-1.10205078125,-0.5497283935546875
0.1389312744140625,-1.023590087890625,-0.459808349609375
0.2394866943359375,-1.406585693359375,-0.269989013671875
0.242034912109375,-1.5769500732421875,-0.0973358154296875
0.1237945556640625,-1.388519287109375,-0.092041015625
0.0232696533203125,-1.0128173828125,-0.124542236328125
0.160064697265625,-0.774749755859375,-0.315704345703125
0.3333587646484375,-0.8488006591796875,-0.3768157958984375
0.262969970703125,-0.7460784912109375,-0.217071533203125
0.3935699462890625,-0.6834869384765625,-0.13629150390625
0.275421142578125,-0.68524169921875,-0.10015869140625
0.259521484375,-0.7051239013671875,-0.198516845703125
0.2268218994140625,-0.692230224609375,-0.30487060546875
0.146026611328125,-0.7699432373046875,-0.3972930908203125
0.155059814453125,-0.902679443359375,-0.4213714599609375
0.1317596435546875,-0.965118408203125,-0.3397674560546875
0.093536376953125,-1.0530548095703125,-0.3131256103515625
0.06500244140625,-1.2493896484375,-0.31549072265625
0.02398681640625,-1.2949371337890625,-0.3451385498046875
0.0792694091796875,-1.0426788330078125,-0.377105712890625
0.136474609375,-0.8276824951171875,-0.30267333984375
0.119476318359375,-0.8584442138671875,-0.236114501953125
0.140167236328125,-0.9739990234375,-0.2494049072265625
0.1868438720703125,-0.9250640869140624,-0.2872772216796875
0.260406494140625,-0.9941253662109376,-0.371246337890625
0.3336334228515625,-1.126708984375,-0.494781494140625
0.3487548828125,-1.179595947265625,-0.5125579833984375
0.40716552734375,-1.6011505126953125,-0.5679779052734375
0.244598388671875,-1.4165191650390625,-0.35498046875
0.0397491455078125,-1.1428375244140625,-0.2624664306640625
0.060546875,-1.3664703369140625,-0.1534576416015625
0.059539794921875,-1.2217864990234375,-0.0990142822265625
0.1067657470703125,-0.926910400390625,-0.1354217529296875
0.160888671875,-0.7925872802734375,-0.1971435546875
0.20330810546875,-0.7722015380859375,-0.218109130859375
0.2702178955078125,-0.7244415283203125,-0.2091827392578125
0.3183746337890625,-0.7518768310546875,-0.1294097900390625
0.25946044921875,-0.7483978271484375,-0.039794921875
0.2533721923828125,-0.8549041748046875,-0.0130462646484375
0.2876434326171875,-0.9040069580078124,-0.07061767578125
0.3115234375,-1.035888671875,-0.2011260986328125
0.32891845703125,-1.15911865234375,-0.3191375732421875
0.2136383056640625,-1.13330078125,-0.3951568603515625
0.128875732421875,-1.0949554443359375,-0.3909912109375
0.0731964111328125,-1.139617919921875,-0.3069000244140625
0.033782958984375,-1.08917236328125,-0.220306396484375
-0.0210113525390625,-0.8169403076171875,-0.2568206787109375
-0.0641632080078125,-0.6290435791015625,-0.2527618408203125
0.009918212890625,-0.6325836181640625,-0.2636260986328125
0.0889739990234375,-0.694091796875,-0.3531646728515625
0.1463165283203125,-0.7879638671875,-0.3936004638671875
0.2444915771484375,-0.87164306640625,-0.4452972412109375
0.33551025390625,-1.1257476806640625,-0.5310821533203125
0.354949951171875,-1.2463226318359375,-0.6497344970703125
0.271697998046875,-1.47796630859375,-0.535919189453125
0.2433319091796875,-1.5512847900390625,-0.5013275146484375
0.0069732666015625,-1.1536407470703125,-0.2114105224609375
0.0137939453125,-1.264739990234375,-0.16375732421875
0.0403900146484375,-1.390411376953125,-0.082000732421875
0.136627197265625,-1.1558990478515625,-0.1018218994140625
0.248565673828125,-0.8048095703125,-0.2203826904296875
0.23895263671875,-0.676055908203125,-0.25689697265625
0.1939239501953125,-0.5751495361328125,-0.21771240234375
0.23358154296875,-0.54071044921875,-0.152252197265625
0.35626220703125,-0.6026153564453125,-0.1006011962890625
0.3215484619140625,-0.7182464599609375,-0.051422119140625
0.2622222900390625,-0.9586334228515624,-0.0204925537109375
0.183990478515625,-1.1038055419921875,-0.0061798095703125
0.1828460693359375,-1.0357666015625,-0.1295623779296875
0.24603271484375,-1.2743377685546875,-0.2054901123046875
0.2060394287109375,-0.959197998046875,-0.2660675048828125
0.2408294677734375,-1.17218017578125,-0.26434326171875
0.2888336181640625,-1.2780609130859375,-0.3010711669921875
0.19866943359375,-1.1113739013671875,-0.2653656005859375
0.1229705810546875,-0.7880859375,-0.310760498046875
0.030242919921875,-0.6263580322265625,-0.2691802978515625
0.002227783203125,-0.677764892578125,-0.2342529296875
0.0185546875,-0.80889892578125,-0.23126220703125
0.172210693359375,-0.8962554931640625,-0.3078155517578125
0.2407989501953125,-1.081787109375,-0.4490814208984375
0.3208770751953125,-1.3662872314453125,-0.6888427734375
0.19805908203125,-1.21435546875,-0.6276397705078125
0.22015380859375,-1.4605865478515625,-0.617401123046875
0.0355224609375,-1.4034576416015625,-0.345367431640625
0.0012664794921875,-1.219757080078125,-0.1822357177734375
0.08148193359375,-1.446441650390625,-0.116058349609375
0.1078948974609375,-1.40509033203125,-0.0594329833984375
0.1760711669921875,-1.0701446533203125,-0.1212005615234375
0.2091217041015625,-0.8997802734375,-0.1837005615234375
0.2331085205078125,-0.839141845703125,-0.203033447265625
0.2486114501953125,-0.7988128662109375,-0.1369476318359375
0.2722320556640625,-0.726470947265625,-0.0605926513671875
0.272216796875,-0.747894287109375,-0.0032958984375
0.2418060302734375,-0.8183441162109375,0.0377197265625
0.238555908203125,-0.84527587890625,0.04290771484375
0.2544403076171875,-0.7634429931640625,-0.033050537109375
0.3358917236328125,-1.0954437255859375,-0.077362060546875
0.3942718505859375,-1.13262939453125,-0.129547119140625
0.356903076171875,-0.91436767578125,-0.3753509521484375
0.36260986328125,-1.056427001953125,-0.5538482666015625
0.209930419921875,-1.2532196044921875,-0.282440185546875
0.1073760986328125,-1.1039276123046875,-0.0807952880859375
-0.0749664306640625,-0.960296630859375,-0.0472869873046875
-0.0607452392578125,-0.9012298583984376,-0.2117767333984375
-0.0556793212890625,-0.8822174072265625,-0.253753662109375
0.08343505859375,-0.8527984619140625,-0.2667388916015625
0.249542236328125,-0.9526519775390624,-0.3118896484375
0.321044921875,-1.1767120361328125,-0.3800048828125
0.290374755859375,-1.209014892578125,-0.3521575927734375
0.1659088134765625,-1.02130126953125,-0.2686004638671875
0.3040008544921875,-1.234130859375,-0.4113922119140625
-0.02471923828125,-1.1985015869140625,-0.0319671630859375
-0.1520843505859375,-1.2600250244140625,0.3118743896484375
-0.03289794921875,-1.2333221435546875,0.34405517578125
0.1026611328125,-1.049468994140625,0.0790252685546875
-0.0741119384765625,-0.9181671142578124,-0.1197509765625
-0.2434234619140625,-0.8115386962890625,-0.0644989013671875
0.007232666015625,-0.6880340576171875,-0.068267822265625
0.1316070556640625,-0.7890167236328125,-0.1761932373046875
-0.0159912109375,-0.952392578125,-0.054443359375
0.0416412353515625,-0.8485565185546875,-0.0146942138671875
0.1311492919921875,-0.9264678955078124,-0.3267822265625
-0.02032470703125,-0.9353790283203124,-0.5165557861328125
0.3315277099609375,-1.0235748291015625,-0.5612030029296875
0.2133636474609375,-0.5923614501953125,-0.474761962890625
0.3842315673828125,-0.4193878173828125,-0.475372314453125
0.228302001953125,-0.4940185546875,-0.618560791015625
0.0904083251953125,-0.4561767578125,-0.480865478515625
0.2853851318359375,-0.5488433837890625,-0.597442626953125
0.2576141357421875,-0.80682373046875,-0.829193115234375
0.1104736328125,-0.8731536865234375,-0.864654541015625
0.2974853515625,-0.844482421875,-0.9415435791015624
0.123016357421875,-0.80560302734375,-0.9791259765625
0.1797637939453125,-0.7516937255859375,-1.0614471435546875
0.2122802734375,-0.6469573974609375,-0.996124267578125
0.1808013916015625,-0.585906982421875,-0.912322998046875
-0.03533935546875,-0.4521026611328125,-0.6706085205078125
-0.1324310302734375,-0.298065185546875,-0.47845458984375
-0.022064208984375,-0.217620849609375,-0.656402587890625
0.1165618896484375,-0.5339508056640625,-1.0218353271484375
-0.12103271484375,-0.4718170166015625,-0.877655029296875
0.0367279052734375,-0.4167633056640625,-1.0408172607421875
1.01202392578125,0.045257568359375,-1.691864013671875
-0.9889678955078124,0.078216552734375,-0.4946136474609375
0.118804931640625,-0.360443115234375,-1.231414794921875
-0.2011871337890625,-0.398773193359375,-1.0958404541015625
0.060272216796875,-0.381256103515625,-0.9658660888671876
0.3555908203125,-0.472900390625,-1.032470703125
0.100799560546875,-0.4248504638671875,-0.991485595703125
-0.0135040283203125,-0.45538330078125,-0.8546600341796875
0.05792236328125,-0.3884735107421875,-0.8173370361328125
0.0327606201171875,-0.39208984375,-0.90380859375
0.0768890380859375,-0.3455657958984375,-0.9535980224609376
0.0732421875,-0.38116455078125,-1.0269927978515625
0.0759124755859375,-0.3599853515625,-0.996307373046875
0.0421600341796875,-0.3994293212890625,-0.954559326171875
-0.0554962158203125,-0.425445556640625,-0.8703765869140625
0.0203704833984375,-0.39599609375,-0.8187103271484375
0.1042327880859375,-0.435394287109375,-0.9141693115234376
