AccelerationX,AccelerationY,AccelerationZ
0.1236419677734375,-0.0111846923828125,-1.0271148681640625
0.078643798828125,-0.0426177978515625,-0.9667205810546876
0.0335693359375,-0.052093505859375,-0.98504638671875
0.0560455322265625,-0.0499725341796875,-0.935577392578125
-0.0088653564453125,-0.0539093017578125,-0.9349822998046876
-0.0298309326171875,-0.0399627685546875,-0.915283203125
-0.0921173095703125,-0.0345916748046875,-0.8835906982421875
-0.151947021484375,-0.10662841796875,-0.6647491455078125
-0.263763427734375,-0.0092315673828125,-0.666351318359375
-0.236785888671875,-0.1444091796875,-0.8222808837890625
-0.2883758544921875,0.0196380615234375,-0.6513824462890625
-0.3437347412109375,0.0854644775390625,-0.4454803466796875
-0.631683349609375,0.090423583984375,-0.2175750732421875
-0.8591766357421875,0.0845794677734375,-0.2403411865234375
-1.0576171875,0.1631317138671875,-0.51080322265625
-1.1337890625,0.253173828125,-0.4383392333984375
-1.19085693359375,0.26995849609375,-0.2005462646484375
-1.2864532470703125,0.3538055419921875,-0.21295166015625
-1.2726898193359375,0.42681884765625,-0.41009521484375
-1.3408203125,0.4521942138671875,-0.3961334228515625
-1.2804107666015625,0.4160919189453125,-0.282257080078125
-1.2124786376953125,0.3950042724609375,-0.2746124267578125
-1.125244140625,0.3438873291015625,-0.2429962158203125
-1.0879974365234375,0.3158721923828125,-0.16448974609375
-1.040679931640625,0.287689208984375,-0.105621337890625
-1.0158233642578125,0.29754638671875,-0.0538177490234375
-0.990234375,0.3078155517578125,-0.0317535400390625
-1.0246124267578125,0.3468475341796875,-0.0282745361328125
-1.0598907470703125,0.3932342529296875,-0.059814453125
-1.0647430419921875,0.4925537109375,-0.059967041015625
-1.0940704345703125,0.6044921875,-0.0893096923828125
-0.8747406005859375,0.5184783935546875,-0.0548553466796875
-0.83154296875,0.462127685546875,-0.05926513671875
-0.962799072265625,0.509429931640625,-0.12188720703125
-1.008575439453125,0.5863037109375,-0.0912628173828125
-0.83099365234375,0.522705078125,-0.014739990234375
-0.9400177001953124,0.4232025146484375,-0.0279693603515625
-1.0317230224609375,0.463623046875,0.0233612060546875
-0.9404754638671876,0.5034942626953125,0.0483856201171875
-0.8523406982421875,0.5433197021484375,0.032012939453125
-0.778472900390625,0.509521484375,-0.009246826171875
-0.7336578369140625,0.4773101806640625,-0.0091705322265625
-0.728179931640625,0.516632080078125,0.07501220703125
-0.661895751953125,0.5699920654296875,0.1730194091796875
-0.6321868896484375,0.5389862060546875,0.217559814453125
-0.744781494140625,0.5467529296875,0.2258758544921875
-0.8405609130859375,0.695953369140625,0.312744140625
-0.8698577880859375,0.7160491943359375,0.305877685546875
-0.85400390625,0.495208740234375,0.1962432861328125
-0.97283935546875,0.503814697265625,0.187652587890625
-1.0190887451171875,0.5845794677734375,0.1308746337890625
-0.9932098388671876,0.5804290771484375,0.0496978759765625
-0.8603363037109375,0.429656982421875,-0.0108795166015625
-0.8258056640625,0.4343414306640625,0.0116119384765625
-0.77044677734375,0.444915771484375,0.0442657470703125
-0.745086669921875,0.44708251953125,0.0930328369140625
-0.774017333984375,0.4260101318359375,0.1565704345703125
-0.82513427734375,0.4582366943359375,0.2596435546875
-0.925689697265625,0.5044708251953125,0.3092041015625
-1.0494384765625,0.56744384765625,0.300506591796875
-1.054290771484375,0.5420074462890625,0.2762298583984375
-1.132476806640625,0.61102294921875,0.24017333984375
-1.1303558349609375,0.69769287109375,0.1873931884765625
-1.05792236328125,0.740509033203125,0.1415252685546875
-0.8785858154296875,0.5252838134765625,0.080169677734375
-0.90380859375,0.6017303466796875,0.14892578125
-0.8477630615234375,0.6863250732421875,0.1123199462890625
-0.6962127685546875,0.6397705078125,0.06219482421875
-0.6301727294921875,0.517822265625,0.100555419921875
-0.68817138671875,0.4945526123046875,0.1787261962890625
-0.6824493408203125,0.504730224609375,0.1722412109375
-0.62652587890625,0.517608642578125,0.132293701171875
-0.6328125,0.5234375,0.1314544677734375
-0.6662445068359375,0.552337646484375,0.1443634033203125
-0.7501678466796875,0.657684326171875,0.1473846435546875
-0.78717041015625,0.661224365234375,0.143310546875
-0.8400115966796875,0.575897216796875,0.153533935546875
-0.9796600341796876,0.6663818359375,0.2382354736328125
-0.9096221923828124,0.6073455810546875,0.190704345703125
-0.843841552734375,0.44891357421875,0.183013916015625
-0.9654083251953124,0.487640380859375,0.224212646484375
-1.0499725341796875,0.51495361328125,0.133056640625
-1.017242431640625,0.4261627197265625,0.06463623046875
-0.9294586181640624,0.3227081298828125,0.03900146484375
-0.926025390625,0.3571929931640625,0.098968505859375
-0.96112060546875,0.41815185546875,0.12548828125
-0.9157257080078124,0.429168701171875,0.1831207275390625
-0.887115478515625,0.4368133544921875,0.1763153076171875
-0.9575958251953124,0.4962158203125,0.094879150390625
-1.0110931396484375,0.557037353515625,0.040802001953125
-1.0154266357421875,0.5387725830078125,0.0185699462890625
-1.0465850830078125,0.572998046875,-0.033050537109375
-1.0786285400390625,0.65777587890625,-0.0940704345703125
-1.03973388671875,0.635498046875,-0.1060333251953125
-0.89154052734375,0.45550537109375,-0.0242767333984375
-0.8822021484375,0.4257965087890625,0.0696258544921875
-0.9403228759765624,0.5834808349609375,0.1042327880859375
-0.8289947509765625,0.612030029296875,0.0504150390625
-0.6583251953125,0.4381103515625,-0.00323486328125
-0.72332763671875,0.4140472412109375,0.0218963623046875
-0.6917724609375,0.431854248046875,0.0535430908203125
-0.66278076171875,0.460235595703125,0.0866241455078125
-0.6331939697265625,0.4829254150390625,0.12371826171875
-0.713043212890625,0.5563507080078125,0.1581268310546875
-0.8442535400390625,0.6596221923828125,0.2191925048828125
-0.8672943115234375,0.6861572265625,0.247467041015625
-0.825164794921875,0.5909271240234375,0.1752777099609375
-0.9682159423828124,0.6080169677734375,0.14935302734375
-1.0336151123046875,0.7116851806640625,0.1646728515625
-0.7941436767578125,0.4140472412109375,0.1287841796875
-0.8912353515625,0.44769287109375,0.17291259765625
-1.0602264404296875,0.5501708984375,0.1722869873046875
-1.0078125,0.45367431640625,0.1350860595703125
-0.88507080078125,0.29730224609375,0.1064605712890625
-0.8870391845703125,0.3515777587890625,0.068359375
-0.8058624267578125,0.445556640625,0.0647125244140625
-0.73309326171875,0.4501190185546875,0.0370635986328125
-0.7432708740234375,0.4589691162109375,0.0587005615234375
-0.86541748046875,0.521148681640625,0.1056060791015625
-0.9868316650390624,0.5741119384765625,0.1129150390625
-1.0475006103515625,0.5850067138671875,0.10919189453125
-1.0516357421875,0.5264434814453125,0.130096435546875
-1.158050537109375,0.62249755859375,0.15167236328125
-1.1164703369140625,0.70794677734375,0.0792999267578125
-0.917327880859375,0.5389556884765625,0.0155181884765625
-1.0231781005859375,0.6083831787109375,0.035430908203125
-1.02337646484375,0.6749114990234375,0.0288848876953125
-0.87017822265625,0.6110076904296875,0.01885986328125
-0.765167236328125,0.533935546875,0.047027587890625
-0.7439422607421875,0.5339508056640625,0.060333251953125
-0.669708251953125,0.54364013671875,0.0370330810546875
-0.5826568603515625,0.51824951171875,0.0280914306640625
-0.544891357421875,0.493133544921875,0.0269775390625
-0.578521728515625,0.5095977783203125,0.05419921875
-0.69317626953125,0.6009063720703125,0.12030029296875
-0.7715606689453125,0.65087890625,0.1574249267578125
-0.8799896240234375,0.6089324951171875,0.145538330078125
-1.0876617431640625,0.816802978515625,0.207855224609375
-0.914703369140625,0.6411895751953125,0.038909912109375
-0.8705291748046875,0.4955596923828125,0.013092041015625
-1.02679443359375,0.556121826171875,0.07763671875
-1.0117340087890625,0.5285186767578125,0.15447998046875
-0.8852386474609375,0.3751678466796875,0.136627197265625
-0.85748291015625,0.38116455078125,0.138031005859375
-0.83245849609375,0.4412841796875,0.076690673828125
-0.767608642578125,0.4553680419921875,0.0547637939453125
-0.7371063232421875,0.4246063232421875,0.0697021484375
-0.813690185546875,0.453704833984375,0.1293487548828125
-0.9504547119140624,0.5238494873046875,0.1869964599609375
-1.056732177734375,0.5532989501953125,0.1935882568359375
-1.0655059814453125,0.4763641357421875,0.18743896484375
-1.2084503173828125,0.602752685546875,0.1869049072265625
-1.10516357421875,0.6538543701171875,0.14471435546875
-0.891265869140625,0.5013275146484375,0.084259033203125
-1.0493927001953125,0.6229095458984375,0.07269287109375
-1.041046142578125,0.6981353759765625,0.0546112060546875
-0.91046142578125,0.678680419921875,0.042266845703125
-0.7855987548828125,0.5635833740234375,0.0133514404296875
-0.762481689453125,0.5425262451171875,0.072723388671875
-0.6837158203125,0.5420379638671875,0.1058197021484375
-0.5873870849609375,0.5103607177734375,0.06988525390625
-0.55511474609375,0.5012969970703125,0.0349273681640625
-0.5513763427734375,0.5204315185546875,0.0644378662109375
-0.5626220703125,0.5359344482421875,0.1076507568359375
-0.679779052734375,0.639617919921875,0.1423187255859375
-0.7927093505859375,0.6566619873046875,0.1438446044921875
-1.071197509765625,0.8419036865234375,0.1678619384765625
-1.1359710693359375,0.8644866943359375,0.0560302734375
-0.9152679443359376,0.4803314208984375,-0.0526275634765625
-1.0234375,0.44580078125,0.10516357421875
-1.0552825927734375,0.484039306640625,0.217498779296875
-1.02435302734375,0.5220794677734375,0.154327392578125
-0.897064208984375,0.410675048828125,0.0355224609375
-0.83294677734375,0.3681793212890625,-0.0560302734375
-0.8943939208984375,0.3780059814453125,-0.2065277099609375
-1.006561279296875,0.3896026611328125,-0.122100830078125
-0.9322662353515624,0.3139190673828125,0.0293731689453125
-0.9416046142578124,0.4310455322265625,-0.0078125
-1.0239105224609375,0.639068603515625,-0.0796966552734375
-1.050506591796875,0.73974609375,-0.1248931884765625
-1.003143310546875,0.7489471435546875,-0.138580322265625
-0.9317779541015624,0.764251708984375,-0.0744171142578125
-0.9478607177734376,0.8180389404296875,-0.038604736328125
-0.8869476318359375,0.7543792724609375,-0.0400848388671875
-0.7881011962890625,0.58917236328125,0.0238189697265625
-0.8468475341796875,0.61773681640625,0.131134033203125
-0.820404052734375,0.6388092041015625,0.1222686767578125
-0.6706390380859375,0.51080322265625,0.0500640869140625
-0.6309814453125,0.451873779296875,0.0467987060546875
-0.636871337890625,0.4643096923828125,0.0787353515625
-0.595306396484375,0.463470458984375,0.0820465087890625
-0.57293701171875,0.5119781494140625,0.1131439208984375
-0.5438995361328125,0.5463714599609375,0.1605377197265625
-0.57275390625,0.571380615234375,0.2177734375
-0.7321319580078125,0.695526123046875,0.258544921875
-0.8453521728515625,0.7595672607421875,0.156646728515625
-0.9790496826171876,0.754730224609375,0.0547943115234375
-1.1901397705078125,0.8619232177734375,0.069305419921875
-1.039703369140625,0.6697540283203125,0.0526123046875
-0.9415130615234376,0.4456024169921875,0.0298004150390625
-1.0319366455078125,0.5140533447265625,0.1431732177734375
-0.9603118896484376,0.50250244140625,0.156005859375
-0.8833770751953125,0.426055908203125,0.0598297119140625
-0.8127899169921875,0.391357421875,0.029144287109375
-0.8095245361328125,0.42657470703125,-0.019378662109375
-0.8115692138671875,0.435760498046875,-0.0484619140625
-0.82904052734375,0.445556640625,-0.0401611328125
-0.96661376953125,0.534027099609375,0.036102294921875
-1.0342254638671875,0.63726806640625,0.15447998046875
-1.023040771484375,0.666595458984375,0.1515350341796875
-0.9890899658203124,0.6712493896484375,0.054534912109375
-1.03045654296875,0.7208404541015625,0.0034637451171875
-1.1478271484375,0.9297943115234376,0.028778076171875
-0.9542083740234376,0.7623138427734375,-0.06842041015625
-0.87359619140625,0.571136474609375,-0.056549072265625
-0.9133148193359376,0.6439971923828125,0.034912109375
-0.831939697265625,0.69390869140625,0.024810791015625
-0.6781005859375,0.5850982666015625,-0.0385284423828125
-0.678009033203125,0.5083465576171875,-0.0306243896484375
-0.6690521240234375,0.4719085693359375,0.012786865234375
-0.6305694580078125,0.482330322265625,0.0860137939453125
-0.560821533203125,0.4699249267578125,0.060516357421875
-0.5870513916015625,0.496734619140625,0.0386810302734375
-0.6964874267578125,0.6017608642578125,0.0839080810546875
-0.7546539306640625,0.6215972900390625,0.098297119140625
-0.856903076171875,0.5776824951171875,0.1258392333984375
-1.0068817138671875,0.6025238037109375,0.176055908203125
-1.1704864501953125,0.881683349609375,0.2412261962890625
-0.8961944580078125,0.5572509765625,0.0638275146484375
-0.9190521240234376,0.399932861328125,0.0898895263671875
-1.07122802734375,0.53076171875,0.243988037109375
-0.9234619140625,0.5117034912109375,0.248443603515625
-0.830474853515625,0.4026641845703125,0.134063720703125
-0.8007049560546875,0.368865966796875,0.07537841796875
-0.809234619140625,0.4195709228515625,0.033905029296875
-0.747161865234375,0.4278411865234375,0.046661376953125
-0.7395477294921875,0.4015045166015625,0.065704345703125
-0.819366455078125,0.451812744140625,0.1446990966796875
-0.93194580078125,0.520233154296875,0.180816650390625
-1.0390472412109375,0.5684661865234375,0.18414306640625
-1.0575408935546875,0.5159454345703125,0.1496124267578125
-1.1068115234375,0.5365447998046875,0.122833251953125
-1.1688995361328125,0.724212646484375,0.0953216552734375
-1.0498809814453125,0.70196533203125,0.048919677734375
-0.938385009765625,0.5581512451171875,0.03515625
-1.005859375,0.626434326171875,0.080596923828125
-0.971527099609375,0.6927490234375,0.0643310546875
-0.8018035888671875,0.6035003662109375,-0.0087738037109375
-0.703399658203125,0.4976043701171875,0.0009307861328125
-0.6903533935546875,0.4775238037109375,0.0839691162109375
-0.630523681640625,0.4865875244140625,0.0901947021484375
-0.5745086669921875,0.47698974609375,0.042999267578125
-0.58111572265625,0.5020294189453125,0.0826873779296875
-0.62518310546875,0.50762939453125,0.145660400390625
-0.73541259765625,0.5618438720703125,0.21551513671875
-0.7808074951171875,0.5886077880859375,0.2047119140625
-0.818450927734375,0.597320556640625,0.1793212890625
-1.0004425048828125,0.8046722412109375,0.2246246337890625
-0.9687347412109376,0.7091522216796875,0.1374359130859375
-0.923248291015625,0.5228271484375,0.080657958984375
-0.902496337890625,0.40789794921875,0.127410888671875
-0.9620513916015624,0.4284515380859375,0.1993408203125
-1.06707763671875,0.5022125244140625,0.213287353515625
-1.0293426513671875,0.426666259765625,0.209625244140625
-0.9770660400390624,0.409820556640625,0.1886749267578125
-0.9049072265625,0.458526611328125,0.13397216796875
-0.8232421875,0.4733428955078125,0.0885162353515625
-0.8204498291015625,0.501708984375,0.073089599609375
-0.829559326171875,0.5186004638671875,0.1027374267578125
-0.872772216796875,0.5243988037109375,0.1435546875
-0.895477294921875,0.523834228515625,0.1919403076171875
-0.906097412109375,0.5333709716796875,0.1848297119140625
-0.8787689208984375,0.5296783447265625,0.1504669189453125
-0.8579254150390625,0.5311431884765625,0.06805419921875
-0.9058685302734376,0.5788421630859375,-0.0048675537109375
-0.96356201171875,0.6693572998046875,0.0107879638671875
-0.7930908203125,0.5845794677734375,-0.1103668212890625
-0.71923828125,0.519012451171875,-0.1720123291015625
-0.739044189453125,0.5635833740234375,-0.0683441162109375
-0.6757354736328125,0.5677642822265625,-0.0273895263671875
-0.63299560546875,0.5413665771484375,-0.1502532958984375
-0.75439453125,0.4953155517578125,-0.2675018310546875
-0.9076995849609376,0.4762115478515625,-0.2830047607421875
-0.9876861572265624,0.4872589111328125,-0.2987823486328125
-0.927886962890625,0.4657745361328125,-0.38916015625
-0.9394683837890624,0.49420166015625,-0.4257965087890625
-0.997772216796875,0.5404205322265625,-0.3709564208984375
-1.01287841796875,0.561614990234375,-0.3039703369140625
-1.0393218994140625,0.609161376953125,-0.287689208984375
-0.9917755126953124,0.61328125,-0.2896728515625
-0.956451416015625,0.6248016357421875,-0.305877685546875
-0.915435791015625,0.6581573486328125,-0.3004302978515625
-0.8359527587890625,0.6497650146484375,-0.2918701171875
-0.74462890625,0.6084747314453125,-0.2310791015625
-0.6909027099609375,0.574798583984375,-0.1499481201171875
-0.6749725341796875,0.549774169921875,-0.080596923828125
-0.6738739013671875,0.533905029296875,-0.0897674560546875
-0.7399139404296875,0.539154052734375,-0.0979766845703125
-0.7415008544921875,0.5325927734375,-0.023468017578125
-0.7183685302734375,0.5478515625,0.073638916015625
-0.7648773193359375,0.5704498291015625,0.08056640625
-0.77850341796875,0.6515960693359375,0.1400604248046875
-0.720703125,0.6438446044921875,0.1708984375
-0.728759765625,0.5735321044921875,0.1613311767578125
-0.7687530517578125,0.572662353515625,0.164703369140625
-0.7619171142578125,0.6145172119140625,0.2206878662109375
-0.75933837890625,0.619842529296875,0.1806793212890625
-0.779510498046875,0.6124267578125,0.1589508056640625
-0.7768096923828125,0.5760345458984375,0.1331024169921875
-0.815093994140625,0.594451904296875,0.177276611328125
-0.8438568115234375,0.58782958984375,0.2043609619140625
-0.913177490234375,0.589385986328125,0.211456298828125
-0.988525390625,0.581756591796875,0.225250244140625
-0.987518310546875,0.57110595703125,0.241363525390625
-1.0315093994140625,0.6327667236328125,0.1737060546875
-1.07720947265625,0.729949951171875,0.088623046875
-1.0229339599609375,0.64984130859375,-0.0108642578125
-0.9167327880859376,0.4843597412109375,-0.0927734375
-0.9783935546875,0.6207427978515625,-0.091888427734375
-0.947998046875,0.7773895263671875,-0.069793701171875
-0.8361663818359375,0.7602691650390625,-0.050384521484375
-0.7960968017578125,0.6601715087890625,-0.059356689453125
-0.8059844970703125,0.62274169921875,-0.00677490234375
-0.7364044189453125,0.6334686279296875,0.0564727783203125
-0.618316650390625,0.623931884765625,0.059814453125
-0.5417633056640625,0.56744384765625,0.04107666015625
-0.625823974609375,0.5978851318359375,-0.0014190673828125
-0.715240478515625,0.708770751953125,0.0441436767578125
-0.7499847412109375,0.7426910400390625,0.0800628662109375
-0.8128814697265625,0.657440185546875,0.1021270751953125
-0.966278076171875,0.759063720703125,0.2347564697265625
-0.8832550048828125,0.72039794921875,0.1966552734375
-0.76300048828125,0.5501556396484375,0.0992279052734375
-0.70489501953125,0.42138671875,0.1265106201171875
-0.796173095703125,0.5084991455078125,0.1857452392578125
-0.8530731201171875,0.6014556884765625,0.16021728515625
-0.7963409423828125,0.5471038818359375,0.0927734375
-0.7871246337890625,0.49114990234375,0.0369873046875
-0.812744140625,0.497650146484375,-0.006500244140625
-0.7666473388671875,0.516387939453125,0.0229949951171875
-0.7542572021484375,0.5211334228515625,0.0632476806640625
-0.79193115234375,0.5341644287109375,0.1042327880859375
-0.84857177734375,0.5587158203125,0.1426544189453125
-0.8739776611328125,0.5651702880859375,0.1663360595703125
-0.91973876953125,0.5754547119140625,0.16619873046875
-0.961883544921875,0.56884765625,0.1851043701171875
-1.0905609130859375,0.7209930419921875,0.1623687744140625
-1.0469970703125,0.7125701904296875,0.1000823974609375
-0.920379638671875,0.5216827392578125,0.1011810302734375
-0.956207275390625,0.526336669921875,0.141357421875
-0.985137939453125,0.6580352783203125,0.1204833984375
-0.953125,0.7386322021484375,0.0586395263671875
-0.8317718505859375,0.65692138671875,-0.016448974609375
-0.760162353515625,0.6092681884765625,-0.0003814697265625
-0.695281982421875,0.6098785400390625,0.0449676513671875
-0.5972900390625,0.586517333984375,0.074432373046875
-0.53826904296875,0.5509185791015625,0.0621337890625
-0.526580810546875,0.529266357421875,0.0277862548828125
-0.5551605224609375,0.549957275390625,0.0501861572265625
-0.6551666259765625,0.6298980712890625,0.1053314208984375
-0.725189208984375,0.6551666259765625,0.091796875
-0.9241485595703124,0.739898681640625,0.09326171875
-1.047943115234375,0.85546875,0.10455322265625
-0.9664459228515624,0.6834564208984375,0.033660888671875
-0.9015350341796876,0.477142333984375,0.0334625244140625
-1.0336151123046875,0.504058837890625,0.077301025390625
-1.0983123779296875,0.55914306640625,0.0708160400390625
-0.9351348876953124,0.4303436279296875,0.0658111572265625
-0.831878662109375,0.4160003662109375,0.092376708984375
-0.7958221435546875,0.5146942138671875,0.1281890869140625
-0.7123260498046875,0.5421142578125,0.1009368896484375
-0.6881561279296875,0.4778289794921875,0.018280029296875
-0.859222412109375,0.468292236328125,-0.0193634033203125
-0.9833221435546876,0.47186279296875,0.055328369140625
-1.05560302734375,0.491790771484375,0.1197509765625
-1.0005645751953125,0.4832611083984375,0.1190338134765625
-0.9610748291015624,0.507659912109375,0.075897216796875
-1.04534912109375,0.654510498046875,0.06658935546875
-1.041473388671875,0.734710693359375,0.08905029296875
-0.834014892578125,0.549102783203125,0.0722198486328125
-0.8438568115234375,0.4333038330078125,0.0793304443359375
-0.9453125,0.5523223876953125,0.1311187744140625
-0.9143524169921876,0.6861572265625,0.17181396484375
-0.7771148681640625,0.578521728515625,0.0877227783203125
-0.7652435302734375,0.48931884765625,0.0045318603515625
-0.7355804443359375,0.477386474609375,-0.010986328125
-0.6519775390625,0.495697021484375,0.0502471923828125
-0.62530517578125,0.476470947265625,0.1140289306640625
-0.6849365234375,0.4782562255859375,0.12213134765625
-0.760894775390625,0.5126800537109375,0.0650634765625
-0.82574462890625,0.5329132080078125,0.0533905029296875
-0.9281768798828124,0.5816802978515625,0.058929443359375
-0.99261474609375,0.593902587890625,0.0037994384765625
-1.1274261474609375,0.7488861083984375,-0.0135498046875
-0.9930267333984376,0.6267547607421875,-0.08929443359375
-0.780975341796875,0.343902587890625,-0.0523834228515625
-0.897491455078125,0.402252197265625,0.1515655517578125
-0.88800048828125,0.4597930908203125,0.210906982421875
-0.8457183837890625,0.4828033447265625,0.1464080810546875
-0.8681640625,0.4289093017578125,0.04888916015625
-0.8663787841796875,0.4139404296875,0.035675048828125
-0.8342132568359375,0.485931396484375,0.1265716552734375
-0.77593994140625,0.4816741943359375,0.157867431640625
-0.806182861328125,0.5052032470703125,0.17608642578125
-0.897796630859375,0.550018310546875,0.189849853515625
-0.9907989501953124,0.5992584228515625,0.168304443359375
-1.0272979736328125,0.6542510986328125,0.1746063232421875
-0.9647369384765624,0.59942626953125,0.160736083984375
-1.0772705078125,0.716400146484375,0.11370849609375
-1.0440521240234375,0.7684783935546875,0.032745361328125
-0.950347900390625,0.703460693359375,0.010162353515625
-0.84185791015625,0.486602783203125,0.0232696533203125
-0.9310455322265624,0.570831298828125,0.035308837890625
-0.8829193115234375,0.6729583740234375,0.016632080078125
-0.6960906982421875,0.592071533203125,0.0142059326171875
-0.645782470703125,0.484771728515625,0.009307861328125
-0.6753387451171875,0.457672119140625,0.028564453125
-0.6355438232421875,0.48150634765625,0.0733489990234375
-0.59100341796875,0.50830078125,0.093994140625
-0.6278076171875,0.5189056396484375,0.098052978515625
-0.6847686767578125,0.544464111328125,0.114837646484375
-0.8094024658203125,0.6861419677734375,0.14501953125
-0.824310302734375,0.6472015380859375,0.104095458984375
-0.9476776123046876,0.7004547119140625,0.1676788330078125
-1.015838623046875,0.7921142578125,0.2063140869140625
-0.89141845703125,0.6071014404296875,0.1150360107421875
-0.8222808837890625,0.4295654296875,0.1269378662109375
-0.937530517578125,0.4876861572265625,0.1881561279296875
-0.9875946044921876,0.518524169921875,0.2199859619140625
-0.9263763427734376,0.437744140625,0.1732940673828125
-0.8887939453125,0.4315185546875,0.145538330078125
-0.833251953125,0.460784912109375,0.071319580078125
-0.756744384765625,0.45904541015625,0.0729827880859375
-0.7061614990234375,0.434600830078125,0.086944580078125
-0.73126220703125,0.4754638671875,0.1148529052734375
-0.857940673828125,0.5329437255859375,0.1364593505859375
-1.0098419189453125,0.5733184814453125,0.1601409912109375
-1.040557861328125,0.53802490234375,0.1742706298828125
-1.02960205078125,0.5023193359375,0.1912384033203125
-1.09039306640625,0.66033935546875,0.205230712890625
-1.07159423828125,0.7285614013671875,0.1331024169921875
-0.9351043701171876,0.544189453125,0.0879669189453125
-1.0040130615234375,0.5699615478515625,0.1156768798828125
-0.9671783447265624,0.6513824462890625,0.0682220458984375
-0.8117523193359375,0.6424713134765625,0.0213470458984375
-0.6813507080078125,0.52337646484375,-0.0084075927734375
-0.6735382080078125,0.4755706787109375,0.00811767578125
-0.640899658203125,0.4769439697265625,0.0130615234375
-0.6004791259765625,0.4810028076171875,0.0399017333984375
-0.5716705322265625,0.461578369140625,0.0699920654296875
-0.619873046875,0.4916839599609375,0.07470703125
-0.732757568359375,0.6002655029296875,0.0768280029296875
-0.829010009765625,0.720489501953125,0.111968994140625
-0.8344573974609375,0.643829345703125,0.1208343505859375
-1.003662109375,0.727081298828125,0.20391845703125
-1.0273284912109375,0.7312164306640625,0.2114715576171875
-0.940673828125,0.61932373046875,0.1461944580078125
-0.807342529296875,0.41595458984375,0.1307373046875
-0.8491058349609375,0.426544189453125,0.144866943359375
-0.9040679931640624,0.52227783203125,0.1161651611328125
-0.8102569580078125,0.5321807861328125,0.037628173828125
-0.77862548828125,0.5347900390625,-0.0191650390625
-0.73162841796875,0.5281524658203125,-0.024871826171875
-0.7143707275390625,0.5070037841796875,0.05352783203125
-0.742218017578125,0.48638916015625,0.10693359375
-0.77032470703125,0.48638916015625,0.1312713623046875
-0.8567962646484375,0.5289154052734375,0.1600189208984375
-0.9273834228515624,0.5702972412109375,0.2064056396484375
-0.968719482421875,0.5800933837890625,0.18646240234375
-0.9974212646484376,0.6135711669921875,0.171783447265625
-1.10498046875,0.73797607421875,0.167205810546875
-1.013427734375,0.6334075927734375,0.1273345947265625
-0.9503936767578124,0.478240966796875,0.1779327392578125
-1.04901123046875,0.605255126953125,0.1898345947265625
-1.0093994140625,0.6918792724609375,0.16998291015625
-0.891143798828125,0.656494140625,0.10601806640625
-0.7823028564453125,0.5898590087890625,0.097412109375
-0.677886962890625,0.565643310546875,0.13323974609375
-0.58709716796875,0.567535400390625,0.1928863525390625
-0.5384674072265625,0.5326385498046875,0.1883392333984375
-0.584930419921875,0.4967193603515625,0.1341705322265625
-0.6536712646484375,0.5360260009765625,0.1234588623046875
-0.737518310546875,0.6037139892578125,0.0849761962890625
-0.83795166015625,0.64678955078125,0.08404541015625
-0.8159027099609375,0.5786895751953125,0.077178955078125
-0.8635406494140625,0.6207275390625,0.058746337890625
-0.866607666015625,0.6898040771484375,0.068511962890625
-0.883819580078125,0.660736083984375,0.0533447265625
-0.8141021728515625,0.4901123046875,0.0401458740234375
-0.9541015625,0.5511016845703125,0.07440185546875
-0.9970855712890624,0.58001708984375,-0.01324462890625
-0.927581787109375,0.4971466064453125,-0.0674591064453125
-0.84661865234375,0.428619384765625,-0.0323486328125
-0.78582763671875,0.426300048828125,0.0524139404296875
-0.7932586669921875,0.46978759765625,0.0917205810546875
-0.757171630859375,0.4687957763671875,0.1380767822265625
-0.8302459716796875,0.4854736328125,0.179229736328125
-0.9674224853515624,0.5478668212890625,0.1917877197265625
-1.1187286376953125,0.6314849853515625,0.17034912109375
-1.138702392578125,0.565643310546875,0.11578369140625
-1.082427978515625,0.4410247802734375,0.115447998046875
-1.142608642578125,0.547149658203125,0.1589813232421875
-1.065277099609375,0.619354248046875,0.1396636962890625
-0.950042724609375,0.53948974609375,0.0135040283203125
-0.972686767578125,0.57342529296875,-0.02655029296875
-0.9601593017578124,0.662506103515625,-0.0385894775390625
-0.8841552734375,0.6881103515625,-0.0765533447265625
-0.7784881591796875,0.605560302734375,-0.12066650390625
-0.7511444091796875,0.5703277587890625,-0.067657470703125
-0.6941375732421875,0.552093505859375,0.0091552734375
-0.6406707763671875,0.5297393798828125,0.0500640869140625
-0.5832061767578125,0.51153564453125,0.0920257568359375
-0.57940673828125,0.5298614501953125,0.0990447998046875
-0.6171417236328125,0.5610198974609375,0.0950775146484375
-0.73077392578125,0.639739990234375,0.1409149169921875
-0.7891082763671875,0.644683837890625,0.12579345703125
-0.84130859375,0.6230621337890625,0.113067626953125
-0.9566802978515624,0.753509521484375,0.1471099853515625
-0.961639404296875,0.760528564453125,0.0730743408203125
-0.8360137939453125,0.555572509765625,0.033721923828125
-0.8924713134765625,0.493377685546875,0.07421875
-0.9500732421875,0.50042724609375,0.121734619140625
-0.9591217041015624,0.5171661376953125,0.0769805908203125
-0.9095001220703124,0.461700439453125,0.011199951171875
-0.8762054443359375,0.4637451171875,0.0903167724609375
-0.8588409423828125,0.485076904296875,0.1455535888671875
-0.80877685546875,0.4578857421875,0.097869873046875
-0.796875,0.4801788330078125,0.056121826171875
-0.82861328125,0.5000762939453125,0.0577850341796875
-0.9248199462890624,0.54638671875,0.132537841796875
-0.9513092041015624,0.5726318359375,0.175201416015625
-0.98101806640625,0.5943450927734375,0.131744384765625
-1.034759521484375,0.6443939208984375,0.1185302734375
-1.0273590087890625,0.674041748046875,0.0753631591796875
-1.002838134765625,0.7088470458984375,0.00054931640625
-0.875213623046875,0.5334930419921875,-0.083770751953125
-0.9400482177734376,0.5615234375,-0.0297088623046875
-0.951324462890625,0.6684112548828125,0.027069091796875
-0.8603668212890625,0.70184326171875,0.0408172607421875
-0.7316131591796875,0.5844879150390625,-0.0369110107421875
-0.705841064453125,0.538726806640625,-0.0583953857421875
-0.643096923828125,0.5182037353515625,-0.0189666748046875
-0.5836639404296875,0.4934539794921875,0.016845703125
-0.5533599853515625,0.4765472412109375,0.048187255859375
-0.580413818359375,0.4992218017578125,0.065338134765625
-0.6939849853515625,0.546875,0.0587005615234375
-0.7830963134765625,0.6191864013671875,0.1143035888671875
-0.8820648193359375,0.662322998046875,0.141815185546875
-0.9005584716796875,0.6175079345703125,0.1331024169921875
-1.0766448974609375,0.7380523681640625,0.1256561279296875
-1.1479034423828125,0.78045654296875,0.1064300537109375
-0.9927978515625,0.5521392822265625,0.05206298828125
-0.8598785400390625,0.3236541748046875,0.0703125
-0.931884765625,0.3292083740234375,0.0997161865234375
-1.0381622314453125,0.451080322265625,0.1338348388671875
-1.0365142822265625,0.489501953125,0.09173583984375
-0.9954986572265624,0.4706878662109375,0.02569580078125
-0.9055328369140624,0.454559326171875,-0.0169525146484375
-0.8315582275390625,0.490386962890625,0.0348358154296875
-0.7804412841796875,0.521575927734375,0.049774169921875
-0.80010986328125,0.559661865234375,-0.017425537109375
-0.8656768798828125,0.59478759765625,-0.0435638427734375
-0.917449951171875,0.635223388671875,0.003570556640625
-0.9094085693359376,0.616912841796875,0.045989990234375
-0.8855743408203125,0.585205078125,0.05908203125
-0.8604736328125,0.5955047607421875,0.058746337890625
-0.794189453125,0.56671142578125,0.0254669189453125
-0.79656982421875,0.5707550048828125,-0.0135650634765625
-0.823516845703125,0.6076812744140625,-0.03192138671875
-0.7935028076171875,0.624969482421875,-0.032562255859375
-0.696990966796875,0.5207672119140625,-0.0526275634765625
-0.706512451171875,0.502044677734375,-0.021270751953125
-0.7504119873046875,0.5449371337890625,-0.0159149169921875
-0.7502899169921875,0.566741943359375,-0.062042236328125
-0.7799224853515625,0.5882415771484375,-0.092376708984375
-0.811004638671875,0.5877838134765625,-0.08966064453125
-0.8269195556640625,0.5765838623046875,-0.077423095703125
-0.84210205078125,0.567138671875,-0.07275390625
-0.90765380859375,0.6097869873046875,-0.0712738037109375
-0.95855712890625,0.6125030517578125,-0.0860748291015625
-0.984954833984375,0.575714111328125,-0.0921783447265625
-1.0358123779296875,0.5718994140625,-0.046173095703125
-1.0328521728515625,0.5704803466796875,-0.0006256103515625
-0.983154296875,0.59356689453125,0.0141754150390625
-0.9583587646484376,0.618560791015625,-0.0318145751953125
-0.9675140380859376,0.6819915771484375,-0.062835693359375
-0.94561767578125,0.7206573486328125,-0.0926513671875
-0.853912353515625,0.68438720703125,-0.101806640625
-0.790252685546875,0.6085052490234375,-0.0770721435546875
-0.810272216796875,0.6179656982421875,-0.00030517578125
-0.7474822998046875,0.586212158203125,0.00738525390625
-0.7122650146484375,0.6151885986328125,0.0030364990234375
-0.6288299560546875,0.61065673828125,0.0580596923828125
-0.6037139892578125,0.557525634765625,0.117156982421875
-0.64862060546875,0.5608673095703125,0.228424072265625
-0.66595458984375,0.5908355712890625,0.281768798828125
-0.691314697265625,0.6165618896484375,0.3040771484375
-0.72491455078125,0.625244140625,0.34375
-0.7807159423828125,0.628265380859375,0.329010009765625
-0.7846832275390625,0.5980682373046875,0.27020263671875
-0.805938720703125,0.603118896484375,0.2516326904296875
-0.787445068359375,0.5767974853515625,0.259307861328125
-0.8119964599609375,0.5724639892578125,0.2548065185546875
-0.8548126220703125,0.579833984375,0.2397003173828125
-0.87860107421875,0.557769775390625,0.2428131103515625
-0.9012298583984376,0.5331573486328125,0.2087554931640625
-0.9218597412109376,0.492034912109375,0.14178466796875
-0.936065673828125,0.4468536376953125,0.1126556396484375
-1.0325927734375,0.50531005859375,0.12213134765625
-1.09686279296875,0.60528564453125,0.104461669921875
-1.0015869140625,0.5274658203125,0.066619873046875
-0.915069580078125,0.4214630126953125,0.026580810546875
-1.009613037109375,0.580718994140625,0.0332183837890625
-1.01318359375,0.7389984130859375,-0.0018157958984375
-0.9556884765625,0.7641754150390625,-0.0673980712890625
-0.9162139892578124,0.7269744873046875,-0.0966644287109375
-0.8188934326171875,0.7299652099609375,-0.076385498046875
-0.6870574951171875,0.69879150390625,-0.15203857421875
-0.6662750244140625,0.7183074951171875,-0.198944091796875
-0.61505126953125,0.71051025390625,-0.205413818359375
-0.5543060302734375,0.6923370361328125,-0.1883697509765625
-0.5583648681640625,0.68408203125,-0.1448974609375
-0.559906005859375,0.663604736328125,-0.10504150390625
-0.619476318359375,0.685760498046875,-0.083953857421875
-0.657470703125,0.711334228515625,-0.07574462890625
-0.632049560546875,0.683258056640625,-0.14544677734375
-0.6874847412109375,0.7769622802734375,-0.1495208740234375
-0.7388153076171875,0.8012847900390625,-0.1627197265625
-0.7457122802734375,0.837371826171875,-0.218414306640625
-0.6546478271484375,0.6266021728515625,-0.2970733642578125
-0.734893798828125,0.610809326171875,-0.267730712890625
-0.814483642578125,0.7253875732421875,-0.2707977294921875
-0.797637939453125,0.705596923828125,-0.3239288330078125
-0.7511138916015625,0.62811279296875,-0.2898712158203125
-0.700531005859375,0.581085205078125,-0.2273101806640625
-0.6356964111328125,0.574920654296875,-0.11895751953125
-0.5991668701171875,0.572418212890625,-0.0294189453125
-0.6161346435546875,0.5592498779296875,-0.03082275390625
-0.7702789306640625,0.6633148193359375,-0.0652313232421875
-0.9052886962890624,0.757904052734375,-0.1030120849609375
-0.943450927734375,0.7363128662109375,-0.1745758056640625
-0.9746856689453124,0.73406982421875,-0.2461090087890625
-0.951324462890625,0.8421478271484375,-0.2378692626953125
-0.891998291015625,0.9109649658203124,-0.2252044677734375
-0.7443389892578125,0.7889251708984375,-0.196685791015625
-0.717987060546875,0.7038726806640625,-0.159881591796875
-0.817230224609375,0.84027099609375,-0.088775634765625
-0.73138427734375,0.7992706298828125,-0.0402069091796875
-0.651092529296875,0.6691436767578125,-0.01861572265625
-0.6648712158203125,0.6007232666015625,-0.0457305908203125
-0.694427490234375,0.617767333984375,-0.025970458984375
-0.6310272216796875,0.5873260498046875,0.0326385498046875
-0.5433197021484375,0.57763671875,0.0908203125
-0.5342254638671875,0.5963592529296875,0.08770751953125
-0.6299591064453125,0.6662750244140625,0.0510101318359375
-0.72393798828125,0.7695770263671875,0.04974365234375
-0.7341766357421875,0.709014892578125,-0.00433349609375
-0.844329833984375,0.685455322265625,0.0107879638671875
-0.9927215576171876,0.8264923095703125,0.072296142578125
-0.8747406005859375,0.7073974609375,-0.0153045654296875
-0.7244110107421875,0.43267822265625,-0.092010498046875
-0.7884063720703125,0.463836669921875,0.00225830078125
-0.902069091796875,0.576263427734375,0.124237060546875
-0.879730224609375,0.5810699462890625,0.178009033203125
-0.7942352294921875,0.58380126953125,0.142364501953125
-0.73699951171875,0.589630126953125,0.0357666015625
-0.7048492431640625,0.57012939453125,-0.0139923095703125
-0.709014892578125,0.5448150634765625,0.01922607421875
-0.7854156494140625,0.567291259765625,0.0683135986328125
-0.8972625732421875,0.5858154296875,0.1107025146484375
-0.9853973388671876,0.621978759765625,0.121246337890625
-1.01251220703125,0.656005859375,0.0529937744140625
-0.9589996337890624,0.6365966796875,-0.022705078125
-1.0525360107421875,0.8380584716796875,-0.0758056640625
-0.98114013671875,0.8415679931640625,-0.092437744140625
-0.78619384765625,0.609344482421875,-0.0787811279296875
-0.852752685546875,0.66229248046875,-0.0427398681640625
-0.8857421875,0.7963104248046875,-0.0130615234375
-0.7365570068359375,0.734619140625,-0.0322418212890625
-0.6697540283203125,0.63482666015625,-0.077301025390625
-0.67596435546875,0.6012725830078125,-0.082183837890625
-0.6106719970703125,0.576568603515625,-0.03582763671875
-0.595703125,0.591888427734375,0.01654052734375
-0.5748443603515625,0.613800048828125,0.05084228515625
-0.6267242431640625,0.6811065673828125,0.0480194091796875
-0.687347412109375,0.7226409912109375,-0.001556396484375
-0.7046661376953125,0.7421722412109375,0.00152587890625
-0.7118072509765625,0.6959381103515625,0.014984130859375
-0.793304443359375,0.761688232421875,0.119903564453125
-0.7876739501953125,0.78546142578125,0.20587158203125
-0.741668701171875,0.72918701171875,0.1946258544921875
-0.744140625,0.557464599609375,0.1138763427734375
-0.877105712890625,0.590423583984375,0.1562347412109375
-0.9878997802734376,0.6199951171875,0.175048828125
-0.9449005126953124,0.5375823974609375,0.14605712890625
-0.93408203125,0.5922088623046875,0.0629425048828125
-0.8302459716796875,0.619476318359375,-0.03594970703125
-0.7069549560546875,0.5901947021484375,-0.0720672607421875
-0.6255035400390625,0.57000732421875,-0.033477783203125
-0.6315155029296875,0.58880615234375,0.01348876953125
-0.699188232421875,0.6417083740234375,0.060943603515625
-0.788330078125,0.6818389892578125,0.1076507568359375
-0.8464508056640625,0.6929779052734375,0.07415771484375
-0.9011993408203124,0.6701202392578125,0.036346435546875
-1.06866455078125,0.8407440185546875,0.0711822509765625
-1.0549774169921875,0.8013458251953125,0.061065673828125
-0.91754150390625,0.5876922607421875,0.0643463134765625
-1.0041961669921875,0.6681365966796875,0.0277252197265625
-0.97637939453125,0.7704010009765625,-0.011444091796875
-0.8628082275390625,0.7745513916015625,-0.0191497802734375
-0.7509613037109375,0.727874755859375,-0.027252197265625
-0.6738433837890625,0.6910858154296875,-0.029388427734375
-0.5989532470703125,0.6937103271484375,0.0107879638671875
-0.4915924072265625,0.644073486328125,0.03131103515625
-0.463592529296875,0.5931243896484375,0.027587890625
-0.475677490234375,0.5784759521484375,-0.004547119140625
-0.4993438720703125,0.59942626953125,0.0247344970703125
-0.575103759765625,0.6407928466796875,0.065521240234375
-0.6859893798828125,0.720489501953125,0.083984375
-0.85687255859375,0.80401611328125,0.1063690185546875
-0.932373046875,0.9996490478515624,0.100128173828125
-0.7613983154296875,0.770355224609375,-0.1438751220703125
-0.77471923828125,0.589935302734375,-0.1120758056640625
-0.898162841796875,0.5995635986328125,0.069305419921875
-1.0455169677734375,0.677642822265625,0.111907958984375
-0.9686431884765624,0.5529327392578125,0.0231475830078125
-0.865142822265625,0.461029052734375,-0.0028076171875
-0.7988739013671875,0.5529632568359375,0.024871826171875
-0.6923065185546875,0.5791015625,0.041778564453125
-0.6576080322265625,0.577972412109375,0.0516815185546875
-0.673980712890625,0.53741455078125,0.0367889404296875
-0.7920074462890625,0.564544677734375,0.0222930908203125
-0.94744873046875,0.6148834228515625,0.056915283203125
-1.0082855224609375,0.6511993408203125,0.1414031982421875
-0.9493560791015624,0.6190032958984375,0.09942626953125
-0.9907073974609376,0.6951446533203125,0.1033172607421875
-1.0595703125,0.83392333984375,0.1020660400390625
-0.976348876953125,0.766937255859375,0.0656890869140625
-0.8513641357421875,0.5659027099609375,-0.0030975341796875
-0.909515380859375,0.68695068359375,0.0530853271484375
-0.908355712890625,0.8108367919921875,0.1712493896484375
-0.8098907470703125,0.8140411376953125,0.208038330078125
-0.67938232421875,0.7097320556640625,0.1184234619140625
-0.6258087158203125,0.625213623046875,-0.0018463134765625
-0.58642578125,0.6095733642578125,0.0085906982421875
-0.5501861572265625,0.5467376708984375,0.0482635498046875
-0.54388427734375,0.5150909423828125,0.072723388671875
-0.5467529296875,0.5247039794921875,0.041534423828125
-0.57666015625,0.54864501953125,0.018280029296875
-0.6726226806640625,0.58197021484375,0.0311737060546875
-0.8013763427734375,0.6363067626953125,0.0125579833984375
-0.8769683837890625,0.7187042236328125,-0.035552978515625
-1.0470123291015625,0.9545135498046876,-0.1189422607421875
-1.09674072265625,0.99688720703125,-0.242218017578125
-0.95660400390625,0.7640380859375,-0.29638671875
-0.835235595703125,0.468658447265625,-0.2448883056640625
-0.943450927734375,0.5468597412109375,-0.085052490234375
-0.8840179443359375,0.5912017822265625,-0.0157318115234375
-0.735015869140625,0.5406341552734375,0.0516510009765625
-0.684783935546875,0.48724365234375,0.0921630859375
-0.713134765625,0.5126800537109375,0.0843353271484375
-0.7634124755859375,0.5371856689453125,0.048736572265625
-0.798828125,0.5328216552734375,0.1107940673828125
-0.8499755859375,0.5147857666015625,0.1834564208984375
-1.004852294921875,0.603057861328125,0.239105224609375
-1.1038360595703125,0.708740234375,0.276702880859375
-1.0484771728515625,0.656768798828125,0.190093994140625
-1.0921173095703125,0.772430419921875,0.137451171875
-1.0437774658203125,0.818115234375,0.1160736083984375
-0.9664154052734376,0.7887420654296875,0.0594635009765625
-0.8432769775390625,0.6208038330078125,0.01348876953125
-0.8326873779296875,0.620147705078125,0.0243682861328125
-0.9068756103515624,0.8497772216796875,0.0460968017578125
-0.7360076904296875,0.8061981201171875,-0.0030364990234375
-0.5479583740234375,0.607147216796875,-0.02490234375
-0.5855255126953125,0.5518341064453125,-0.005767822265625
-0.5538330078125,0.5281219482421875,-0.016357421875
-0.49859619140625,0.5210113525390625,0.0276641845703125
-0.49847412109375,0.4844512939453125,0.051788330078125
-0.5797882080078125,0.51165771484375,0.1549224853515625
-0.6541900634765625,0.56195068359375,0.212188720703125
-0.7741241455078125,0.6848297119140625,0.1999664306640625
-0.8636627197265625,0.777862548828125,0.1128997802734375
-0.9341888427734376,0.7578887939453125,0.092742919921875
-1.0772857666015625,0.909423828125,0.1370849609375
-0.9891815185546876,0.781768798828125,0.0210418701171875
-0.8549957275390625,0.5261688232421875,0.0084381103515625
-0.8820037841796875,0.485382080078125,0.07916259765625
-0.96978759765625,0.54278564453125,0.1346435546875
-0.9891815185546876,0.549072265625,0.106781005859375
-0.8582763671875,0.460052490234375,0.050933837890625
-0.7642364501953125,0.4758758544921875,0.01239013671875
-0.712066650390625,0.5017242431640625,0.0243682861328125
-0.686431884765625,0.48150634765625,0.0316009521484375
-0.75341796875,0.4764251708984375,0.0847625732421875
-0.86199951171875,0.515838623046875,0.120361328125
-0.9667205810546876,0.581939697265625,0.1270751953125
-1.0211334228515625,0.6431732177734375,0.1075897216796875
-1.0134124755859375,0.6765899658203125,0.0578460693359375
-1.066162109375,0.7979583740234375,0.0352935791015625
-1.0712432861328125,0.898284912109375,-0.0420379638671875
-0.9739990234375,0.7889404296875,-0.1447906494140625
-0.8607330322265625,0.6171112060546875,-0.0846710205078125
-0.8985137939453125,0.751373291015625,0.063385009765625
-0.7870635986328125,0.7758941650390625,0.0319366455078125
-0.579833984375,0.6421051025390625,-0.03729248046875
-0.5192718505859375,0.4971771240234375,-0.0464019775390625
-0.599761962890625,0.4923858642578125,-0.029571533203125
-0.6067352294921875,0.4841156005859375,-0.0287322998046875
-0.611175537109375,0.508575439453125,0.0413665771484375
-0.639617919921875,0.5690765380859375,0.1251373291015625
-0.67510986328125,0.6233978271484375,0.1707763671875
-0.747100830078125,0.649383544921875,0.14971923828125
-0.725372314453125,0.63275146484375,0.129791259765625
-0.758209228515625,0.6640777587890625,0.1222076416015625
-0.9174652099609376,0.8744964599609375,0.180572509765625
-0.927764892578125,0.8672332763671875,0.1005401611328125
-0.8737030029296875,0.6114959716796875,0.0748748779296875
-0.852386474609375,0.476318359375,0.1442108154296875
-0.9249725341796876,0.5548095703125,0.18487548828125
-1.0535888671875,0.6574554443359375,0.1075439453125
-1.027008056640625,0.54791259765625,0.022918701171875
-1.0143280029296875,0.5131378173828125,-0.0267181396484375
-0.89202880859375,0.5592041015625,-0.0518341064453125
-0.740081787109375,0.5639801025390625,-0.0370330810546875
-0.688995361328125,0.558990478515625,-0.04827880859375
-0.7224884033203125,0.6164398193359375,-0.0269317626953125
-0.78521728515625,0.6262664794921875,0.032257080078125
-0.8607330322265625,0.61865234375,0.0565185546875
-0.911346435546875,0.6177825927734375,0.063201904296875
-0.949981689453125,0.6937713623046875,0.0516357421875
-0.919189453125,0.720001220703125,0.01861572265625
-0.85943603515625,0.703369140625,-0.001556396484375
-0.867401123046875,0.75445556640625,0.0070343017578125
-0.8437652587890625,0.791473388671875,-0.0094757080078125
-0.709075927734375,0.68536376953125,-0.0317535400390625
-0.620758056640625,0.5644378662109375,-0.0165557861328125
-0.5999908447265625,0.4913482666015625,-0.0020904541015625
-0.6287689208984375,0.5744781494140625,0.063507080078125
-0.6632080078125,0.6601715087890625,0.0523834228515625
-0.72491455078125,0.6673126220703125,0.02996826171875
-0.758087158203125,0.5726318359375,-0.0129241943359375
-0.7923583984375,0.5374755859375,-0.0135345458984375
-0.8082733154296875,0.5853118896484375,0.000335693359375
-0.7689056396484375,0.61199951171875,0.0132293701171875
-0.7551116943359375,0.584381103515625,0.013458251953125
-0.7881011962890625,0.5936737060546875,0.05181884765625
-0.7562255859375,0.5765838623046875,0.0796356201171875
-0.7162017822265625,0.5030364990234375,0.0879364013671875
-0.696136474609375,0.452392578125,0.1037750244140625
-0.663360595703125,0.426483154296875,0.1243438720703125
-0.6293182373046875,0.433807373046875,0.1451416015625
-0.5778656005859375,0.4297943115234375,0.1323699951171875
-0.555419921875,0.35394287109375,0.110382080078125
-0.587615966796875,0.272308349609375,0.1258392333984375
-1.05731201171875,0.7779541015625,0.1385345458984375
-1.4739990234375,1.1888580322265625,4.57763671875e-05
-1.445831298828125,0.8347320556640625,-0.039398193359375
-1.7145538330078125,1.1695556640625,0.086883544921875
-1.1812896728515625,1.0384063720703125,0.0211639404296875
-0.7065887451171875,0.6472930908203125,0.1072540283203125
-0.6222686767578125,0.6305389404296875,0.228729248046875
-0.4372100830078125,0.51495361328125,0.2086029052734375
-0.35260009765625,0.3957672119140625,0.1191253662109375
-0.3349151611328125,0.3834075927734375,0.0933380126953125
-0.327423095703125,0.4664459228515625,0.0638885498046875
-0.327545166015625,0.4766387939453125,0.017303466796875
-0.412872314453125,0.47186279296875,0.03851318359375
-0.553375244140625,0.5540771484375,0.1096038818359375
-0.7637176513671875,0.9418792724609376,0.25982666015625
-0.9416046142578124,1.123077392578125,0.1521453857421875
-1.376190185546875,1.395233154296875,0.1030120849609375
-1.47076416015625,1.396331787109375,-0.0244140625
-1.1799163818359375,0.822052001953125,-0.182891845703125
-1.0081939697265625,0.5123748779296875,-0.0840606689453125
-0.8473663330078125,0.4157867431640625,0.0944671630859375
-0.687103271484375,0.3709564208984375,0.2219085693359375
-0.574493408203125,0.3356170654296875,0.26806640625
-0.602996826171875,0.3156890869140625,0.2220001220703125
-0.662322998046875,0.3201141357421875,0.1057586669921875
-0.7272491455078125,0.3441162109375,0.0268402099609375
-0.780364990234375,0.370330810546875,-0.0152587890625
-0.9902801513671876,0.5715179443359375,-0.005615234375
-1.264862060546875,0.9523773193359376,0.00738525390625
-1.1883544921875,0.746368408203125,-0.06884765625
-1.7737884521484375,1.31463623046875,0.0104827880859375
-1.5181427001953125,1.0393524169921875,0.0429534912109375
-0.9376220703125,0.608306884765625,0.340545654296875
-0.80633544921875,0.585845947265625,0.4021453857421875
-0.6633453369140625,0.62237548828125,0.3290557861328125
-0.5017242431640625,0.5234375,0.1944732666015625
-0.383575439453125,0.4146575927734375,0.108978271484375
-0.3347015380859375,0.3381500244140625,0.087799072265625
-0.3010101318359375,0.3400726318359375,0.1154937744140625
-0.295623779296875,0.39154052734375,0.1376800537109375
-0.383636474609375,0.460479736328125,0.135772705078125
-0.637237548828125,0.6641693115234375,0.19769287109375
-0.8915252685546875,0.886138916015625,0.1940155029296875
-1.1595916748046875,1.018951416015625,0.05767822265625
-1.819793701171875,1.78802490234375,0.0511016845703125
-1.47662353515625,1.059234619140625,-0.0778961181640625
-1.177459716796875,0.5287628173828125,0.119140625
-1.096099853515625,0.46234130859375,0.0895538330078125
-0.8078765869140625,0.4461669921875,0.1289215087890625
-0.6045684814453125,0.352935791015625,0.2070465087890625
-0.539642333984375,0.273895263671875,0.235748291015625
-0.62225341796875,0.2875823974609375,0.1713409423828125
-0.695281982421875,0.28265380859375,0.111358642578125
-0.741241455078125,0.3336029052734375,0.0896453857421875
-0.812103271484375,0.4161376953125,-0.046142578125
-1.0533447265625,0.652923583984375,-0.0845794677734375
-1.2051544189453125,0.861572265625,-0.0322113037109375
-1.254913330078125,0.971160888671875,0.0475616455078125
-1.4775390625,1.277679443359375,0.0010223388671875
-1.1329498291015625,0.866058349609375,0.0755615234375
-0.932586669921875,0.77935791015625,0.3976593017578125
-0.721527099609375,0.6232147216796875,0.4120330810546875
-0.57861328125,0.4822998046875,0.33197021484375
-0.50909423828125,0.4678192138671875,0.221038818359375
-0.4156646728515625,0.4524383544921875,0.131011962890625
-0.389739990234375,0.4239959716796875,0.0912628173828125
-0.37847900390625,0.40618896484375,0.15948486328125
-0.380126953125,0.416168212890625,0.2434234619140625
-0.455596923828125,0.4179840087890625,0.2420196533203125
-0.60040283203125,0.498931884765625,0.2011871337890625
-0.8464813232421875,0.8482208251953125,0.210479736328125
-1.064544677734375,1.0417022705078125,0.0739593505859375
-1.442596435546875,1.291168212890625,0.07269287109375
-1.59259033203125,1.4683380126953125,-0.0101165771484375
-1.17132568359375,0.7977752685546875,-0.1346282958984375
-0.9448699951171876,0.4702911376953125,0.0182037353515625
-0.75634765625,0.4049530029296875,0.11309814453125
-0.61761474609375,0.3689422607421875,0.1471710205078125
-0.56201171875,0.2963104248046875,0.1901702880859375
-0.616363525390625,0.2886962890625,0.244476318359375
-0.69921875,0.3327789306640625,0.1742401123046875
-0.74005126953125,0.388885498046875,0.0836639404296875
-0.7733154296875,0.4532318115234375,-0.040771484375
-0.733795166015625,0.44451904296875,-0.1329193115234375
-0.8086395263671875,0.5389404296875,-0.09051513671875
-1.07244873046875,0.91119384765625,0.0405731201171875
-0.9896240234375,0.6714630126953125,0.1228179931640625
-1.4672088623046875,1.2015380859375,0.2420196533203125
-1.504913330078125,1.1462860107421875,0.0588531494140625
-0.9804229736328124,0.4483795166015625,0.2969970703125
-0.84637451171875,0.4034423828125,0.489166259765625
-0.673980712890625,0.52691650390625,0.4196319580078125
-0.600921630859375,0.57904052734375,0.2131195068359375
-0.5294189453125,0.5532073974609375,0.048858642578125
-0.4587249755859375,0.49822998046875,-0.063690185546875
-0.453521728515625,0.4463348388671875,-0.0977020263671875
-0.51422119140625,0.4091949462890625,0.0046539306640625
-0.5858306884765625,0.4210052490234375,0.1358795166015625
-0.6562347412109375,0.4616546630859375,0.282470703125
-0.7343597412109375,0.3782196044921875,0.366424560546875
-0.8571929931640625,0.3459320068359375,0.2706298828125
-0.95654296875,0.4891815185546875,0.100830078125
-1.013275146484375,0.7224884033203125,-0.021942138671875
-1.0821533203125,0.7770233154296875,-0.0517578125
-1.0964508056640625,0.82952880859375,0.079254150390625
-0.997100830078125,0.6286773681640625,-0.01708984375
-1.0236968994140625,0.5828399658203125,-0.085693359375
-0.9368133544921876,0.4605865478515625,-0.0821990966796875
-0.9185791015625,0.20782470703125,-0.0611572265625
-0.9332275390625,0.055145263671875,0.003936767578125
-0.878143310546875,0.0643157958984375,-0.0496978759765625
-0.8053436279296875,0.075408935546875,-0.2470245361328125
-0.78607177734375,0.1289215087890625,-0.3209075927734375
-0.7066497802734375,0.1990814208984375,-0.321044921875
-0.5736236572265625,0.2378692626953125,-0.40179443359375
-0.5055389404296875,0.2171783447265625,-0.85491943359375
-0.61907958984375,0.2937469482421875,-1.036590576171875
-0.5952911376953125,0.2979278564453125,-0.9964599609375
-0.5080718994140625,0.37835693359375,-1.0959014892578125
-0.496917724609375,0.30926513671875,-1.2972412109375
-0.4449310302734375,0.234100341796875,-1.226593017578125
-0.407684326171875,0.0921783447265625,-1.0279541015625
-0.2354736328125,0.17974853515625,-1.25250244140625
-0.2831268310546875,0.3104705810546875,-1.4587554931640625
-0.1363067626953125,0.2014312744140625,-1.4569549560546875
-0.3050537109375,0.2144012451171875,-1.537689208984375
-0.2155609130859375,0.0394744873046875,-1.2319488525390625
-0.0775909423828125,-0.0637969970703125,-0.927642822265625
-0.0343017578125,-0.0721435546875,-0.827301025390625
0.0873870849609375,-0.14312744140625,-0.882720947265625
0.2548980712890625,-0.2134552001953125,-0.9235687255859376
0.20416259765625,-0.28619384765625,-0.881927490234375
0.158172607421875,-0.35845947265625,-0.8916473388671875
0.1114959716796875,-0.39178466796875,-0.8084869384765625
0.1631317138671875,-0.401702880859375,-0.8006591796875
0.15997314453125,-0.383575439453125,-0.7891998291015625
0.1764984130859375,-0.4097900390625,-0.830535888671875
0.1323699951171875,-0.4383087158203125,-0.8143157958984375
0.1345367431640625,-0.4485015869140625,-0.7673797607421875
0.084686279296875,-0.4706573486328125,-0.693511962890625
