AccelerationX,AccelerationY,AccelerationZ
0.340545654296875,-0.7715911865234375,-0.5126495361328125
0.2469635009765625,-0.797454833984375,-0.4978179931640625
0.293548583984375,-0.79461669921875,-0.525299072265625
0.2869415283203125,-0.79730224609375,-0.5626678466796875
0.3093719482421875,-0.7740325927734375,-0.567962646484375
0.3220672607421875,-0.7649383544921875,-0.5666351318359375
0.3004150390625,-0.761138916015625,-0.55059814453125
0.3179168701171875,-0.782501220703125,-0.557037353515625
0.292877197265625,-0.8031158447265625,-0.533203125
0.3143157958984375,-0.8125457763671875,-0.5388336181640625
0.283294677734375,-0.7998046875,-0.5065460205078125
0.2654876708984375,-0.8017120361328125,-0.4872894287109375
0.25994873046875,-0.7805633544921875,-0.471954345703125
0.2423248291015625,-0.7530975341796875,-0.4557952880859375
0.1478118896484375,-0.75543212890625,-0.461090087890625
0.1234588623046875,-0.7996978759765625,-0.5553436279296875
0.098114013671875,-0.786651611328125,-0.5962677001953125
0.1670074462890625,-0.8033905029296875,-0.5278778076171875
0.145965576171875,-0.7919769287109375,-0.48388671875
0.214263916015625,-0.766876220703125,-0.4266815185546875
0.290740966796875,-0.9065399169921876,-0.400848388671875
0.2944183349609375,-1.1004791259765625,-0.482940673828125
0.2972259521484375,-1.0792083740234375,-0.335540771484375
0.184112548828125,-0.9420166015625,-0.2996826171875
0.17913818359375,-0.7907562255859375,-0.191070556640625
-0.025848388671875,-0.8036956787109375,-0.0987701416015625
-0.070404052734375,-0.88311767578125,-0.0145111083984375
-0.0085296630859375,-1.007537841796875,-0.071502685546875
0.036102294921875,-1.123291015625,-0.177764892578125
0.02069091796875,-1.1241302490234375,-0.4123382568359375
0.140777587890625,-1.203948974609375,-0.5131378173828125
0.3442840576171875,-1.3267059326171875,-0.588592529296875
0.259918212890625,-1.3448944091796875,-0.5213775634765625
0.2655029296875,-1.2314300537109375,-0.4644012451171875
0.074676513671875,-0.9237060546875,-0.325469970703125
0.097198486328125,-0.968719482421875,-0.262115478515625
0.2371826171875,-1.21337890625,-0.2056732177734375
0.240234375,-1.2726898193359375,-0.0299530029296875
0.228057861328125,-1.0593109130859375,-0.053497314453125
0.2041168212890625,-0.9359283447265624,-0.0749664306640625
0.1201324462890625,-0.8435516357421875,-0.0834197998046875
0.17578125,-0.724456787109375,-0.0538330078125
0.309539794921875,-0.72857666015625,-0.042633056640625
0.33306884765625,-0.803558349609375,-0.0043792724609375
0.285186767578125,-0.966705322265625,0.0111083984375
0.1460418701171875,-0.94378662109375,-0.0209808349609375
0.1629638671875,-1.0238037109375,-0.1452789306640625
0.2433624267578125,-1.148468017578125,-0.2189178466796875
0.258270263671875,-1.1513214111328125,-0.28277587890625
0.1768035888671875,-1.1686248779296875,-0.2910919189453125
0.0612335205078125,-1.2730255126953125,-0.222686767578125
0.0443267822265625,-1.1113128662109375,-0.221832275390625
-0.03179931640625,-0.7854461669921875,-0.1982879638671875
0.05072021484375,-0.7852325439453125,-0.1832427978515625
0.147552490234375,-0.8476104736328125,-0.253021240234375
0.2457733154296875,-0.8984527587890625,-0.357147216796875
0.2183380126953125,-0.801483154296875,-0.383758544921875
0.200103759765625,-0.82647705078125,-0.3820037841796875
0.2597503662109375,-1.041107177734375,-0.44329833984375
0.241424560546875,-1.09014892578125,-0.3986053466796875
0.282196044921875,-1.3450927734375,-0.3603057861328125
0.26190185546875,-1.357757568359375,-0.32415771484375
0.157867431640625,-1.314483642578125,-0.141326904296875
0.1584625244140625,-1.466461181640625,-0.011871337890625
0.1185760498046875,-1.419403076171875,0.1139373779296875
0.212005615234375,-1.078369140625,-0.0303497314453125
0.2416229248046875,-0.8566131591796875,-0.1156158447265625
0.2881317138671875,-0.7842559814453125,-0.1279754638671875
0.3127288818359375,-0.8214263916015625,-0.0738525390625
0.3151397705078125,-0.7308807373046875,-0.03643798828125
0.3269805908203125,-0.7512054443359375,0.01275634765625
0.3004608154296875,-0.8192138671875,0.043487548828125
0.3353729248046875,-0.959503173828125,0.00836181640625
0.34765625,-1.0491180419921875,-0.185943603515625
0.3843841552734375,-1.1871337890625,-0.302093505859375
0.3414306640625,-1.1123809814453125,-0.406097412109375
0.2258453369140625,-0.9505767822265624,-0.3992462158203125
0.1416473388671875,-1.0876312255859375,-0.2126312255859375
0.10369873046875,-1.160125732421875,-0.086944580078125
-0.050201416015625,-0.9394989013671876,-0.0787200927734375
-0.249664306640625,-0.683563232421875,-0.231475830078125
-0.129119873046875,-0.6156768798828125,-0.2733612060546875
0.0531768798828125,-0.73114013671875,-0.255523681640625
0.088134765625,-0.8659820556640625,-0.26544189453125
0.136444091796875,-0.9920501708984376,-0.3287811279296875
0.19366455078125,-1.14556884765625,-0.3642425537109375
0.201873779296875,-1.2648468017578125,-0.40966796875
0.178619384765625,-1.0786285400390625,-0.4377288818359375
0.2389373779296875,-1.241943359375,-0.4314727783203125
0.270538330078125,-1.018096923828125,-0.5138702392578125
0.2362518310546875,-1.168609619140625,-0.30108642578125
0.2584228515625,-1.3795928955078125,-0.2517852783203125
0.15985107421875,-1.3596343994140625,-0.1530914306640625
0.053863525390625,-1.0456695556640625,-0.118316650390625
0.0554962158203125,-0.8593292236328125,-0.1661376953125
0.1007080078125,-0.83111572265625,-0.166046142578125
0.1875,-0.75433349609375,-0.126708984375
0.2560882568359375,-0.634246826171875,-0.1260223388671875
0.3902587890625,-0.7723388671875,-0.1500396728515625
0.3509674072265625,-0.890533447265625,-0.103912353515625
0.3479766845703125,-1.081817626953125,-0.0537567138671875
0.2670745849609375,-1.1484375,-0.119293212890625
0.199005126953125,-1.3717041015625,-0.0796966552734375
0.1432647705078125,-1.2079010009765625,-0.1947021484375
0.225372314453125,-1.00006103515625,-0.4746246337890625
0.12176513671875,-0.9537200927734376,-0.2817230224609375
0.0136871337890625,-0.9591217041015624,-0.0655364990234375
0.01702880859375,-0.7977142333984375,-0.0644683837890625
0.054534912109375,-0.6758270263671875,-0.1583099365234375
0.133331298828125,-0.7048492431640625,-0.236297607421875
0.1949462890625,-0.822296142578125,-0.27191162109375
0.2206268310546875,-0.9023284912109376,-0.30072021484375
0.1923370361328125,-0.911163330078125,-0.30126953125
0.2834320068359375,-1.1525115966796875,-0.3610687255859375
0.317413330078125,-1.240814208984375,-0.532867431640625
0.2593841552734375,-1.3702239990234375,-0.455963134765625
0.2617950439453125,-1.3123321533203125,-0.5388946533203125
0.1368865966796875,-1.1732177734375,-0.3723602294921875
0.08050537109375,-1.165557861328125,-0.236175537109375
0.0925140380859375,-1.1970062255859375,-0.140594482421875
0.067535400390625,-1.0903472900390625,-0.0787353515625
0.0923309326171875,-0.90057373046875,-0.1455230712890625
0.1222076416015625,-0.8148040771484375,-0.083770751953125
0.0584564208984375,-0.74072265625,-0.155853271484375
0.245147705078125,-0.70428466796875,-0.15771484375
0.3295440673828125,-0.7501068115234375,-0.0815887451171875
0.35211181640625,-0.8748321533203125,-0.0183563232421875
0.3643035888671875,-1.1182403564453125,0.00445556640625
0.2941436767578125,-1.163238525390625,-0.020294189453125
0.32733154296875,-1.239898681640625,-0.085479736328125
0.3383026123046875,-1.143035888671875,-0.2611541748046875
0.2969207763671875,-0.8450927734375,-0.4561614990234375
0.263397216796875,-0.8891143798828125,-0.337249755859375
0.1960296630859375,-0.9870147705078124,-0.12750244140625
0.0549468994140625,-0.94866943359375,-0.08221435546875
-0.086090087890625,-0.7731781005859375,-0.21044921875
-0.0039825439453125,-0.7127685546875,-0.2554931640625
0.111083984375,-0.764373779296875,-0.2819976806640625
0.2227630615234375,-0.8167877197265625,-0.3276214599609375
0.226837158203125,-0.8345947265625,-0.31744384765625
0.2623291015625,-0.938720703125,-0.331329345703125
0.288726806640625,-1.1969757080078125,-0.41851806640625
0.2413177490234375,-1.07147216796875,-0.4327239990234375
0.2724609375,-1.344635009765625,-0.42877197265625
0.2495880126953125,-1.1190338134765625,-0.525390625
0.212493896484375,-1.2105255126953125,-0.347564697265625
0.25933837890625,-1.4632720947265625,-0.2220458984375
0.1357574462890625,-1.3787384033203125,-0.058319091796875
0.1113433837890625,-1.0949859619140625,-0.0467987060546875
0.0868988037109375,-0.886444091796875,-0.11932373046875
0.1109619140625,-0.819183349609375,-0.1692657470703125
0.1836395263671875,-0.747283935546875,-0.1641845703125
0.2545013427734375,-0.708099365234375,-0.128631591796875
0.2847137451171875,-0.7238616943359375,-0.0576171875
0.2558135986328125,-0.810455322265625,0.024932861328125
0.2849578857421875,-0.96844482421875,0.0087890625
0.3401336669921875,-1.0557098388671875,-0.0966644287109375
0.325286865234375,-1.1746826171875,-0.1868438720703125
0.3276519775390625,-1.159881591796875,-0.3072967529296875
0.2725067138671875,-0.9413909912109376,-0.4672393798828125
0.1776885986328125,-1.0081939697265625,-0.328948974609375
0.1461029052734375,-1.1732635498046875,-0.18914794921875
0.025726318359375,-0.990814208984375,-0.1600341796875
-0.0960540771484375,-0.735107421875,-0.19671630859375
0.0305023193359375,-0.6793670654296875,-0.2462158203125
0.1049041748046875,-0.7578582763671875,-0.288726806640625
0.2008819580078125,-0.7795562744140625,-0.300079345703125
0.30657958984375,-0.8346099853515625,-0.3430633544921875
0.3602752685546875,-1.021209716796875,-0.384918212890625
0.3957672119140625,-1.2924652099609375,-0.48382568359375
0.2841796875,-1.2445526123046875,-0.4500732421875
0.26373291015625,-1.3795623779296875,-0.4572601318359375
0.15594482421875,-1.24407958984375,-0.3636322021484375
0.049774169921875,-1.0490875244140625,-0.2188873291015625
0.1294097900390625,-1.2331695556640625,-0.1439056396484375
0.13372802734375,-1.2529449462890625,-0.109832763671875
0.1626739501953125,-0.969146728515625,-0.1351776123046875
0.166168212890625,-0.7869415283203125,-0.1656036376953125
0.1620635986328125,-0.76580810546875,-0.1772003173828125
0.185089111328125,-0.6646270751953125,-0.1439666748046875
0.2452392578125,-0.62103271484375,-0.0778656005859375
0.316619873046875,-0.59375,-0.061981201171875
0.316162109375,-0.7229766845703125,-0.0501708984375
0.3466033935546875,-0.972503662109375,-0.0946044921875
0.3477630615234375,-1.065460205078125,-0.2082366943359375
0.3580780029296875,-1.38055419921875,-0.2412567138671875
0.2672882080078125,-1.2932281494140625,-0.2494354248046875
0.208099365234375,-1.1526031494140625,-0.3635101318359375
0.0411376953125,-1.143035888671875,-0.29180908203125
0.0526885986328125,-1.115997314453125,-0.228973388671875
-0.0292816162109375,-0.957916259765625,-0.221588134765625
0.0022430419921875,-0.73651123046875,-0.2443695068359375
0.0618133544921875,-0.653106689453125,-0.2698211669921875
0.133331298828125,-0.689361572265625,-0.292388916015625
0.2014923095703125,-0.6963043212890625,-0.322509765625
0.2721405029296875,-0.74957275390625,-0.3408660888671875
0.2996673583984375,-0.9029998779296876,-0.35772705078125
0.342376708984375,-1.23944091796875,-0.3706512451171875
0.40704345703125,-1.4097747802734375,-0.489105224609375
0.26678466796875,-1.4008941650390625,-0.449859619140625
0.2833404541015625,-1.1258392333984375,-0.3912200927734375
0.14410400390625,-1.01226806640625,-0.264923095703125
0.211761474609375,-1.226104736328125,-0.1752471923828125
0.2119293212890625,-1.2039947509765625,-0.1546173095703125
0.142669677734375,-0.944854736328125,-0.149627685546875
0.1642608642578125,-0.7405548095703125,-0.1934661865234375
0.2039642333984375,-0.6693878173828125,-0.199310302734375
0.2561187744140625,-0.6330413818359375,-0.18414306640625
0.260009765625,-0.579803466796875,-0.1352996826171875
0.31622314453125,-0.6155242919921875,-0.1132049560546875
0.305816650390625,-0.76788330078125,-0.111846923828125
0.3401947021484375,-1.1055145263671875,-0.1275177001953125
0.3022003173828125,-1.132843017578125,-0.1427154541015625
0.31304931640625,-1.41937255859375,-0.1865997314453125
0.2244720458984375,-1.22357177734375,-0.2450408935546875
0.127410888671875,-0.998687744140625,-0.362335205078125
0.1085662841796875,-1.1135711669921875,-0.36358642578125
0.0188140869140625,-1.0807342529296875,-0.23858642578125
0.04443359375,-0.82757568359375,-0.1736602783203125
0.0506134033203125,-0.703460693359375,-0.23095703125
0.0856781005859375,-0.6969757080078125,-0.2772674560546875
0.1363372802734375,-0.75091552734375,-0.3232574462890625
0.235992431640625,-0.7943878173828125,-0.368499755859375
0.221282958984375,-0.841461181640625,-0.375579833984375
0.2175140380859375,-1.124847412109375,-0.4317169189453125
0.20111083984375,-1.1764373779296875,-0.4185638427734375
0.244781494140625,-1.368560791015625,-0.4245758056640625
0.198272705078125,-1.2837066650390625,-0.4894866943359375
0.174591064453125,-1.2119903564453125,-0.3646697998046875
0.1508941650390625,-1.28240966796875,-0.2654571533203125
0.1672210693359375,-1.326446533203125,-0.1200103759765625
0.1058807373046875,-1.0764312744140625,-0.05426025390625
0.1184234619140625,-0.8062591552734375,-0.1077423095703125
0.1489105224609375,-0.7103118896484375,-0.144927978515625
0.2108001708984375,-0.64093017578125,-0.158477783203125
0.2486572265625,-0.6090850830078125,-0.1509552001953125
0.2720794677734375,-0.651824951171875,-0.1383056640625
0.2514495849609375,-0.84197998046875,-0.0851287841796875
0.255279541015625,-1.146820068359375,-0.0760650634765625
0.28741455078125,-1.0792999267578125,-0.1729888916015625
0.219268798828125,-1.228271484375,-0.234527587890625
0.1956787109375,-1.14483642578125,-0.3228302001953125
0.12615966796875,-1.0084075927734375,-0.3616943359375
0.0988922119140625,-1.0225372314453125,-0.3437652587890625
0.0516357421875,-1.0385589599609375,-0.221160888671875
0.06878662109375,-0.9946441650390624,-0.2324981689453125
0.0694580078125,-0.789886474609375,-0.3084869384765625
0.018218994140625,-0.68841552734375,-0.3173370361328125
0.0034637451171875,-0.6965179443359375,-0.2950592041015625
0.0186614990234375,-0.7304840087890625,-0.2874755859375
0.1229095458984375,-0.8094329833984375,-0.3419952392578125
0.152130126953125,-0.921417236328125,-0.3728790283203125
0.2497406005859375,-1.13818359375,-0.477386474609375
0.2691497802734375,-1.27569580078125,-0.5519866943359375
0.230072021484375,-1.5291595458984375,-0.481414794921875
0.17974853515625,-1.3951568603515625,-0.38543701171875
0.0539398193359375,-1.1223602294921875,-0.2410888671875
0.07720947265625,-1.1789093017578125,-0.1627960205078125
0.1308746337890625,-1.1089019775390625,-0.123992919921875
0.181060791015625,-0.9583282470703124,-0.1173858642578125
0.1638946533203125,-0.7683258056640625,-0.1463470458984375
0.1872406005859375,-0.7254486083984375,-0.1625823974609375
0.2032470703125,-0.7120513916015625,-0.1396026611328125
0.2234039306640625,-0.666656494140625,-0.081817626953125
0.273162841796875,-0.7881317138671875,-0.0406341552734375
0.311126708984375,-0.97802734375,-0.0287322998046875
0.339508056640625,-1.1277008056640625,-0.0626068115234375
0.281951904296875,-1.13037109375,-0.16253662109375
0.3012847900390625,-1.2897796630859375,-0.2186737060546875
0.2608795166015625,-1.107086181640625,-0.34796142578125
0.2220306396484375,-0.9956207275390624,-0.4141082763671875
0.1114959716796875,-1.017578125,-0.278289794921875
0.070068359375,-0.9585723876953124,-0.1975860595703125
-0.0058746337890625,-0.7357177734375,-0.2296142578125
-0.0111846923828125,-0.6572723388671875,-0.3847198486328125
0.0120391845703125,-0.6907958984375,-0.3928375244140625
0.0410919189453125,-0.7976837158203125,-0.4119720458984375
0.0980682373046875,-0.8069610595703125,-0.4751739501953125
0.1374359130859375,-0.89825439453125,-0.47607421875
0.13140869140625,-1.066009521484375,-0.4055023193359375
0.14044189453125,-1.1894378662109375,-0.39398193359375
0.145233154296875,-1.3568267822265625,-0.3133544921875
0.2027587890625,-1.463043212890625,-0.3254852294921875
0.2173614501953125,-1.1544342041015625,-0.337005615234375
0.1581268310546875,-0.989532470703125,-0.31610107421875
0.2035675048828125,-1.1412811279296875,-0.2461395263671875
0.26214599609375,-1.1294097900390625,-0.1596527099609375
0.272308349609375,-0.88079833984375,-0.1645050048828125
0.25469970703125,-0.7936553955078125,-0.17901611328125
0.154449462890625,-0.6584320068359375,-0.1431732177734375
0.167327880859375,-0.58447265625,-0.1259765625
0.213836669921875,-0.649505615234375,-0.1083831787109375
0.232818603515625,-0.7468414306640625,-0.1015625
0.2664642333984375,-0.939605712890625,-0.1265869140625
0.32476806640625,-1.124481201171875,-0.1684112548828125
0.306121826171875,-1.1826171875,-0.241363525390625
0.281494140625,-1.3675994873046875,-0.244903564453125
0.2175445556640625,-1.122528076171875,-0.3209075927734375
0.1240081787109375,-0.968475341796875,-0.356536865234375
0.0956268310546875,-1.1011199951171875,-0.268341064453125
0.0789947509765625,-1.021820068359375,-0.2263336181640625
0.03546142578125,-0.7861785888671875,-0.2234954833984375
0.01007080078125,-0.589263916015625,-0.24261474609375
0.065582275390625,-0.6343994140625,-0.248748779296875
0.12615966796875,-0.7255859375,-0.2595062255859375
0.212127685546875,-0.780303955078125,-0.3148040771484375
0.2543487548828125,-0.8296661376953125,-0.371612548828125
0.282257080078125,-1.0970916748046875,-0.4008331298828125
0.2987213134765625,-1.2559051513671875,-0.498809814453125
0.3344573974609375,-1.52606201171875,-0.4764862060546875
0.3162841796875,-1.4792022705078125,-0.507720947265625
0.0831298828125,-1.0835723876953125,-0.233734130859375
0.019500732421875,-1.1703033447265625,-0.227081298828125
0.040435791015625,-1.3266143798828125,-0.148193359375
0.0009613037109375,-1.0894927978515625,-0.03216552734375
0.1421356201171875,-0.80474853515625,-0.1117706298828125
0.2131805419921875,-0.7086181640625,-0.18280029296875
0.242523193359375,-0.6219329833984375,-0.224456787109375
0.2996826171875,-0.57470703125,-0.1855926513671875
0.279693603515625,-0.5921173095703125,-0.1080322265625
0.2766571044921875,-0.7667999267578125,-0.0530853271484375
0.2922821044921875,-0.9430694580078124,-0.03778076171875
0.332000732421875,-1.060882568359375,-0.1166229248046875
0.3151702880859375,-1.13641357421875,-0.2672119140625
0.3424530029296875,-1.4211273193359375,-0.3082122802734375
0.2130279541015625,-1.0965576171875,-0.3089599609375
0.1078338623046875,-1.029876708984375,-0.29693603515625
0.065185546875,-1.142486572265625,-0.1828460693359375
0.03375244140625,-1.0814056396484375,-0.1502227783203125
-0.0082550048828125,-0.731842041015625,-0.232208251953125
0.05303955078125,-0.6016998291015625,-0.294586181640625
0.099884033203125,-0.6088409423828125,-0.3222503662109375
0.19244384765625,-0.7248077392578125,-0.3647613525390625
0.259033203125,-0.766693115234375,-0.3894805908203125
0.256011962890625,-0.9467926025390624,-0.3767547607421875
0.21038818359375,-1.260589599609375,-0.4122161865234375
0.1522064208984375,-1.2312469482421875,-0.3657989501953125
0.2506866455078125,-1.63055419921875,-0.4363555908203125
0.1614990234375,-1.3736419677734375,-0.3939666748046875
0.083831787109375,-1.0733184814453125,-0.2285919189453125
0.1203460693359375,-1.3024444580078125,-0.146392822265625
0.151641845703125,-1.29620361328125,-0.106719970703125
0.1775970458984375,-1.0293426513671875,-0.1296844482421875
0.1769561767578125,-0.7625732421875,-0.1740570068359375
0.1709442138671875,-0.6801300048828125,-0.17291259765625
0.19384765625,-0.5780029296875,-0.1420745849609375
0.2674560546875,-0.555511474609375,-0.115478515625
0.3033447265625,-0.640899658203125,-0.08856201171875
0.2810821533203125,-0.734649658203125,-0.050933837890625
0.322662353515625,-0.9732818603515624,-0.064208984375
0.3076019287109375,-1.0534210205078125,-0.1118011474609375
0.3035736083984375,-1.302642822265625,-0.1610565185546875
0.2624969482421875,-1.2359466552734375,-0.221038818359375
0.203826904296875,-1.0957489013671875,-0.2935943603515625
0.1987457275390625,-1.1677703857421875,-0.3358612060546875
0.150177001953125,-1.181854248046875,-0.2425079345703125
0.1396942138671875,-0.9778900146484376,-0.2123260498046875
0.03045654296875,-0.6855010986328125,-0.213287353515625
0.022918701171875,-0.5933074951171875,-0.2459716796875
0.1036834716796875,-0.726043701171875,-0.2508087158203125
0.191162109375,-0.87646484375,-0.317169189453125
0.2629547119140625,-0.8802947998046875,-0.4239959716796875
0.3207855224609375,-1.185699462890625,-0.54266357421875
0.2566680908203125,-1.2075347900390625,-0.5723114013671875
0.2032318115234375,-1.279571533203125,-0.488006591796875
0.148895263671875,-1.3758392333984375,-0.466644287109375
-0.015289306640625,-1.16058349609375,-0.229248046875
0.0333709716796875,-1.155303955078125,-0.1832733154296875
0.0633697509765625,-1.4673004150390625,-0.083648681640625
0.146942138671875,-1.5967254638671875,0.027740478515625
0.2459716796875,-1.2847442626953125,-0.0638427734375
0.286865234375,-0.975494384765625,-0.254364013671875
0.2423858642578125,-0.8096160888671875,-0.272552490234375
0.1962432861328125,-0.6630706787109375,-0.174560546875
0.19818115234375,-0.57464599609375,-0.08685302734375
0.1539154052734375,-0.5018157958984375,-0.0112152099609375
0.12689208984375,-0.5059051513671875,0.006866455078125
0.2335052490234375,-0.5799407958984375,-0.0618896484375
0.3079681396484375,-0.6330108642578125,-0.1809234619140625
0.3607177734375,-1.004150390625,-0.2516632080078125
0.4238128662109375,-1.3665008544921875,-0.224365234375
0.391204833984375,-1.4178009033203125,-0.4376068115234375
0.2281341552734375,-1.668426513671875,-0.6574554443359375
0.163970947265625,-1.64471435546875,-0.4097442626953125
-0.00946044921875,-1.005584716796875,-0.117767333984375
-0.2755584716796875,-0.78021240234375,-0.043792724609375
-0.2108917236328125,-0.7256011962890625,0.018585205078125
-0.0205841064453125,-0.699981689453125,0.0191497802734375
0.2083740234375,-0.625274658203125,-0.0211639404296875
0.59222412109375,-0.6858062744140625,-0.0738525390625
0.763702392578125,-0.785797119140625,-0.2162933349609375
0.6974029541015625,-0.949310302734375,-0.3287506103515625
0.5149078369140625,-1.10162353515625,-0.4203338623046875
0.408721923828125,-1.285400390625,-0.598388671875
0.1775054931640625,-1.2328948974609375,-0.5859527587890625
0.051116943359375,-1.3953399658203125,-0.4697418212890625
-0.17327880859375,-1.763702392578125,-0.1846160888671875
-0.3408355712890625,-1.54534912109375,-0.0322265625
-0.0169830322265625,-1.1719818115234375,-0.1560211181640625
0.1874847412109375,-0.895965576171875,-0.391876220703125
0.2640380859375,-0.7022705078125,-0.451751708984375
0.1990203857421875,-0.534637451171875,-0.3690185546875
0.124908447265625,-0.38568115234375,-0.2642974853515625
0.1415252685546875,-0.39453125,-0.1774139404296875
0.2029266357421875,-0.450347900390625,-0.1317901611328125
0.3330535888671875,-0.64166259765625,-0.13677978515625
0.3925933837890625,-0.86590576171875,-0.186553955078125
0.46966552734375,-1.5097198486328125,-0.2738037109375
0.5060882568359375,-2.0820465087890625,-0.244232177734375
0.282684326171875,-1.5367889404296875,-0.2336883544921875
-0.1749267578125,-1.039764404296875,-0.296905517578125
-0.1294403076171875,-1.2027130126953125,-0.153167724609375
-0.0592498779296875,-1.0430450439453125,0.0531463623046875
0.121246337890625,-0.715667724609375,0.0402069091796875
0.380584716796875,-0.62677001953125,0.0200958251953125
0.4239501953125,-0.66412353515625,0.00482177734375
0.454193115234375,-0.683990478515625,0.004425048828125
0.475616455078125,-0.6553955078125,-0.079803466796875
0.464385986328125,-0.9305419921875,-0.16363525390625
0.430145263671875,-1.23614501953125,-0.2450103759765625
0.4365692138671875,-1.179656982421875,-0.42559814453125
0.4618072509765625,-1.28594970703125,-0.594329833984375
0.402618408203125,-1.13946533203125,-0.628875732421875
0.1833648681640625,-1.1609649658203125,-0.4356689453125
-0.1162109375,-1.2957305908203125,-0.2235565185546875
-0.0617218017578125,-1.4284515380859375,-0.245269775390625
-0.0244903564453125,-1.4246978759765625,-0.253448486328125
-0.216796875,-1.058685302734375,-0.362060546875
0.002532958984375,-0.74212646484375,-0.4109344482421875
0.2825775146484375,-0.670440673828125,-0.4297943115234375
0.2260589599609375,-0.576934814453125,-0.294677734375
0.2025909423828125,-0.5339508056640625,-0.176605224609375
0.198822021484375,-0.56781005859375,-0.1237335205078125
0.2691192626953125,-0.6800537109375,-0.1245880126953125
0.325042724609375,-0.9616241455078124,-0.1212921142578125
0.3497467041015625,-1.3633880615234375,-0.1155548095703125
0.4499053955078125,-1.755950927734375,-0.1312255859375
0.3992462158203125,-1.3019561767578125,-0.3410797119140625
0.14898681640625,-0.918670654296875,-0.5865936279296875
-0.0937042236328125,-0.9542083740234376,-0.18389892578125
-0.06976318359375,-1.031005859375,0.0483856201171875
-0.06414794921875,-0.851715087890625,0.014923095703125
0.0030364990234375,-0.757171630859375,-0.0865325927734375
0.1705780029296875,-0.70281982421875,-0.195465087890625
0.340057373046875,-0.688934326171875,-0.2885589599609375
0.436614990234375,-0.6894989013671875,-0.3416290283203125
0.4352569580078125,-0.846649169921875,-0.3665313720703125
0.3570404052734375,-1.1270751953125,-0.3510894775390625
0.3423309326171875,-1.16973876953125,-0.447265625
0.343780517578125,-1.3474578857421875,-0.483245849609375
0.3038787841796875,-1.2189483642578125,-0.5079193115234375
0.1826019287109375,-1.1197662353515625,-0.357635498046875
0.023162841796875,-1.1442108154296875,-0.171112060546875
-0.009429931640625,-1.2943572998046875,-0.0213165283203125
-0.012359619140625,-1.207611083984375,0.0065460205078125
0.071258544921875,-0.976593017578125,-0.122802734375
0.178466796875,-0.77069091796875,-0.2718963623046875
0.2981414794921875,-0.72613525390625,-0.3152008056640625
0.26983642578125,-0.6132965087890625,-0.244171142578125
0.2541046142578125,-0.6391143798828125,-0.1596832275390625
0.27117919921875,-0.701934814453125,-0.1168212890625
0.2971954345703125,-0.9120941162109376,-0.10101318359375
0.3253173828125,-1.1175079345703125,-0.078765869140625
0.2924652099609375,-1.1413116455078125,-0.141998291015625
0.326934814453125,-1.39544677734375,-0.134674072265625
0.3451995849609375,-1.205352783203125,-0.2823028564453125
0.2816162109375,-1.03118896484375,-0.4925689697265625
0.1317901611328125,-1.0818634033203125,-0.3057098388671875
0.0414581298828125,-1.0447540283203125,-0.1494140625
-0.0008697509765625,-0.8860015869140625,-0.083038330078125
-0.0191802978515625,-0.7134246826171875,-0.146759033203125
0.0972747802734375,-0.7087249755859375,-0.224639892578125
0.1577301025390625,-0.7511138916015625,-0.2415924072265625
0.29241943359375,-0.8176727294921875,-0.2520294189453125
0.34002685546875,-0.833099365234375,-0.28973388671875
0.3120880126953125,-0.9485931396484376,-0.3307952880859375
0.347747802734375,-1.1602325439453125,-0.43170166015625
0.3672332763671875,-1.4888153076171875,-0.471038818359375
0.342926025390625,-1.6880950927734375,-0.4452667236328125
0.05572509765625,-1.12933349609375,-0.2095794677734375
-0.0156097412109375,-0.8957672119140625,-0.1771240234375
0.0143890380859375,-1.0614471435546875,-0.0675048828125
0.0824127197265625,-1.027679443359375,-0.0922698974609375
0.240966796875,-0.8751220703125,-0.1715850830078125
0.23577880859375,-0.721221923828125,-0.23797607421875
0.26708984375,-0.661346435546875,-0.2349395751953125
0.2263946533203125,-0.5926055908203125,-0.168487548828125
0.2880401611328125,-0.60589599609375,-0.1166229248046875
0.3127593994140625,-0.7163238525390625,-0.0957183837890625
0.2832794189453125,-0.85308837890625,-0.1036834716796875
0.31201171875,-1.17340087890625,-0.119415283203125
0.25836181640625,-1.2151947021484375,-0.11688232421875
0.2465972900390625,-1.4616241455078125,-0.1080474853515625
0.1771697998046875,-1.3088226318359375,-0.1650390625
0.130279541015625,-1.03216552734375,-0.300079345703125
0.0809173583984375,-1.0414886474609375,-0.3139190673828125
0.077362060546875,-1.0457916259765625,-0.2397613525390625
0.0191192626953125,-0.865020751953125,-0.1833038330078125
0.0323486328125,-0.6649322509765625,-0.23046875
0.1162872314453125,-0.6200103759765625,-0.252471923828125
0.1687469482421875,-0.6632843017578125,-0.279327392578125
0.1662139892578125,-0.7312774658203125,-0.3003692626953125
0.1784515380859375,-0.7711944580078125,-0.3178863525390625
0.2443389892578125,-0.841796875,-0.3500518798828125
0.32769775390625,-1.13397216796875,-0.509307861328125
0.3383941650390625,-1.335357666015625,-0.5670013427734375
0.2893829345703125,-1.609649658203125,-0.4679412841796875
0.205902099609375,-1.4136810302734375,-0.309967041015625
0.0307464599609375,-1.00115966796875,-0.203582763671875
0.09893798828125,-1.2181396484375,-0.16290283203125
0.0502471923828125,-1.1917572021484375,-0.0912628173828125
0.11572265625,-0.939483642578125,-0.0896453857421875
0.2233428955078125,-0.7389678955078125,-0.1770172119140625
0.241973876953125,-0.7456207275390625,-0.2126922607421875
0.242401123046875,-0.69146728515625,-0.1904144287109375
0.2900238037109375,-0.614501953125,-0.1336517333984375
0.304534912109375,-0.63507080078125,-0.082977294921875
0.28466796875,-0.7321319580078125,-0.071685791015625
0.3077392578125,-0.9122467041015624,-0.097686767578125
0.3153839111328125,-0.9933624267578124,-0.1414337158203125
0.311187744140625,-1.14697265625,-0.221221923828125
0.304290771484375,-1.4210205078125,-0.1998138427734375
0.2156219482421875,-1.096466064453125,-0.3419036865234375
0.1002655029296875,-0.9973602294921876,-0.3969879150390625
0.0646514892578125,-1.097412109375,-0.3258514404296875
0.082305908203125,-1.0501708984375,-0.2420196533203125
0.0101470947265625,-0.8447265625,-0.1822662353515625
0.070068359375,-0.7140655517578125,-0.20745849609375
0.1122589111328125,-0.7277069091796875,-0.26190185546875
0.171722412109375,-0.7766571044921875,-0.2971954345703125
0.2472076416015625,-0.8473968505859375,-0.3323516845703125
0.2444610595703125,-0.8489837646484375,-0.34423828125
0.289947509765625,-1.0812835693359375,-0.422607421875
0.2717132568359375,-1.1410675048828125,-0.4596405029296875
0.26751708984375,-1.3599853515625,-0.4038848876953125
0.2148284912109375,-1.3621368408203125,-0.380767822265625
0.1393585205078125,-1.151763916015625,-0.2371368408203125
0.201019287109375,-1.2983551025390625,-0.2164306640625
0.1246185302734375,-1.439697265625,-0.12646484375
0.154815673828125,-1.15411376953125,-0.113006591796875
0.1685791015625,-0.8648681640625,-0.1904144287109375
0.1493988037109375,-0.773468017578125,-0.1920623779296875
0.17413330078125,-0.715667724609375,-0.1502227783203125
0.2462005615234375,-0.677001953125,-0.11846923828125
0.2728729248046875,-0.7294921875,-0.0570068359375
0.26483154296875,-0.7751617431640625,-0.0218048095703125
0.2701568603515625,-0.9539337158203124,0.000244140625
0.3006591796875,-0.9639434814453124,-0.0393829345703125
0.3012847900390625,-1.0715179443359375,-0.143585205078125
0.344573974609375,-1.2040252685546875,-0.250762939453125
0.3178863525390625,-1.065216064453125,-0.3784332275390625
0.27203369140625,-1.0291595458984375,-0.3968658447265625
0.192047119140625,-1.11663818359375,-0.294708251953125
0.1285247802734375,-1.0355377197265625,-0.225616455078125
0.0892181396484375,-0.874298095703125,-0.2286834716796875
0.0040283203125,-0.743133544921875,-0.2351531982421875
-0.0323333740234375,-0.7801055908203125,-0.2145233154296875
-0.030426025390625,-0.825286865234375,-0.2764129638671875
0.0921173095703125,-0.861968994140625,-0.3304901123046875
0.1788482666015625,-0.8740081787109375,-0.3585052490234375
0.2657470703125,-1.075592041015625,-0.38055419921875
0.30615234375,-1.148040771484375,-0.487945556640625
0.3162384033203125,-1.431793212890625,-0.462066650390625
0.3230438232421875,-1.5206298828125,-0.4885711669921875
0.135009765625,-1.099578857421875,-0.3517608642578125
0.0881195068359375,-1.0843353271484375,-0.2338409423828125
0.072021484375,-1.2188720703125,-0.10369873046875
0.1206817626953125,-1.0879058837890625,-0.0614013671875
0.164093017578125,-0.8407135009765625,-0.124176025390625
0.176910400390625,-0.755767822265625,-0.1469268798828125
0.2066497802734375,-0.727691650390625,-0.13995361328125
0.22515869140625,-0.7274627685546875,-0.1188507080078125
0.2561492919921875,-0.745086669921875,-0.0360565185546875
0.3463897705078125,-0.7863006591796875,-0.0295257568359375
0.4536895751953125,-0.9826202392578124,-0.0985107421875
0.4191741943359375,-1.0639190673828125,-0.222198486328125
0.35723876953125,-1.2121124267578125,-0.2470703125
0.339263916015625,-1.214996337890625,-0.2877655029296875
0.287353515625,-0.916229248046875,-0.4384002685546875
0.1858367919921875,-0.84039306640625,-0.3484954833984375
0.1214141845703125,-0.90179443359375,-0.1852569580078125
0.0721588134765625,-0.8899688720703125,-0.1512603759765625
-0.0061798095703125,-0.7471466064453125,-0.178680419921875
0.087982177734375,-0.7026214599609375,-0.2548675537109375
0.1441802978515625,-0.770050048828125,-0.309814453125
0.1981201171875,-0.8338775634765625,-0.3399658203125
0.23687744140625,-0.9266815185546876,-0.339935302734375
0.2379913330078125,-0.9820709228515624,-0.33587646484375
0.2613525390625,-1.1226654052734375,-0.3914947509765625
0.29736328125,-1.19610595703125,-0.4720458984375
0.3017730712890625,-1.3330078125,-0.476165771484375
0.31964111328125,-1.3009490966796875,-0.5277252197265625
0.2244873046875,-1.0823974609375,-0.3707427978515625
0.16082763671875,-1.1401519775390625,-0.287506103515625
0.1010284423828125,-1.2385711669921875,-0.1811065673828125
0.0792694091796875,-1.1051177978515625,-0.136962890625
0.0823974609375,-0.8593597412109375,-0.1328887939453125
0.09185791015625,-0.7262725830078125,-0.1809844970703125
0.16748046875,-0.7315826416015625,-0.1806793212890625
0.2547454833984375,-0.7610626220703125,-0.155731201171875
0.3137664794921875,-0.80126953125,-0.126861572265625
0.341278076171875,-0.9400482177734376,-0.106689453125
0.305633544921875,-1.0960845947265625,-0.093536376953125
0.2767333984375,-1.04803466796875,-0.1256103515625
0.2525787353515625,-1.1634674072265625,-0.157623291015625
0.2268218994140625,-1.0898590087890625,-0.1868743896484375
0.218048095703125,-0.9754486083984376,-0.2749786376953125
0.217041015625,-0.935302734375,-0.363250732421875
0.2227783203125,-1.031158447265625,-0.3499298095703125
0.174102783203125,-0.975982666015625,-0.306396484375
0.0161590576171875,-0.757843017578125,-0.1984405517578125
0.00738525390625,-0.68212890625,-0.1669921875
0.064208984375,-0.748504638671875,-0.1910858154296875
0.121246337890625,-0.853302001953125,-0.284759521484375
0.160675048828125,-0.9244384765625,-0.244781494140625
0.2459869384765625,-1.0055084228515625,-0.3033905029296875
0.3058624267578125,-1.1892242431640625,-0.4518585205078125
0.349395751953125,-1.1437225341796875,-0.5807647705078125
0.30401611328125,-1.2843475341796875,-0.5281982421875
0.2256927490234375,-1.2440338134765625,-0.4348297119140625
0.112091064453125,-1.1307525634765625,-0.227783203125
0.10137939453125,-1.3251190185546875,-0.1471099853515625
0.14703369140625,-1.3707275390625,-0.14410400390625
0.1613006591796875,-1.1503448486328125,-0.1587066650390625
0.1575469970703125,-0.883514404296875,-0.2173614501953125
0.149444580078125,-0.7934722900390625,-0.2290191650390625
0.17889404296875,-0.7873687744140625,-0.1808013916015625
0.2425079345703125,-0.76531982421875,-0.1255035400390625
0.273773193359375,-0.789703369140625,-0.05035400390625
0.2820587158203125,-0.8677978515625,-0.0104217529296875
0.266845703125,-1.0343475341796875,0.0265655517578125
0.2818450927734375,-0.9785919189453124,-0.0133056640625
0.2987518310546875,-1.1565093994140625,-0.0944061279296875
0.2820587158203125,-1.0500946044921875,-0.1806488037109375
0.2332305908203125,-0.94085693359375,-0.2774810791015625
0.302764892578125,-1.0836639404296875,-0.3500213623046875
0.3071136474609375,-1.1630096435546875,-0.30108642578125
0.2091064453125,-0.9709930419921876,-0.2341156005859375
0.007659912109375,-0.7431640625,-0.20697021484375
-0.0153656005859375,-0.683837890625,-0.22784423828125
0.041229248046875,-0.7565155029296875,-0.2035675048828125
0.136505126953125,-0.8920135498046875,-0.2310028076171875
0.309417724609375,-1.0298614501953125,-0.3348236083984375
0.398651123046875,-1.0735626220703125,-0.4708251953125
0.4772491455078125,-1.3175201416015625,-0.6356964111328125
0.35565185546875,-1.2378997802734375,-0.5952911376953125
0.335784912109375,-1.4713897705078125,-0.5734100341796875
0.12445068359375,-1.3384857177734375,-0.3312225341796875
-0.06634521484375,-1.008148193359375,-0.1975860595703125
0.06817626953125,-1.2034912109375,-0.167083740234375
0.1336212158203125,-1.31982421875,-0.1011962890625
0.2252349853515625,-1.125701904296875,-0.1147308349609375
0.2390899658203125,-0.9120635986328124,-0.2187042236328125
0.1957855224609375,-0.8397674560546875,-0.2400665283203125
0.19464111328125,-0.742919921875,-0.170135498046875
0.27203369140625,-0.727203369140625,-0.080322265625
0.3010406494140625,-0.70953369140625,-0.018157958984375
0.283905029296875,-0.8194122314453125,0.0438690185546875
0.280364990234375,-1.0450439453125,0.0399017333984375
0.2510528564453125,-0.9591522216796876,-0.010955810546875
0.2718048095703125,-0.927398681640625,-0.21722412109375
0.342315673828125,-1.14300537109375,-0.27801513671875
0.2507781982421875,-0.9987945556640624,-0.22955322265625
0.2009124755859375,-1.11126708984375,-0.229949951171875
0.1447601318359375,-1.1384735107421875,-0.3705596923828125
0.079681396484375,-1.153778076171875,-0.3888702392578125
0.0921630859375,-0.955108642578125,-0.391326904296875
0.0148162841796875,-0.817169189453125,-0.27740478515625
0.040985107421875,-0.821197509765625,-0.2384796142578125
0.0841827392578125,-0.8664703369140625,-0.2353363037109375
0.2049713134765625,-0.8529205322265625,-0.3013458251953125
0.2859954833984375,-0.8798980712890625,-0.377838134765625
0.407928466796875,-1.107818603515625,-0.505950927734375
0.4735260009765625,-1.233917236328125,-0.6099090576171875
0.355072021484375,-1.31549072265625,-0.5298004150390625
0.2807159423828125,-1.410980224609375,-0.4797821044921875
0.08843994140625,-1.233123779296875,-0.26483154296875
-0.035919189453125,-1.097198486328125,-0.1733856201171875
0.0785369873046875,-1.3006591796875,-0.107452392578125
0.151031494140625,-1.3298797607421875,-0.1052703857421875
0.218902587890625,-1.1258544921875,-0.181884765625
0.2081298828125,-0.94146728515625,-0.223175048828125
0.18646240234375,-0.8027191162109375,-0.183135986328125
0.2163848876953125,-0.6908111572265625,-0.0821990966796875
0.261627197265625,-0.6121826171875,-0.0101165771484375
0.274200439453125,-0.6601715087890625,0.04644775390625
0.263397216796875,-0.7129669189453125,0.05853271484375
0.2970123291015625,-0.9073333740234376,0.052825927734375
0.328399658203125,-0.8854827880859375,-0.0407867431640625
0.3641204833984375,-1.1702423095703125,-0.1398773193359375
0.4254150390625,-1.29937744140625,-0.2601470947265625
0.37371826171875,-1.130950927734375,-0.44146728515625
0.270538330078125,-1.09417724609375,-0.4788970947265625
0.0535125732421875,-1.2483062744140625,-0.2213897705078125
-0.022003173828125,-1.1602935791015625,-0.1561126708984375
-0.247955322265625,-0.824188232421875,-0.1851654052734375
-0.0550384521484375,-0.7110443115234375,-0.242156982421875
0.018951416015625,-0.724639892578125,-0.25311279296875
0.206298828125,-0.770050048828125,-0.2758331298828125
0.35211181640625,-0.8379058837890625,-0.2959442138671875
0.37188720703125,-0.8816375732421875,-0.3457794189453125
0.403045654296875,-1.1675872802734375,-0.4659423828125
0.3403167724609375,-1.2316741943359375,-0.550262451171875
0.2881011962890625,-1.32098388671875,-0.491943359375
0.2211456298828125,-1.3834381103515625,-0.4705963134765625
0.10546875,-1.1539154052734375,-0.2350921630859375
0.03839111328125,-1.1149139404296875,-0.14373779296875
0.0734405517578125,-1.3087310791015625,-0.0883636474609375
0.1094512939453125,-1.169342041015625,-0.099151611328125
0.177001953125,-0.917510986328125,-0.1544342041015625
0.19744873046875,-0.71405029296875,-0.231201171875
0.2298431396484375,-0.6247406005859375,-0.235504150390625
0.2666778564453125,-0.670440673828125,-0.180633544921875
0.28387451171875,-0.6470794677734375,-0.084930419921875
0.2972412109375,-0.7161102294921875,-0.027313232421875
0.280242919921875,-0.8688812255859375,-0.011474609375
0.2930145263671875,-1.0702362060546875,-0.029693603515625
0.25128173828125,-0.991973876953125,-0.134368896484375
0.2859039306640625,-1.327484130859375,-0.119903564453125
0.2328948974609375,-1.165069580078125,-0.225006103515625
0.21697998046875,-1.1284332275390625,-0.29412841796875
0.217132568359375,-1.212890625,-0.3433074951171875
0.14739990234375,-1.10382080078125,-0.352020263671875
0.0144195556640625,-0.799041748046875,-0.2940521240234375
-0.00604248046875,-0.5964813232421875,-0.2536163330078125
0.05181884765625,-0.6020050048828125,-0.216033935546875
0.0799560546875,-0.69232177734375,-0.21038818359375
0.2187652587890625,-0.824066162109375,-0.270782470703125
0.3234405517578125,-0.929595947265625,-0.3580780029296875
0.4036102294921875,-1.096527099609375,-0.5517578125
0.3890380859375,-1.304107666015625,-0.7119903564453125
0.222320556640625,-1.2137451171875,-0.5198974609375
0.15777587890625,-1.359619140625,-0.4253692626953125
0.0330810546875,-1.1879730224609375,-0.2389678955078125
0.0324554443359375,-1.087890625,-0.1302032470703125
0.1278076171875,-1.313690185546875,-0.109954833984375
0.1415557861328125,-1.310791015625,-0.0848236083984375
0.1931915283203125,-1.040008544921875,-0.1660614013671875
0.2022552490234375,-0.828826904296875,-0.2255706787109375
0.1940460205078125,-0.7664031982421875,-0.204132080078125
0.2122039794921875,-0.726806640625,-0.116302490234375
0.2659454345703125,-0.652069091796875,-0.0616607666015625
0.2730255126953125,-0.6317291259765625,-0.00384521484375
0.25152587890625,-0.66497802734375,0.0210113525390625
0.2954559326171875,-0.821380615234375,-0.0067901611328125
0.3507537841796875,-0.812164306640625,-0.1213836669921875
0.3589935302734375,-0.9462432861328124,-0.284423828125
0.42022705078125,-1.3387603759765625,-0.291961669921875
0.3491973876953125,-1.17156982421875,-0.3457489013671875
0.1539306640625,-1.101348876953125,-0.4108428955078125
0.0263519287109375,-1.3311004638671875,-0.3518829345703125
-0.0625,-1.1963958740234375,-0.26239013671875
-0.171783447265625,-0.8399505615234375,-0.2002716064453125
-0.0330047607421875,-0.648193359375,-0.21112060546875
0.07598876953125,-0.6643829345703125,-0.213775634765625
0.2375640869140625,-0.693023681640625,-0.2126007080078125
0.3956756591796875,-0.7714691162109375,-0.2881011962890625
0.437469482421875,-0.798797607421875,-0.3612060546875
0.4578399658203125,-1.04156494140625,-0.475982666015625
0.4896697998046875,-1.324554443359375,-0.641082763671875
0.421844482421875,-1.46417236328125,-0.5762786865234375
0.2842559814453125,-1.3332977294921875,-0.4703521728515625
0.162933349609375,-1.071929931640625,-0.271148681640625
-0.0556793212890625,-1.0759429931640625,-0.1368865966796875
0.0787353515625,-1.3654327392578125,-0.0578765869140625
0.1534576416015625,-1.429656982421875,-0.0179443359375
0.1171112060546875,-1.116973876953125,-0.106536865234375
0.1639404296875,-0.8953704833984375,-0.2501983642578125
0.19488525390625,-0.74688720703125,-0.2635498046875
0.206268310546875,-0.6293792724609375,-0.1527557373046875
0.288299560546875,-0.583038330078125,-0.0980377197265625
0.3202972412109375,-0.5960845947265625,-0.0287017822265625
0.2783050537109375,-0.6419219970703125,0.0449981689453125
0.2904205322265625,-0.8109893798828125,0.0438690185546875
0.2914276123046875,-0.9369964599609376,-0.017547607421875
0.316802978515625,-0.9360504150390624,-0.20037841796875
0.4449310302734375,-1.1630859375,-0.4847412109375
0.5063018798828125,-1.110809326171875,-0.893463134765625
0.22943115234375,-0.8352203369140625,-0.67218017578125
0.0526885986328125,-1.187652587890625,-0.301513671875
-0.0978240966796875,-1.312835693359375,-0.22564697265625
-0.169921875,-1.178253173828125,-0.397674560546875
-0.2194976806640625,-0.80596923828125,-0.4854278564453125
-0.1293792724609375,-0.6803741455078125,-0.4772186279296875
0.0324859619140625,-0.610809326171875,-0.558746337890625
0.2569427490234375,-0.5622100830078125,-0.7630615234375
0.429443359375,-0.6550445556640625,-0.8268280029296875
0.3469696044921875,-0.83111572265625,-0.7372894287109375
0.49224853515625,-1.1282501220703125,-0.6415252685546875
0.50201416015625,-1.28619384765625,-0.412628173828125
0.4306640625,-1.5341033935546875,-0.0896148681640625
0.1234893798828125,-1.902008056640625,0.1897125244140625
-0.0324859619140625,-1.113311767578125,0.0926513671875
0.0717315673828125,-1.1834869384765625,0.0222320556640625
0.50982666015625,-1.3963623046875,-0.1274871826171875
0.52301025390625,-1.1646575927734375,-0.136566162109375
0.4313201904296875,-0.9772186279296876,0.07208251953125
0.331268310546875,-0.9202728271484376,0.153472900390625
0.395294189453125,-0.954315185546875,0.126739501953125
0.507659912109375,-0.8823089599609375,0.16534423828125
0.4407958984375,-0.76031494140625,0.1941680908203125
0.3938446044921875,-0.719024658203125,0.1766357421875
0.27899169921875,-0.853485107421875,0.226715087890625
-0.200469970703125,-0.712921142578125,0.331268310546875
-0.2174224853515625,-0.998992919921875,0.173065185546875
0.3714599609375,-0.9564361572265624,-0.1671142578125
0.248870849609375,-1.2533721923828125,-0.1570587158203125
0.253753662109375,-1.17120361328125,-0.1108245849609375
0.384674072265625,-1.27764892578125,-0.0935211181640625
0.1465911865234375,-1.1853179931640625,-0.121673583984375
0.375213623046875,-1.3538055419921875,0.0408172607421875
0.366973876953125,-1.2790374755859375,-0.0498046875
-0.0051727294921875,-1.149261474609375,0.0496063232421875
0.277984619140625,-0.9794769287109376,-0.0537872314453125
0.309600830078125,-1.2868499755859375,-1.212371826171875
0.01287841796875,-0.8325653076171875,-0.095489501953125
0.43023681640625,-0.9593505859375,-1.215667724609375
0.25238037109375,-0.7930755615234375,-0.8769989013671875
0.139434814453125,-0.710296630859375,-0.699310302734375
0.0139007568359375,-0.4898529052734375,-0.7233428955078125
0.0467987060546875,-0.4390106201171875,-0.8276824951171875
-0.082794189453125,-0.4164276123046875,-0.8206024169921875
0.19451904296875,-0.53338623046875,-1.0539703369140625
0.0615997314453125,-0.4974517822265625,-0.9336395263671876
0.12554931640625,-0.5482635498046875,-0.8636322021484375
0.174774169921875,-0.3990325927734375,-0.9400787353515624
0.003509521484375,-0.2978973388671875,-0.8621368408203125
-0.0908050537109375,-0.3392181396484375,-0.9104766845703124
-0.005157470703125,-0.439056396484375,-0.95355224609375
0.005859375,-0.422149658203125,-0.929107666015625
-0.0145416259765625,-0.397674560546875,-0.9235076904296876
0.020538330078125,-0.407958984375,-0.93603515625
-0.129119873046875,-0.3671722412109375,-0.8106689453125
-0.0034942626953125,-0.4107513427734375,-0.957244873046875
