AccelerationX,AccelerationY,AccelerationZ
0.0137939453125,-0.0854644775390625,-1.0203704833984375
0.0066680908203125,-0.063720703125,-1.0677490234375
0.032440185546875,-0.0750274658203125,-0.976318359375
0.025543212890625,-0.022857666015625,-1.05780029296875
-0.010009765625,0.0440673828125,-1.017913818359375
0.00958251953125,-0.0604095458984375,-0.9304351806640624
0.059661865234375,-0.14031982421875,-0.8702850341796875
0.1005401611328125,-0.100799560546875,-0.8857269287109375
0.2580718994140625,-0.0606689453125,-1.18011474609375
0.2352142333984375,-0.3095855712890625,-1.0660858154296875
0.2163238525390625,-0.0575714111328125,-0.95001220703125
0.2602081298828125,-0.1311798095703125,-0.984710693359375
0.3508148193359375,-0.23382568359375,-0.97723388671875
0.3157501220703125,-0.1527862548828125,-0.9688262939453124
0.2078094482421875,-0.3066253662109375,-0.79937744140625
0.3454742431640625,-0.3370361328125,-0.8656005859375
0.2019500732421875,-0.0905303955078125,-0.770294189453125
0.1062469482421875,-0.0729827880859375,-0.69976806640625
0.1612396240234375,-0.084716796875,-0.7461395263671875
0.1392974853515625,-0.115203857421875,-0.879791259765625
0.219879150390625,-0.0664825439453125,-0.9334716796875
0.20391845703125,0.0705718994140625,-1.0821990966796875
0.3808746337890625,-0.098175048828125,-1.0156707763671875
0.3595123291015625,0.0364837646484375,-1.2258453369140625
0.438262939453125,0.0224151611328125,-1.0703277587890625
0.3900604248046875,0.1013641357421875,-1.096221923828125
0.372039794921875,0.071044921875,-0.990692138671875
0.3532867431640625,0.0532379150390625,-1.025634765625
0.3682708740234375,0.006378173828125,-1.01422119140625
0.3463287353515625,-0.0863494873046875,-1.000244140625
0.36083984375,-0.02178955078125,-1.1772613525390625
0.3567962646484375,-0.021484375,-1.242767333984375
0.2939605712890625,-0.01873779296875,-1.108978271484375
0.269073486328125,-0.0220794677734375,-1.0124664306640625
0.233001708984375,0.0071563720703125,-0.9766693115234376
0.2478790283203125,0.034027099609375,-1.0088653564453125
0.2486114501953125,0.04107666015625,-1.046356201171875
0.2868804931640625,0.0527496337890625,-1.02105712890625
0.298248291015625,0.111724853515625,-0.940887451171875
0.29473876953125,0.131317138671875,-0.91387939453125
0.2873077392578125,0.126220703125,-0.91229248046875
0.2528228759765625,0.0989990234375,-0.930328369140625
0.2504730224609375,0.119354248046875,-0.9769439697265624
0.2640228271484375,0.1795501708984375,-0.966064453125
0.25384521484375,0.20556640625,-1.045989990234375
0.2710418701171875,0.1916961669921875,-1.032470703125
0.3327178955078125,0.3324127197265625,-1.231292724609375
0.2770843505859375,0.320770263671875,-1.184967041015625
0.2075958251953125,0.227874755859375,-1.0873565673828125
0.0798797607421875,0.22027587890625,-1.0885009765625
0.0113677978515625,0.064544677734375,-0.8876495361328125
0.0225830078125,0.141265869140625,-0.825592041015625
0.064056396484375,0.3422088623046875,-1.08837890625
0.0974273681640625,0.4832305908203125,-1.219390869140625
0.182830810546875,0.4693756103515625,-0.99664306640625
0.1808624267578125,0.259185791015625,-0.774932861328125
0.0934295654296875,0.212005615234375,-0.7689056396484375
0.079376220703125,0.212860107421875,-0.724639892578125
0.0706787109375,0.2302093505859375,-0.7754058837890625
0.119049072265625,0.3088226318359375,-0.8220367431640625
0.193450927734375,0.2735137939453125,-0.841552734375
0.2177581787109375,0.2259979248046875,-0.8468780517578125
0.1807708740234375,0.1025848388671875,-0.897674560546875
0.1973876953125,0.0322723388671875,-0.8488311767578125
0.1034088134765625,0.0868988037109375,-0.9020233154296876
0.083770751953125,0.12774658203125,-1.041839599609375
0.08984375,0.1789398193359375,-1.1156768798828125
0.1783905029296875,0.220367431640625,-1.303009033203125
0.257110595703125,0.2286376953125,-1.23681640625
0.2341156005859375,0.118499755859375,-0.9692535400390624
0.20135498046875,0.1083526611328125,-1.043243408203125
0.2304229736328125,0.1707305908203125,-1.218963623046875
0.2398529052734375,0.0612335205078125,-1.01934814453125
0.17987060546875,0.04608154296875,-0.93670654296875
0.182373046875,-0.029541015625,-0.881439208984375
0.279693603515625,0.0509185791015625,-1.0342864990234375
0.287506103515625,0.1071624755859375,-1.2666778564453125
0.3087921142578125,-0.0397491455078125,-1.1605987548828125
0.3730010986328125,-0.085174560546875,-0.9463348388671876
0.368194580078125,0.0462799072265625,-0.8887939453125
0.3729705810546875,0.1762542724609375,-0.901336669921875
0.365234375,0.2467041015625,-0.8823394775390625
0.3594207763671875,0.235809326171875,-0.896514892578125
0.3553009033203125,0.20343017578125,-0.9290313720703124
0.36920166015625,0.196746826171875,-0.9514312744140624
0.4076385498046875,0.18780517578125,-0.9776611328125
0.3728485107421875,0.1533050537109375,-0.864501953125
0.3125762939453125,0.15301513671875,-0.832275390625
0.2771453857421875,0.1331939697265625,-0.8612823486328125
0.258514404296875,0.160400390625,-0.950408935546875
0.244537353515625,0.2012481689453125,-1.0008544921875
0.30682373046875,0.2197113037109375,-1.0989532470703125
0.35882568359375,0.25213623046875,-1.201171875
0.33642578125,0.144622802734375,-0.98577880859375
0.268218994140625,0.1150970458984375,-0.8859405517578125
0.16058349609375,0.097076416015625,-0.789703369140625
0.112396240234375,0.0030670166015625,-0.7904052734375
0.1148834228515625,0.0622100830078125,-0.9897003173828124
0.1991729736328125,0.232574462890625,-1.1735992431640625
0.2736053466796875,0.2622222900390625,-1.101593017578125
0.2528533935546875,0.175994873046875,-0.9503936767578124
0.119293212890625,0.09112548828125,-0.9055938720703124
0.1348419189453125,0.110443115234375,-0.9093475341796876
0.134857177734375,0.1410369873046875,-0.9172210693359376
0.179168701171875,0.176513671875,-0.888519287109375
0.234222412109375,0.163238525390625,-0.90032958984375
0.2730560302734375,0.122711181640625,-0.9245758056640624
0.2791748046875,0.11822509765625,-0.933746337890625
0.3008575439453125,0.0932159423828125,-0.95074462890625
0.34100341796875,-0.007415771484375,-1.075439453125
0.4229736328125,-0.162933349609375,-1.0577392578125
0.2981109619140625,-0.0792694091796875,-1.0146636962890625
0.185455322265625,0.043548583984375,-1.0076446533203125
0.1675872802734375,-0.0069122314453125,-1.04583740234375
0.21063232421875,0.06622314453125,-1.1694183349609375
0.322021484375,0.08074951171875,-1.2073516845703125
0.32623291015625,-0.00439453125,-1.103179931640625
0.2782135009765625,0.0179290771484375,-1.0594482421875
0.2606964111328125,0.0462493896484375,-0.9832916259765624
0.2801055908203125,0.05645751953125,-0.8604278564453125
0.30706787109375,0.225738525390625,-0.9875335693359376
0.4127655029296875,0.2365264892578125,-1.0910797119140625
0.3253173828125,0.2316741943359375,-1.22357177734375
0.262481689453125,0.2373199462890625,-1.200286865234375
0.262786865234375,0.2371368408203125,-1.047943115234375
0.2945098876953125,0.2869720458984375,-0.96539306640625
0.2843170166015625,0.2946014404296875,-0.9226837158203124
0.277923583984375,0.2925567626953125,-0.883880615234375
0.2890625,0.294891357421875,-0.835968017578125
0.2613525390625,0.26416015625,-0.8115234375
0.2424163818359375,0.1988677978515625,-0.80157470703125
0.232513427734375,0.162200927734375,-0.7977752685546875
0.233367919921875,0.1908416748046875,-0.8286590576171875
0.2310943603515625,0.2230682373046875,-0.8648223876953125
0.2137451171875,0.2049102783203125,-0.9168701171875
0.1966094970703125,0.1952056884765625,-0.970489501953125
0.231964111328125,0.215911865234375,-1.055633544921875
0.301849365234375,0.30511474609375,-1.19561767578125
0.3391571044921875,0.2755889892578125,-1.1122589111328125
0.324005126953125,0.15838623046875,-0.984344482421875
0.23876953125,0.15777587890625,-0.9813385009765624
0.225341796875,0.1095733642578125,-1.0125274658203125
0.2342681884765625,0.0457611083984375,-0.98992919921875
0.2081298828125,-0.01141357421875,-0.937255859375
0.207916259765625,-0.0072784423828125,-0.9881591796875
0.2220306396484375,0.118682861328125,-1.143157958984375
0.251068115234375,0.1621856689453125,-1.1367645263671875
0.2704315185546875,0.105804443359375,-0.9899749755859376
0.215576171875,0.0902557373046875,-0.9385223388671876
0.1764984130859375,0.141998291015625,-0.9858856201171876
0.1994476318359375,0.1960906982421875,-0.9725799560546876
0.206817626953125,0.2309417724609375,-0.9497528076171876
0.2276611328125,0.2343902587890625,-0.9501190185546876
0.2462615966796875,0.224334716796875,-0.9457244873046876
0.2418670654296875,0.2119598388671875,-0.9489288330078124
0.23602294921875,0.2071380615234375,-0.9462738037109376
0.23870849609375,0.19903564453125,-0.9113311767578124
0.2428436279296875,0.210235595703125,-0.925262451171875
0.2672882080078125,0.2548675537109375,-0.9476470947265624
0.3184814453125,0.245086669921875,-0.91839599609375
0.386962890625,0.3186492919921875,-0.990142822265625
0.42205810546875,0.275299072265625,-0.9434661865234376
0.4179534912109375,0.236358642578125,-0.918975830078125
0.425506591796875,0.2845916748046875,-0.911041259765625
0.4128265380859375,0.310546875,-0.8929443359375
0.398223876953125,0.2665252685546875,-0.8855743408203125
0.397674560546875,0.2135162353515625,-0.896087646484375
0.4202880859375,0.211212158203125,-0.9316558837890624
0.4464111328125,0.20086669921875,-0.97039794921875
0.483001708984375,0.191070556640625,-0.9649810791015624
0.5081329345703125,0.2053985595703125,-0.9539031982421876
0.5105438232421875,0.221466064453125,-0.9657745361328124
0.4753265380859375,0.245513916015625,-0.92779541015625
0.4530792236328125,0.25433349609375,-0.9102935791015624
0.4374542236328125,0.270050048828125,-0.9200286865234376
0.4266357421875,0.29168701171875,-0.9222564697265624
0.4096221923828125,0.27178955078125,-0.9113616943359376
0.385711669921875,0.2551116943359375,-0.9327545166015624
0.3612060546875,0.246307373046875,-0.9638671875
0.343048095703125,0.2341461181640625,-0.9574737548828124
0.3243865966796875,0.23712158203125,-0.94927978515625
0.2903900146484375,0.23431396484375,-0.932586669921875
0.234527587890625,0.2345733642578125,-0.909393310546875
0.214691162109375,0.233642578125,-0.9529571533203124
0.212249755859375,0.3388519287109375,-1.0561676025390625
0.224822998046875,0.35223388671875,-0.9925537109375
0.2171173095703125,0.2737884521484375,-0.9257659912109376
0.1222686767578125,0.1248779296875,-0.87237548828125
0.1320037841796875,0.014068603515625,-0.8411865234375
0.1231689453125,0.06707763671875,-0.876007080078125
0.1166229248046875,0.2032928466796875,-1.0207977294921875
0.1658477783203125,0.2531890869140625,-1.105865478515625
0.16009521484375,0.226470947265625,-1.0976104736328125
0.0682220458984375,0.14129638671875,-1.0924835205078125
0.0470123291015625,0.050048828125,-1.0954742431640625
0.1564178466796875,0.1041107177734375,-0.93072509765625
0.12335205078125,0.1466522216796875,-0.923370361328125
0.0684967041015625,0.1411895751953125,-0.976959228515625
0.0851593017578125,0.1208648681640625,-1.0080108642578125
0.044586181640625,0.1261138916015625,-1.0873870849609375
0.0416107177734375,0.0949249267578125,-1.0906219482421875
0.066619873046875,0.0949249267578125,-1.0423431396484375
0.032501220703125,0.061798095703125,-1.00146484375
0.002960205078125,0.1118927001953125,-1.043365478515625
0.0258636474609375,0.115203857421875,-1.0091094970703125
0.0335235595703125,0.1444549560546875,-0.98089599609375
0.0217742919921875,0.14349365234375,-0.9774017333984376
0.0486602783203125,0.1754608154296875,-0.973236083984375
0.055389404296875,0.210174560546875,-0.957489013671875
0.0651092529296875,0.171783447265625,-0.9121856689453124
0.059478759765625,0.18743896484375,-0.958465576171875
0.0402374267578125,0.141571044921875,-0.933258056640625
0.03887939453125,0.09759521484375,-0.92950439453125
0.0189971923828125,0.097442626953125,-0.96240234375
0.0710296630859375,0.1757354736328125,-1.113372802734375
0.1208343505859375,0.256561279296875,-1.30865478515625
0.15673828125,0.1499786376953125,-1.179107666015625
0.1443634033203125,0.1045074462890625,-1.148284912109375
0.140655517578125,0.1800689697265625,-1.19207763671875
0.2120361328125,0.1600799560546875,-1.021484375
0.2089996337890625,0.1297454833984375,-0.925384521484375
0.1624603271484375,0.1289520263671875,-0.9941864013671876
0.173492431640625,0.1496124267578125,-1.033233642578125
0.1549072265625,0.18896484375,-1.03350830078125
0.120086669921875,0.166015625,-0.9536590576171876
0.11090087890625,0.133636474609375,-0.8926544189453125
0.1055450439453125,0.124359130859375,-0.8762359619140625
0.1028900146484375,0.1085968017578125,-0.8488006591796875
0.11004638671875,0.1238861083984375,-0.8000030517578125
0.101348876953125,0.137908935546875,-0.777252197265625
0.0878448486328125,0.158172607421875,-0.8307342529296875
0.1030426025390625,0.1351318359375,-0.86541748046875
0.09503173828125,0.12078857421875,-0.9097442626953124
0.085357666015625,0.1186065673828125,-1.0243377685546875
0.0693359375,0.0849151611328125,-1.01861572265625
0.079071044921875,0.0600433349609375,-1.069915771484375
0.0586700439453125,0.124176025390625,-1.2024993896484375
0.1488494873046875,0.2257537841796875,-1.355072021484375
0.27410888671875,0.2590484619140625,-1.302398681640625
0.261962890625,0.0886383056640625,-0.9705963134765624
0.1896514892578125,0.057281494140625,-0.955718994140625
0.1566009521484375,0.0305328369140625,-0.8878021240234375
0.193145751953125,0.03680419921875,-0.8341064453125
0.219635009765625,0.215850830078125,-1.0242462158203125
0.2353668212890625,0.3637542724609375,-1.1634979248046875
0.2164459228515625,0.24285888671875,-0.9691162109375
0.135101318359375,0.141998291015625,-0.8994140625
0.090789794921875,0.1201324462890625,-0.883697509765625
0.0947418212890625,0.1250762939453125,-0.8759918212890625
0.143829345703125,0.1424407958984375,-0.848663330078125
0.159637451171875,0.151702880859375,-0.8578948974609375
0.1569061279296875,0.1461334228515625,-0.858673095703125
0.163421630859375,0.1505584716796875,-0.89776611328125
0.1829071044921875,0.162628173828125,-0.919464111328125
0.2081451416015625,0.1325836181640625,-0.8860321044921875
0.2036285400390625,0.11260986328125,-0.9195098876953124
0.215606689453125,0.08502197265625,-1.018463134765625
0.23785400390625,0.036468505859375,-1.1959686279296875
0.2670745849609375,0.0440521240234375,-1.2851104736328125
0.308624267578125,0.0719146728515625,-1.3003692626953125
0.25860595703125,0.05804443359375,-1.2220611572265625
0.3003082275390625,0.111175537109375,-1.175140380859375
0.2928924560546875,0.0403289794921875,-0.94940185546875
0.2378387451171875,-0.07635498046875,-0.83135986328125
0.21624755859375,0.011932373046875,-0.9598388671875
0.252685546875,0.141387939453125,-1.053619384765625
0.2682647705078125,0.137481689453125,-1.06463623046875
0.249420166015625,0.084228515625,-1.0297088623046875
0.2213592529296875,0.08355712890625,-1.0079193115234375
0.1966094970703125,0.13262939453125,-1.011505126953125
0.2016448974609375,0.171783447265625,-0.973175048828125
0.179840087890625,0.180633544921875,-0.9414520263671876
0.132720947265625,0.179168701171875,-0.92352294921875
0.1201171875,0.15234375,-0.885467529296875
0.11822509765625,0.15252685546875,-0.868560791015625
0.109710693359375,0.1446685791015625,-0.8631134033203125
0.1048126220703125,0.1155853271484375,-0.889068603515625
0.1228485107421875,0.160888671875,-0.9593505859375
0.1210174560546875,0.168914794921875,-0.9979095458984376
0.1451568603515625,0.21417236328125,-1.130096435546875
0.1619110107421875,0.340118408203125,-1.2920379638671875
0.1724090576171875,0.2016143798828125,-1.0644989013671875
0.1625518798828125,0.10491943359375,-0.9398651123046876
0.0977783203125,0.0234527587890625,-0.917205810546875
0.122528076171875,-0.03106689453125,-0.875030517578125
0.156036376953125,0.135986328125,-1.0506134033203125
0.1709442138671875,0.3175048828125,-1.1890869140625
0.1957855224609375,0.3118743896484375,-1.0709228515625
0.153594970703125,0.14239501953125,-0.866546630859375
0.1407623291015625,0.1219329833984375,-0.821136474609375
0.133880615234375,0.1229248046875,-0.85394287109375
0.1594390869140625,0.1748199462890625,-0.90032958984375
0.2053680419921875,0.2037506103515625,-0.9290771484375
0.228973388671875,0.2005615234375,-0.9209136962890624
0.216644287109375,0.165130615234375,-0.90863037109375
0.1849517822265625,0.165283203125,-0.9207611083984376
0.1940460205078125,0.1965484619140625,-0.9598541259765624
0.224365234375,0.180084228515625,-1.02777099609375
0.2785186767578125,0.2070770263671875,-1.18585205078125
0.2479705810546875,0.1992340087890625,-1.30816650390625
0.2077178955078125,0.0643463134765625,-1.1515655517578125
0.173309326171875,0.1277313232421875,-1.1498870849609375
0.145843505859375,0.172607421875,-1.046905517578125
0.129974365234375,0.078643798828125,-0.837188720703125
0.0731201171875,0.1251678466796875,-0.9194793701171876
0.043243408203125,0.2629241943359375,-1.1653594970703125
0.0569305419921875,0.3474884033203125,-1.2133941650390625
0.089385986328125,0.2993011474609375,-1.014617919921875
0.10491943359375,0.2564239501953125,-0.9469451904296876
0.1053009033203125,0.2436981201171875,-0.951202392578125
0.1013641357421875,0.3044281005859375,-0.98046875
0.1069488525390625,0.3508453369140625,-0.9763031005859376
0.113555908203125,0.3516693115234375,-0.9387054443359376
0.1280364990234375,0.3179473876953125,-0.90625
0.1339263916015625,0.332733154296875,-0.948638916015625
0.1608123779296875,0.3678131103515625,-1.0124969482421875
0.162567138671875,0.3632659912109375,-1.0282135009765625
0.14764404296875,0.3620758056640625,-1.0366058349609375
0.1934661865234375,0.2864532470703125,-0.8222808837890625
0.206634521484375,0.17730712890625,-0.760009765625
0.175140380859375,0.158477783203125,-0.864410400390625
0.1951141357421875,0.2452850341796875,-1.032073974609375
0.2536163330078125,0.2672119140625,-1.1257476806640625
0.2951507568359375,0.1461181640625,-0.9351806640625
0.259246826171875,-0.0247802734375,-0.974639892578125
0.2743988037109375,-0.016754150390625,-0.9853057861328124
0.2811126708984375,0.024017333984375,-1.0077972412109375
0.2529144287109375,0.077056884765625,-1.050048828125
0.26470947265625,0.1119384765625,-1.029052734375
0.319671630859375,0.1062774658203125,-0.98199462890625
0.332672119140625,0.1148681640625,-0.9429779052734376
0.3266448974609375,0.089508056640625,-0.943084716796875
0.30169677734375,0.1319427490234375,-0.97027587890625
0.3090362548828125,0.146820068359375,-0.96075439453125
0.2777252197265625,0.1114349365234375,-0.9620513916015624
0.2431640625,0.05389404296875,-1.013946533203125
0.2560577392578125,0.04046630859375,-1.02777099609375
0.249969482421875,0.040008544921875,-1.0161895751953125
0.236785888671875,0.005859375,-1.0079345703125
0.2378997802734375,0.0616607666015625,-1.141876220703125
0.2125701904296875,0.0809783935546875,-1.1851806640625
0.222686767578125,0.047149658203125,-1.101593017578125
0.2282867431640625,0.103729248046875,-1.0843353271484375
0.2202911376953125,0.0985107421875,-1.0508575439453125
0.191070556640625,0.0399169921875,-0.929290771484375
0.18804931640625,0.05194091796875,-0.93829345703125
0.202606201171875,0.165191650390625,-1.0799560546875
0.2385711669921875,0.2069091796875,-1.1044464111328125
0.2495880126953125,0.1965179443359375,-1.0789947509765625
0.233795166015625,0.1646575927734375,-1.013397216796875
0.2311859130859375,0.1881103515625,-0.982391357421875
0.25286865234375,0.21099853515625,-0.9525299072265624
0.272125244140625,0.2283172607421875,-0.92364501953125
0.24530029296875,0.204376220703125,-0.8830108642578125
0.186279296875,0.22027587890625,-0.890380859375
0.151580810546875,0.213897705078125,-0.86737060546875
0.1311187744140625,0.200408935546875,-0.8408966064453125
0.117706298828125,0.196624755859375,-0.8450775146484375
0.093841552734375,0.18878173828125,-0.8963470458984375
0.0958404541015625,0.18212890625,-0.97113037109375
0.1076202392578125,0.1864471435546875,-1.0537567138671875
0.18316650390625,0.284393310546875,-1.2667236328125
0.25897216796875,0.34033203125,-1.29132080078125
0.281829833984375,0.1861724853515625,-1.0991973876953125
0.1957244873046875,0.0970916748046875,-1.0031585693359375
0.1284942626953125,-0.0257415771484375,-0.863311767578125
0.1319122314453125,-0.0591888427734375,-0.832672119140625
0.141021728515625,0.1613006591796875,-1.019622802734375
0.1784820556640625,0.3722076416015625,-1.133209228515625
0.16448974609375,0.2714080810546875,-1.0195159912109375
0.2399444580078125,0.1157379150390625,-0.8416595458984375
0.1697998046875,0.09326171875,-0.8521881103515625
0.1131439208984375,0.1478424072265625,-0.8774566650390625
0.1133270263671875,0.1939239501953125,-0.898651123046875
0.1402740478515625,0.237213134765625,-0.9271697998046876
0.1541595458984375,0.206878662109375,-0.916717529296875
0.1510772705078125,0.1363983154296875,-0.929931640625
0.15771484375,0.09649658203125,-0.9191741943359376
0.1567840576171875,0.092803955078125,-0.941741943359375
0.15203857421875,0.1363372802734375,-1.0215911865234375
0.208221435546875,0.219970703125,-1.159149169921875
0.2717437744140625,0.3160858154296875,-1.2968902587890625
0.247314453125,0.2015380859375,-1.08868408203125
0.24310302734375,0.1898345947265625,-1.0301513671875
0.2086181640625,0.1475677490234375,-0.90130615234375
0.208648681640625,0.1019744873046875,-0.8126983642578125
0.275665283203125,0.25396728515625,-0.9779815673828124
0.329986572265625,0.345001220703125,-1.0899658203125
0.3101654052734375,0.324859619140625,-0.969085693359375
0.26519775390625,0.2088470458984375,-0.9596405029296876
0.218780517578125,0.23968505859375,-0.912017822265625
0.2805938720703125,0.2516937255859375,-0.8945770263671875
0.268463134765625,0.385955810546875,-0.910247802734375
0.241180419921875,0.170196533203125,-0.9662628173828124
0.291839599609375,0.1739959716796875,-0.93914794921875
0.273712158203125,0.2396697998046875,-0.913726806640625
0.2284393310546875,0.1561737060546875,-0.938934326171875
0.21173095703125,0.1544952392578125,-0.9227752685546876
0.207366943359375,0.1728515625,-0.9496917724609376
0.1592864990234375,0.2230224609375,-1.004974365234375
0.1657257080078125,0.205474853515625,-1.01513671875
0.2342376708984375,0.3361968994140625,-1.2307281494140625
0.2223052978515625,0.4092864990234375,-1.292510986328125
0.2242889404296875,0.193267822265625,-1.06573486328125
0.180084228515625,0.0936279296875,-0.9340057373046876
0.1186676025390625,-0.0015869140625,-0.8128509521484375
0.11639404296875,-0.0231475830078125,-0.8059844970703125
0.133697509765625,0.2012786865234375,-0.9999237060546876
0.24200439453125,0.31610107421875,-1.0661163330078125
0.342254638671875,0.262603759765625,-0.925872802734375
0.36431884765625,0.1541595458984375,-0.839630126953125
0.313446044921875,0.1433563232421875,-0.856903076171875
0.2720184326171875,0.1666107177734375,-0.862030029296875
0.2520599365234375,0.2317657470703125,-0.8891448974609375
0.271484375,0.2642669677734375,-0.8675079345703125
0.2897491455078125,0.2225494384765625,-0.848419189453125
0.27935791015625,0.1599273681640625,-0.8683013916015625
0.285369873046875,0.1264495849609375,-0.935211181640625
0.3004150390625,0.1025848388671875,-0.929901123046875
0.2592620849609375,0.1295318603515625,-0.9389190673828124
0.231292724609375,0.1504974365234375,-0.9602813720703124
0.2191009521484375,0.180145263671875,-1.051513671875
0.22796630859375,0.175689697265625,-1.1346282958984375
0.2357177734375,0.171356201171875,-1.241851806640625
0.2347869873046875,0.1216583251953125,-1.1793975830078125
0.2902069091796875,0.1444854736328125,-1.071685791015625
0.2866668701171875,0.1064300537109375,-0.9835357666015624
0.299346923828125,-0.053436279296875,-0.8900909423828125
0.2176361083984375,0.0232086181640625,-0.88519287109375
0.209228515625,0.18963623046875,-1.0250701904296875
0.266815185546875,0.2074127197265625,-1.1263275146484375
0.2657470703125,0.1259765625,-1.146697998046875
0.2726287841796875,0.100189208984375,-1.0519561767578125
0.3071136474609375,0.117706298828125,-0.948394775390625
0.324371337890625,0.140228271484375,-0.922515869140625
0.3150482177734375,0.1878662109375,-0.9181671142578124
0.2552490234375,0.2369384765625,-0.89508056640625
0.206146240234375,0.21844482421875,-0.90240478515625
0.184783935546875,0.216705322265625,-0.880157470703125
0.1763153076171875,0.1958160400390625,-0.8577728271484375
0.1868438720703125,0.15631103515625,-0.862823486328125
0.1902618408203125,0.141143798828125,-0.8763275146484375
0.206268310546875,0.1317138671875,-0.8857574462890625
0.196197509765625,0.11627197265625,-0.9420318603515624
0.190093994140625,0.1328582763671875,-0.9842529296875
0.188262939453125,0.144256591796875,-1.1259307861328125
0.2819366455078125,0.2451629638671875,-1.2634124755859375
0.2798614501953125,0.19659423828125,-1.157958984375
0.204376220703125,0.10491943359375,-0.9890289306640624
0.180206298828125,0.0220489501953125,-0.998626708984375
0.1862030029296875,-0.0933074951171875,-0.956695556640625
0.1637725830078125,-0.0612030029296875,-0.8939971923828125
0.1719207763671875,0.0845947265625,-0.9954986572265624
0.2109832763671875,0.2514190673828125,-1.1766510009765625
0.2158203125,0.240386962890625,-1.1488037109375
0.167022705078125,0.1107635498046875,-0.998931884765625
0.129364013671875,0.0626068115234375,-0.9270477294921876
0.12200927734375,0.116485595703125,-0.9358062744140624
0.1316986083984375,0.1945037841796875,-0.941619873046875
0.1519775390625,0.212799072265625,-0.9533538818359376
0.1588134765625,0.1850128173828125,-0.965087890625
0.185546875,0.129791259765625,-0.96917724609375
0.2442474365234375,0.0529632568359375,-0.98455810546875
0.2467193603515625,0.0593109130859375,-0.937408447265625
0.2296600341796875,0.08984375,-0.898345947265625
0.2197418212890625,0.1553802490234375,-0.9447479248046876
0.209320068359375,0.189697265625,-0.99658203125
0.181640625,0.170257568359375,-1.002593994140625
0.1664886474609375,0.1403656005859375,-1.0267181396484375
0.1732330322265625,0.1497955322265625,-1.0134429931640625
0.2497100830078125,0.2088165283203125,-1.01275634765625
0.3370513916015625,0.2090606689453125,-0.9567108154296876
0.372650146484375,0.17108154296875,-0.9148406982421876
0.3725128173828125,0.2426910400390625,-0.9315643310546876
0.3674774169921875,0.2801666259765625,-0.88336181640625
0.3518524169921875,0.3347930908203125,-0.865020751953125
0.3705596923828125,0.36138916015625,-0.8665771484375
0.387420654296875,0.3167724609375,-0.897216796875
0.4127349853515625,0.2257537841796875,-0.9410858154296876
0.4300079345703125,0.1795806884765625,-0.9679718017578124
0.43927001953125,0.2010040283203125,-0.9786529541015624
0.4413909912109375,0.21990966796875,-0.95831298828125
0.40875244140625,0.2286834716796875,-0.946929931640625
0.369476318359375,0.215087890625,-0.9401092529296876
0.34429931640625,0.2024688720703125,-0.948028564453125
0.335235595703125,0.1939239501953125,-0.9374237060546876
0.332275390625,0.207672119140625,-0.9307403564453124
0.3381500244140625,0.2177581787109375,-0.9356842041015624
0.3563995361328125,0.240478515625,-0.9275665283203124
0.333984375,0.2763824462890625,-0.9951934814453124
0.3144989013671875,0.3099212646484375,-1.073822021484375
0.3211822509765625,0.29327392578125,-1.0225372314453125
0.2971649169921875,0.2171173095703125,-0.9118804931640624
0.239501953125,0.0958099365234375,-0.8802337646484375
0.178314208984375,0.0726318359375,-0.934356689453125
0.1891937255859375,0.1636505126953125,-1.0092926025390625
0.2233428955078125,0.3012847900390625,-1.0681610107421875
0.2210693359375,0.33673095703125,-1.02978515625
0.1832733154296875,0.226043701171875,-0.905364990234375
0.1520843505859375,0.1548309326171875,-0.8289642333984375
0.0921630859375,0.2540740966796875,-0.8915252685546875
0.1104888916015625,0.3359832763671875,-0.9602813720703124
0.183380126953125,0.2917633056640625,-0.9195098876953124
0.18731689453125,0.2588653564453125,-0.9773101806640624
0.1888427734375,0.2001495361328125,-1.0359344482421875
0.2139892578125,0.1769866943359375,-1.02032470703125
0.2233734130859375,0.19586181640625,-0.990997314453125
0.19818115234375,0.2318267822265625,-0.9667816162109376
0.195098876953125,0.191619873046875,-0.9455718994140624
0.22625732421875,0.134429931640625,-0.9178924560546876
0.21429443359375,0.1484832763671875,-0.9126434326171876
0.2325439453125,0.173858642578125,-0.96307373046875
0.233184814453125,0.2152557373046875,-0.9990081787109376
0.214599609375,0.1959991455078125,-1.0009307861328125
0.173980712890625,0.1518707275390625,-1.0358734130859375
0.19775390625,0.098358154296875,-0.9446868896484376
0.1761474609375,0.129241943359375,-0.9925537109375
0.1680755615234375,0.17083740234375,-1.011993408203125
0.1854248046875,0.200042724609375,-1.06817626953125
0.1603546142578125,0.1964263916015625,-1.2356109619140625
0.19012451171875,0.127471923828125,-1.1617889404296875
0.18011474609375,0.19482421875,-1.13616943359375
0.1607513427734375,0.131134033203125,-1.0256805419921875
0.1827239990234375,0.1139068603515625,-1.0366973876953125
0.2327423095703125,0.1182708740234375,-1.0619659423828125
0.199737548828125,0.1322021484375,-1.167816162109375
0.214263916015625,0.1656646728515625,-1.123504638671875
0.2493438720703125,0.229095458984375,-1.066925048828125
0.26141357421875,0.222198486328125,-1.0047607421875
0.22576904296875,0.194580078125,-0.9210052490234376
0.180633544921875,0.1961517333984375,-0.9052581787109376
0.09429931640625,0.2161712646484375,-0.9067535400390624
0.0975799560546875,0.2138519287109375,-0.84747314453125
0.1038360595703125,0.2007598876953125,-0.7859649658203125
0.1088409423828125,0.1638641357421875,-0.7395477294921875
0.1175384521484375,0.127593994140625,-0.7156219482421875
0.1143341064453125,0.129638671875,-0.7422027587890625
0.082305908203125,0.1286163330078125,-0.83551025390625
0.0801849365234375,0.1470794677734375,-0.9911651611328124
0.183746337890625,0.1653900146484375,-1.1538848876953125
0.2336883544921875,0.2232818603515625,-1.207733154296875
0.2859649658203125,0.2842254638671875,-1.431488037109375
0.288360595703125,0.319732666015625,-1.4377288818359375
0.282073974609375,0.1628570556640625,-1.06890869140625
0.2264251708984375,-0.0010223388671875,-0.8367156982421875
0.2106475830078125,-0.12969970703125,-0.7631378173828125
0.2442474365234375,0.0316925048828125,-0.91778564453125
0.2815704345703125,0.2754974365234375,-1.1347808837890625
0.2772369384765625,0.215484619140625,-1.079315185546875
0.2552490234375,0.0865020751953125,-0.9436492919921876
0.208221435546875,0.03436279296875,-0.862335205078125
0.1487884521484375,0.04736328125,-0.87445068359375
0.1300506591796875,0.1046295166015625,-0.9129638671875
0.122222900390625,0.1337890625,-0.9564971923828124
0.1136627197265625,0.1247406005859375,-0.9957275390625
0.1205902099609375,0.0947265625,-0.9650115966796876
0.1408233642578125,0.1163330078125,-0.962646484375
0.161712646484375,0.09405517578125,-0.9388580322265624
0.15838623046875,0.0480194091796875,-0.92401123046875
0.1516265869140625,0.049102783203125,-0.94140625
0.1602935791015625,0.05255126953125,-0.95751953125
0.1520233154296875,0.043212890625,-1.048797607421875
0.1583404541015625,0.080108642578125,-1.219451904296875
0.216400146484375,0.1095428466796875,-1.2751617431640625
0.2844085693359375,0.1811676025390625,-1.2810516357421875
0.24267578125,0.1864166259765625,-1.231597900390625
0.21795654296875,0.0615997314453125,-0.9886932373046876
0.203369140625,-0.008758544921875,-0.8571929931640625
0.2093505859375,0.143341064453125,-0.9660797119140624
0.2552642822265625,0.2751617431640625,-1.076171875
0.2690582275390625,0.2713165283203125,-1.1365509033203125
0.2649078369140625,0.174468994140625,-1.021026611328125
0.2598724365234375,0.1786651611328125,-0.929779052734375
0.2421112060546875,0.21209716796875,-0.8921661376953125
0.2336883544921875,0.231414794921875,-0.88897705078125
0.177886962890625,0.228179931640625,-0.887786865234375
0.1766510009765625,0.220367431640625,-0.8233642578125
0.15753173828125,0.226654052734375,-0.8035888671875
0.1317138671875,0.219696044921875,-0.8049468994140625
0.139434814453125,0.1845855712890625,-0.81146240234375
0.1129608154296875,0.147918701171875,-0.841766357421875
0.1112823486328125,0.1323394775390625,-0.914306640625
0.13006591796875,0.0961151123046875,-0.966583251953125
0.163848876953125,0.1573333740234375,-1.145477294921875
0.269256591796875,0.2340850830078125,-1.3000946044921875
0.3497314453125,0.2910919189453125,-1.4039154052734375
0.3322601318359375,0.2153472900390625,-1.223968505859375
0.2576904296875,0.1083984375,-1.0184326171875
0.2015228271484375,-0.0880126953125,-0.794647216796875
0.1876220703125,-0.10931396484375,-0.8006744384765625
0.1783294677734375,0.0654449462890625,-1.0016021728515625
0.2126617431640625,0.254791259765625,-1.15716552734375
0.2580413818359375,0.2410888671875,-1.075439453125
0.2632293701171875,0.120025634765625,-0.893341064453125
0.2310028076171875,0.0786590576171875,-0.8717193603515625
0.1715240478515625,0.1415252685546875,-0.94927978515625
0.19610595703125,0.1963348388671875,-0.94403076171875
0.2250823974609375,0.213775634765625,-0.906585693359375
0.2078094482421875,0.1796417236328125,-0.9015960693359376
0.1869049072265625,0.1504669189453125,-0.9406280517578124
0.178375244140625,0.1321258544921875,-0.9542999267578124
0.1865692138671875,0.1119384765625,-0.9332122802734376
0.19061279296875,0.1148529052734375,-0.923614501953125
0.1961212158203125,0.1169586181640625,-0.9598846435546876
0.2080230712890625,0.126220703125,-1.047393798828125
0.2271881103515625,0.148162841796875,-1.1354217529296875
0.243560791015625,0.1508941650390625,-1.21478271484375
0.242889404296875,0.0991363525390625,-1.1746673583984375
0.2512054443359375,0.1132659912109375,-1.1508331298828125
0.2260894775390625,0.10809326171875,-1.02490234375
0.1955718994140625,0.0858154296875,-0.853240966796875
0.1617889404296875,0.1806488037109375,-0.9652557373046876
0.118011474609375,0.31201171875,-1.164031982421875
0.1280059814453125,0.3177337646484375,-1.1464691162109375
0.1618194580078125,0.2700042724609375,-0.9873504638671876
0.1248931884765625,0.254058837890625,-0.912750244140625
0.1188812255859375,0.2836761474609375,-0.8756103515625
0.17694091796875,0.2624664306640625,-0.8600311279296875
0.20074462890625,0.233489990234375,-0.833648681640625
0.229583740234375,0.263916015625,-0.8869171142578125
0.2985992431640625,0.2796173095703125,-0.90228271484375
0.3586883544921875,0.27325439453125,-0.859039306640625
0.4149322509765625,0.2834320068359375,-0.8767242431640625
0.4956207275390625,0.2987823486328125,-0.9498748779296876
0.597625732421875,0.2771759033203125,-0.992156982421875
0.6488800048828125,0.28485107421875,-0.946868896484375
0.68096923828125,0.2512359619140625,-0.924285888671875
0.64300537109375,0.2289886474609375,-0.87103271484375
0.544036865234375,0.1591339111328125,-0.7617645263671875
0.5036468505859375,0.1664276123046875,-0.7624359130859375
0.483612060546875,0.1863555908203125,-0.838104248046875
0.5227203369140625,0.2236480712890625,-0.9373626708984376
0.5499267578125,0.234710693359375,-0.9500579833984376
0.5517578125,0.1737518310546875,-0.842254638671875
0.521148681640625,0.159088134765625,-0.8371734619140625
0.523406982421875,0.147125244140625,-0.8187408447265625
0.5574798583984375,0.152801513671875,-0.80206298828125
0.5857391357421875,0.1436004638671875,-0.7942962646484375
0.59912109375,0.1287841796875,-0.804443359375
0.5796051025390625,0.12921142578125,-0.826934814453125
0.56634521484375,0.1424407958984375,-0.831298828125
0.548858642578125,0.1019439697265625,-0.8282623291015625
0.5426788330078125,0.0726776123046875,-0.865936279296875
0.5340423583984375,0.05865478515625,-0.904541015625
0.534332275390625,0.045135498046875,-0.9157257080078124
0.49749755859375,0.0289764404296875,-0.9132537841796876
0.4563140869140625,-0.00543212890625,-0.8916473388671875
0.447662353515625,-0.0079345703125,-0.919708251953125
0.4650726318359375,0.0170745849609375,-0.966278076171875
0.5040435791015625,0.07794189453125,-1.0536651611328125
0.5096282958984375,0.1193695068359375,-1.118377685546875
0.4706878662109375,0.11181640625,-1.0389862060546875
0.4232940673828125,0.13714599609375,-0.9010009765625
0.40087890625,0.1460113525390625,-0.795654296875
0.405059814453125,0.1845855712890625,-0.8427886962890625
0.4426727294921875,0.2661895751953125,-0.9134521484375
0.5275115966796875,0.3170318603515625,-0.957244873046875
0.5773162841796875,0.3102264404296875,-0.927978515625
0.5329742431640625,0.257110595703125,-0.8695068359375
0.5062255859375,0.1938018798828125,-0.8052825927734375
0.505126953125,0.1844482421875,-0.8226318359375
0.498809814453125,0.2027587890625,-0.8728790283203125
0.4844512939453125,0.1954345703125,-0.8587646484375
0.4647369384765625,0.1855621337890625,-0.8239288330078125
0.443359375,0.16802978515625,-0.80908203125
0.4130096435546875,0.158416748046875,-0.814666748046875
0.3926239013671875,0.157379150390625,-0.8249053955078125
0.371734619140625,0.1384735107421875,-0.8249359130859375
0.36480712890625,0.1369476318359375,-0.85845947265625
0.3771514892578125,0.1403045654296875,-0.930328369140625
0.3694610595703125,0.1238555908203125,-0.9694976806640624
0.38629150390625,0.0920867919921875,-0.985748291015625
0.431640625,0.1459808349609375,-1.097686767578125
0.4784088134765625,0.2301177978515625,-1.1248779296875
0.4280242919921875,0.076171875,-0.9029083251953124
0.4083709716796875,0.086883544921875,-0.9240264892578124
0.3765716552734375,0.1239776611328125,-0.9817657470703124
0.3719482421875,0.115570068359375,-0.9027099609375
0.307861328125,0.1026458740234375,-0.8231048583984375
0.26025390625,0.1221923828125,-0.8565673828125
0.309478759765625,0.2152252197265625,-0.99273681640625
0.32525634765625,0.272064208984375,-1.0532989501953125
0.2671356201171875,0.210296630859375,-0.970733642578125
0.245880126953125,0.1676483154296875,-0.9076385498046876
0.228729248046875,0.205780029296875,-0.926239013671875
0.2457275390625,0.21441650390625,-0.8953704833984375
0.258575439453125,0.17877197265625,-0.870269775390625
0.26678466796875,0.1483154296875,-0.909454345703125
0.2717437744140625,0.112457275390625,-0.9403839111328124
0.2879486083984375,0.078216552734375,-0.937896728515625
0.2896270751953125,0.048095703125,-0.9443359375
0.2854766845703125,0.0265655517578125,-0.969024658203125
0.301177978515625,0.00537109375,-0.969970703125
0.2984161376953125,-0.0065460205078125,-1.00360107421875
0.2955169677734375,-0.0139007568359375,-0.9909515380859376
0.3098602294921875,0.0122833251953125,-0.9883880615234376
0.359954833984375,0.064422607421875,-1.0170745849609375
0.494964599609375,0.2021942138671875,-1.2060699462890625
0.5329132080078125,0.24017333984375,-1.125823974609375
0.5370330810546875,0.1624755859375,-0.9612579345703124
0.4044342041015625,0.2321929931640625,-0.8974609375
0.353668212890625,0.1939544677734375,-0.83428955078125
0.3624267578125,0.16693115234375,-0.82379150390625
0.39434814453125,0.307403564453125,-0.988922119140625
0.4284820556640625,0.3887786865234375,-1.07806396484375
0.43792724609375,0.312255859375,-1.017974853515625
0.381256103515625,0.3081207275390625,-0.8395538330078125
0.40155029296875,0.17889404296875,-0.790802001953125
0.3588714599609375,0.2178802490234375,-0.887786865234375
0.3582916259765625,0.251800537109375,-0.898223876953125
0.327178955078125,0.26898193359375,-0.8579254150390625
0.26861572265625,0.168548583984375,-0.9598388671875
0.3132781982421875,0.1768798828125,-0.88592529296875
0.2666778564453125,0.1700286865234375,-0.876068115234375
0.216766357421875,0.1402740478515625,-0.9183349609375
0.1830596923828125,0.1380615234375,-0.8948974609375
0.17852783203125,0.1352386474609375,-0.8960418701171875
0.19708251953125,0.1686859130859375,-0.94207763671875
0.233612060546875,0.1793670654296875,-0.936370849609375
0.2587127685546875,0.1790313720703125,-0.9866943359375
0.389190673828125,0.3297119140625,-1.336517333984375
0.4826202392578125,0.3330230712890625,-1.2286376953125
0.4380035400390625,0.19610595703125,-0.8828125
0.3275909423828125,0.1032867431640625,-0.8260498046875
0.315399169921875,0.02325439453125,-0.7981414794921875
0.4004669189453125,0.025482177734375,-0.854156494140625
0.4177703857421875,0.1653900146484375,-1.0248260498046875
0.4116363525390625,0.2235870361328125,-1.043212890625
0.38592529296875,0.1962890625,-0.953399658203125
0.3429107666015625,0.1500396728515625,-0.863861083984375
0.30157470703125,0.1505279541015625,-0.8612060546875
0.27484130859375,0.18310546875,-0.89581298828125
0.2773590087890625,0.2095947265625,-0.9107818603515624
0.2917633056640625,0.201812744140625,-0.9276275634765624
0.2953033447265625,0.1803436279296875,-0.92584228515625
0.28204345703125,0.1563720703125,-0.9118804931640624
0.260223388671875,0.13250732421875,-0.926422119140625
0.2451019287109375,0.1203155517578125,-0.91168212890625
0.248687744140625,0.130096435546875,-0.8850860595703125
0.25421142578125,0.15911865234375,-0.9222564697265624
0.2788543701171875,0.1609649658203125,-0.9631500244140624
0.3045806884765625,0.1521453857421875,-0.9621124267578124
0.336212158203125,0.14337158203125,-1.0966644287109375
0.3379364013671875,0.193939208984375,-1.2341156005859375
0.3160858154296875,0.0657958984375,-1.0827178955078125
0.330810546875,0.1738739013671875,-0.98345947265625
0.318206787109375,0.2231597900390625,-0.913726806640625
0.2917022705078125,0.25494384765625,-0.8092193603515625
0.2958984375,0.2950592041015625,-0.9295196533203124
0.33221435546875,0.230377197265625,-1.0469818115234375
0.344757080078125,0.1353607177734375,-1.059783935546875
0.3011322021484375,0.1546630859375,-0.9810028076171876
0.2704315185546875,0.185211181640625,-0.9237823486328124
0.2404022216796875,0.169342041015625,-0.8858184814453125
0.2176971435546875,0.177947998046875,-0.902435302734375
0.193695068359375,0.1717987060546875,-0.9291534423828124
0.18658447265625,0.156494140625,-0.909088134765625
0.1830596923828125,0.1579437255859375,-0.9023284912109376
0.1565399169921875,0.1514434814453125,-0.912078857421875
0.158355712890625,0.15997314453125,-0.9416656494140624
0.1965789794921875,0.186248779296875,-0.9445953369140624
0.249481201171875,0.212890625,-0.930389404296875
0.2932891845703125,0.22515869140625,-0.9583892822265624
0.3236083984375,0.2043914794921875,-0.99237060546875
0.3543853759765625,0.193817138671875,-1.1441497802734375
0.444549560546875,0.3122100830078125,-1.3732452392578125
0.424163818359375,0.2530975341796875,-1.143310546875
0.393524169921875,0.0652618408203125,-0.825592041015625
0.2850494384765625,0.0186920166015625,-0.795623779296875
0.196746826171875,0.0258941650390625,-0.8677825927734375
0.21026611328125,0.034912109375,-0.8107757568359375
0.216156005859375,0.130706787109375,-0.9003143310546875
0.2030181884765625,0.2095184326171875,-0.9888916015625
0.2207183837890625,0.17681884765625,-0.9354705810546876
0.287017822265625,0.024993896484375,-0.9343719482421876
0.2636871337890625,0.0083160400390625,-1.0155792236328125
0.2732391357421875,0.071624755859375,-1.084228515625
0.3110198974609375,0.1527862548828125,-1.0984954833984375
0.2844390869140625,0.193328857421875,-1.10052490234375
0.2603302001953125,0.217193603515625,-0.9509124755859376
0.283782958984375,0.142852783203125,-0.91790771484375
0.28485107421875,0.112762451171875,-0.9709320068359376
0.2979736328125,0.0937652587890625,-0.9730682373046876
0.3024139404296875,0.0595245361328125,-0.9431610107421876
0.334228515625,0.136138916015625,-0.969573974609375
0.361114501953125,0.1871337890625,-0.9495391845703124
0.33624267578125,0.179351806640625,-0.9181976318359376
0.296478271484375,0.1636962890625,-0.9258270263671876
0.359649658203125,0.257598876953125,-1.1237945556640625
0.3691253662109375,0.1707305908203125,-0.910247802734375
0.3337554931640625,0.086761474609375,-0.802764892578125
0.2884063720703125,0.163177490234375,-0.9208831787109376
0.3136749267578125,0.2237701416015625,-0.9362335205078124
0.3531646728515625,0.222076416015625,-0.8392791748046875
0.3260498046875,0.20928955078125,-0.8213653564453125
0.314117431640625,0.197235107421875,-0.8845062255859375
0.33349609375,0.215667724609375,-0.976287841796875
0.36175537109375,0.2374725341796875,-1.0052490234375
0.374969482421875,0.2290802001953125,-0.993438720703125
0.3792572021484375,0.186920166015625,-0.962921142578125
0.365875244140625,0.1751251220703125,-0.9499664306640624
0.31243896484375,0.1561431884765625,-0.9585723876953124
0.296905517578125,0.163238525390625,-0.976959228515625
0.2927703857421875,0.185028076171875,-0.9719390869140624
0.2816162109375,0.1991729736328125,-0.940093994140625
0.2696685791015625,0.204345703125,-0.93377685546875
0.2704010009765625,0.214813232421875,-0.9481048583984376
0.2893829345703125,0.225830078125,-0.975830078125
0.316009521484375,0.2369537353515625,-1.003570556640625
0.3248443603515625,0.216522216796875,-0.966339111328125
0.31719970703125,0.1955413818359375,-0.947967529296875
0.3235321044921875,0.164825439453125,-0.9527130126953124
0.341766357421875,0.1611175537109375,-0.9686279296875
0.35089111328125,0.1712493896484375,-0.9923858642578124
0.3069305419921875,0.199005126953125,-1.021392822265625
0.3189239501953125,0.162384033203125,-0.915557861328125
0.315826416015625,0.13653564453125,-0.8844757080078125
0.3126983642578125,0.1801910400390625,-0.9423675537109376
0.3090972900390625,0.1775360107421875,-0.91326904296875
0.2758026123046875,0.17462158203125,-0.909210205078125
0.2382659912109375,0.1524200439453125,-0.910247802734375
0.1960296630859375,0.106719970703125,-0.9027252197265624
0.1251678466796875,0.1551666259765625,-1.02239990234375
0.134307861328125,0.2301788330078125,-1.043701171875
0.207244873046875,0.1572723388671875,-0.974945068359375
0.2119140625,0.1162872314453125,-0.9595947265625
0.199981689453125,0.0587310791015625,-0.9547119140625
0.1840057373046875,0.0693359375,-0.9737548828125
0.1873931884765625,0.0833587646484375,-0.985107421875
0.205535888671875,0.0976104736328125,-0.9884185791015624
0.224212646484375,0.1046600341796875,-0.9979095458984376
0.235595703125,0.0917816162109375,-0.99688720703125
0.2551116943359375,0.077972412109375,-0.988311767578125
0.2595062255859375,0.0857391357421875,-0.9890594482421876
0.257720947265625,0.0953826904296875,-0.9843292236328124
0.2363128662109375,0.1012115478515625,-0.98419189453125
0.2391204833984375,0.094329833984375,-0.99615478515625
0.24310302734375,0.0706939697265625,-0.9869537353515624
0.2525177001953125,0.06683349609375,-0.9827423095703124
0.2493743896484375,0.0616455078125,-0.97430419921875
0.2462921142578125,0.0727996826171875,-0.9686737060546876
0.2613525390625,0.08929443359375,-0.9686737060546876
0.2877197265625,0.124542236328125,-1.0010223388671875
0.320281982421875,0.1889190673828125,-1.0873870849609375
0.3097076416015625,0.124114990234375,-1.02716064453125
0.2863922119140625,0.08282470703125,-0.9462738037109376
0.298065185546875,0.153350830078125,-0.9686431884765624
0.3651275634765625,0.2172698974609375,-0.984466552734375
0.381103515625,0.2091217041015625,-0.9251708984375
0.3586883544921875,0.183319091796875,-0.8990325927734375
0.3315887451171875,0.1864471435546875,-0.9183807373046876
0.335723876953125,0.2316436767578125,-0.943511962890625
0.345062255859375,0.262969970703125,-0.9399261474609376
0.3363189697265625,0.2213287353515625,-0.91546630859375
0.2741851806640625,0.2093505859375,-0.902984619140625
0.2975921630859375,0.159881591796875,-0.8832550048828125
0.315582275390625,0.1548004150390625,-0.92779541015625
0.3529052734375,0.1678314208984375,-0.9381103515625
0.356903076171875,0.147003173828125,-0.9327392578125
0.34063720703125,0.1425933837890625,-0.92730712890625
0.31036376953125,0.1759796142578125,-0.9156951904296876
0.2939910888671875,0.1811065673828125,-0.88543701171875
0.255096435546875,0.1716156005859375,-0.8634033203125
0.2353973388671875,0.1662750244140625,-0.8756561279296875
0.2487640380859375,0.1602935791015625,-0.903167724609375
0.28460693359375,0.1478118896484375,-0.9113311767578124
0.3162689208984375,0.1468963623046875,-0.946258544921875
0.36517333984375,0.1512298583984375,-0.99072265625
0.39569091796875,0.1490936279296875,-0.9870147705078124
0.391387939453125,0.16485595703125,-0.982330322265625
0.3577117919921875,0.18353271484375,-1.03778076171875
0.3924102783203125,0.195831298828125,-1.0524749755859375
0.5,0.348968505859375,-1.2867279052734375
0.5234375,0.3399200439453125,-1.176177978515625
0.485748291015625,0.1707916259765625,-0.89190673828125
0.355865478515625,0.05120849609375,-0.78582763671875
0.22357177734375,0.0330352783203125,-0.7769317626953125
0.1806640625,0.1013336181640625,-0.8466033935546875
0.218170166015625,0.20721435546875,-0.9696197509765624
0.2351226806640625,0.2511138916015625,-0.9914093017578124
0.2265777587890625,0.1891326904296875,-0.9455718994140624
0.1775054931640625,0.1504364013671875,-0.926239013671875
0.1492919921875,0.150390625,-0.915740966796875
0.1605224609375,0.1966705322265625,-0.9040985107421876
0.19915771484375,0.220977783203125,-0.917236328125
0.2210540771484375,0.2082061767578125,-0.9267120361328124
0.259429931640625,0.196258544921875,-0.9219970703125
0.279876708984375,0.178802490234375,-0.8911895751953125
0.2849578857421875,0.1815032958984375,-0.9220428466796876
0.2933197021484375,0.186981201171875,-0.943939208984375
0.308380126953125,0.185272216796875,-0.9305419921875
0.292266845703125,0.18084716796875,-0.9450225830078124
0.280181884765625,0.164306640625,-0.938385009765625
0.2817535400390625,0.190399169921875,-0.959503173828125
0.29058837890625,0.17657470703125,-0.9749298095703124
0.3053436279296875,0.1369171142578125,-0.9665985107421876
0.31585693359375,0.1233367919921875,-0.988800048828125
0.3251190185546875,0.146697998046875,-1.123992919921875
0.33221435546875,0.15667724609375,-1.1480865478515625
0.3441925048828125,0.1178741455078125,-1.0574951171875
0.32568359375,0.1250762939453125,-1.0285491943359375
0.2875518798828125,0.122222900390625,-1.021697998046875
0.2527618408203125,0.0555877685546875,-0.913238525390625
0.2724761962890625,0.1474761962890625,-0.993438720703125
0.2964630126953125,0.2049713134765625,-1.07513427734375
0.314178466796875,0.1854248046875,-1.0958709716796875
0.315948486328125,0.175048828125,-1.0527496337890625
0.293487548828125,0.177978515625,-0.9849090576171876
0.2701568603515625,0.19140625,-0.9394989013671876
0.239501953125,0.202392578125,-0.9100799560546876
0.2141571044921875,0.2150421142578125,-0.889801025390625
0.200225830078125,0.2048492431640625,-0.8483123779296875
0.2017974853515625,0.1732025146484375,-0.8252410888671875
0.1763458251953125,0.141693115234375,-0.8270263671875
0.1745452880859375,0.103851318359375,-0.844268798828125
0.176910400390625,0.060760498046875,-0.848419189453125
0.18267822265625,0.0615692138671875,-0.8682861328125
0.2173309326171875,0.0852508544921875,-0.8758544921875
0.2446441650390625,0.1125030517578125,-0.9469146728515624
0.2485198974609375,0.131561279296875,-1.0481109619140625
0.2971038818359375,0.1968841552734375,-1.1363525390625
0.3292388916015625,0.253875732421875,-1.1681060791015625
0.3313140869140625,0.23980712890625,-1.22467041015625
0.292510986328125,0.20721435546875,-1.1470184326171875
0.2571258544921875,0.1949615478515625,-1.054534912109375
0.2692413330078125,0.0894622802734375,-0.8956146240234375
0.272216796875,0.00311279296875,-0.8193817138671875
0.2427215576171875,0.0491943359375,-0.8563995361328125
0.2650909423828125,0.2014617919921875,-1.0088348388671875
0.2896270751953125,0.3057708740234375,-1.0781402587890625
0.293914794921875,0.238067626953125,-0.933013916015625
0.2475433349609375,0.167144775390625,-0.8207244873046875
0.174835205078125,0.1639862060546875,-0.8388519287109375
0.165802001953125,0.1938323974609375,-0.8743896484375
0.200286865234375,0.2037353515625,-0.9349517822265624
0.2313079833984375,0.19903564453125,-0.9700775146484376
0.2471160888671875,0.16162109375,-0.979949951171875
0.2338409423828125,0.14007568359375,-0.95367431640625
0.2069091796875,0.137603759765625,-0.9356536865234376
0.19873046875,0.1542510986328125,-0.9420623779296876
0.2061767578125,0.1611480712890625,-0.934600830078125
0.2090301513671875,0.1459197998046875,-0.924285888671875
0.2186431884765625,0.1255340576171875,-0.9371185302734376
0.2520599365234375,0.14007568359375,-0.9656524658203124
0.2661895751953125,0.15557861328125,-1.0124359130859375
0.314666748046875,0.1393890380859375,-1.0658416748046875
0.3488922119140625,0.21697998046875,-1.1930694580078125
0.3591461181640625,0.1786651611328125,-1.1441497802734375
0.3636322021484375,0.137664794921875,-1.0199127197265625
0.3260040283203125,0.21405029296875,-1.0301055908203125
0.279510498046875,0.2499237060546875,-0.9520416259765624
0.2448577880859375,0.20361328125,-0.8061676025390625
0.258392333984375,0.2315826416015625,-0.8314208984375
0.2592620849609375,0.32232666015625,-1.0576171875
0.3031768798828125,0.3428192138671875,-1.163787841796875
0.394622802734375,0.2433929443359375,-1.023223876953125
0.3936309814453125,0.188629150390625,-0.9211883544921876
0.350250244140625,0.241668701171875,-0.9558868408203124
0.335968017578125,0.3035888671875,-0.9358367919921876
0.2762451171875,0.3668975830078125,-0.8505706787109375
0.2308502197265625,0.4121856689453125,-0.8033599853515625
0.2395782470703125,0.330474853515625,-0.7714996337890625
0.213226318359375,0.2506103515625,-0.80462646484375
0.213348388671875,0.2430267333984375,-0.85101318359375
0.2279052734375,0.22125244140625,-0.846954345703125
0.22039794921875,0.2021331787109375,-0.8749847412109375
0.1998748779296875,0.174774169921875,-0.9311676025390624
0.1984100341796875,0.1452789306640625,-1.00238037109375
0.20965576171875,0.1293182373046875,-1.1097869873046875
0.2963104248046875,0.13702392578125,-1.21466064453125
0.3807830810546875,0.155975341796875,-1.3049468994140625
0.3736572265625,0.0841064453125,-1.194580078125
0.3411712646484375,0.0109100341796875,-1.055145263671875
0.298309326171875,-0.0536346435546875,-0.928192138671875
0.29205322265625,-0.0879058837890625,-0.8526611328125
0.305419921875,-0.0196380615234375,-0.8832550048828125
0.3733062744140625,0.13824462890625,-1.00506591796875
0.4022216796875,0.2101287841796875,-1.0745086669921875
0.3780975341796875,0.207855224609375,-1.0457916259765625
0.417572021484375,0.14996337890625,-0.922821044921875
0.418670654296875,0.1783905029296875,-0.9128265380859376
0.3969268798828125,0.2379302978515625,-0.9664306640625
0.352813720703125,0.2840423583984375,-0.974212646484375
0.327484130859375,0.2867584228515625,-0.9202423095703124
0.326873779296875,0.2903594970703125,-0.9204559326171876
0.3381500244140625,0.273773193359375,-0.8956756591796875
0.320831298828125,0.23883056640625,-0.8784027099609375
0.3067626953125,0.21783447265625,-0.8708953857421875
0.29052734375,0.2438507080078125,-0.9121856689453124
0.28643798828125,0.247650146484375,-0.937164306640625
0.2757415771484375,0.220916748046875,-0.9469757080078124
0.2635650634765625,0.18939208984375,-0.9405517578125
0.2559661865234375,0.16632080078125,-0.925079345703125
0.258544921875,0.1845245361328125,-0.961181640625
0.268157958984375,0.193267822265625,-0.9905548095703124
0.2810516357421875,0.1680908203125,-0.971099853515625
0.302703857421875,0.15948486328125,-0.904541015625
0.321624755859375,0.1808013916015625,-0.86724853515625
0.33612060546875,0.2143096923828125,-0.8729248046875
0.345855712890625,0.23590087890625,-0.879852294921875
0.3485565185546875,0.2335205078125,-0.891632080078125
0.3641815185546875,0.226287841796875,-0.949981689453125
0.360626220703125,0.2071685791015625,-1.0188751220703125
0.35198974609375,0.208221435546875,-1.0920867919921875
0.3804779052734375,0.1656341552734375,-1.0093231201171875
0.39788818359375,0.152587890625,-0.9599761962890624
0.3757781982421875,0.1817626953125,-0.96588134765625
0.376129150390625,0.1952362060546875,-0.9445648193359376
0.3630828857421875,0.2050018310546875,-0.92999267578125
0.3281097412109375,0.2038421630859375,-0.921539306640625
0.3092041015625,0.1967315673828125,-0.9215545654296876
0.2943115234375,0.18939208984375,-0.913726806640625
0.29168701171875,0.190948486328125,-0.9092254638671876
0.281158447265625,0.214691162109375,-0.9173583984375
0.262359619140625,0.2086181640625,-0.901519775390625
0.2416839599609375,0.2122039794921875,-0.928619384765625
0.245635986328125,0.2859039306640625,-1.10382080078125
0.261016845703125,0.282989501953125,-1.0911102294921875
0.258941650390625,0.1632232666015625,-0.9350128173828124
0.1892852783203125,0.0778045654296875,-0.856414794921875
0.1498260498046875,0.042572021484375,-0.8787689208984375
0.163055419921875,0.0733184814453125,-0.940948486328125
0.207489013671875,0.152496337890625,-1.0102081298828125
0.2717742919921875,0.1968841552734375,-0.9989013671875
0.29656982421875,0.226287841796875,-1.0570526123046875
0.2898712158203125,0.2024993896484375,-1.0495452880859375
0.238372802734375,0.13262939453125,-0.9547576904296876
0.1888580322265625,0.114715576171875,-0.904571533203125
0.1970672607421875,0.1555328369140625,-0.925628662109375
0.2151641845703125,0.1727294921875,-0.9308319091796876
0.2363739013671875,0.160308837890625,-0.934417724609375
0.2320709228515625,0.1431732177734375,-0.9410552978515624
0.2240753173828125,0.115936279296875,-0.9422149658203124
0.2223358154296875,0.12042236328125,-0.9532623291015624
0.23297119140625,0.1169891357421875,-0.9605255126953124
0.2463836669921875,0.10540771484375,-0.9538116455078124
0.2588348388671875,0.098724365234375,-0.9423065185546876
0.26348876953125,0.1003875732421875,-0.9618377685546876
0.2684478759765625,0.114593505859375,-0.9818878173828124
0.2803192138671875,0.13116455078125,-1.001251220703125
0.3094940185546875,0.157440185546875,-1.059967041015625
0.323211669921875,0.19952392578125,-1.1313018798828125
0.3519287109375,0.1378936767578125,-1.0254974365234375
0.3441314697265625,0.12158203125,-0.9752960205078124
0.325958251953125,0.1286773681640625,-0.97418212890625
0.319732666015625,0.1567535400390625,-0.9247283935546876
0.28314208984375,0.1083984375,-0.816253662109375
0.2786407470703125,0.1611480712890625,-0.96099853515625
0.3358612060546875,0.2815704345703125,-1.122406005859375
0.4014892578125,0.246734619140625,-1.067626953125
0.4068756103515625,0.15655517578125,-0.953277587890625
0.3681640625,0.1079254150390625,-0.868438720703125
0.3237152099609375,0.16314697265625,-0.9246063232421876
0.32684326171875,0.1853485107421875,-0.9274749755859376
0.320159912109375,0.211700439453125,-0.9069366455078124
0.281768798828125,0.213104248046875,-0.9138946533203124
0.242645263671875,0.210052490234375,-0.8815460205078125
0.194732666015625,0.1922760009765625,-0.8573150634765625
0.173431396484375,0.2072906494140625,-0.8526763916015625
0.1716156005859375,0.2050018310546875,-0.86383056640625
0.1519775390625,0.219390869140625,-0.919403076171875
0.18780517578125,0.229400634765625,-0.9342498779296876
0.248260498046875,0.210723876953125,-0.924163818359375
0.2851409912109375,0.221160888671875,-1.12322998046875
0.2841033935546875,0.35125732421875,-1.3152313232421875
0.315093994140625,0.1966400146484375,-1.13592529296875
0.3756256103515625,0.0847320556640625,-0.98321533203125
0.36614990234375,-0.009796142578125,-0.9097747802734376
0.34619140625,-0.0860137939453125,-0.8128509521484375
0.3372039794921875,0.013031005859375,-0.91217041015625
0.3607330322265625,0.1894378662109375,-1.0803375244140625
0.3531646728515625,0.249237060546875,-1.0507354736328125
0.384002685546875,0.20751953125,-0.8919219970703125
0.345611572265625,0.1595916748046875,-0.82080078125
0.2862701416015625,0.1931610107421875,-0.8464508056640625
0.25164794921875,0.2684173583984375,-0.9026336669921876
0.257110595703125,0.2527923583984375,-0.93878173828125
0.2634429931640625,0.230499267578125,-0.9351959228515624
0.275970458984375,0.1830596923828125,-0.9324951171875
0.2846832275390625,0.1595306396484375,-0.886932373046875
0.2835540771484375,0.165191650390625,-0.920684814453125
0.3112945556640625,0.155975341796875,-0.9086761474609376
0.3397979736328125,0.12652587890625,-0.9787750244140624
0.3749542236328125,0.148193359375,-1.04046630859375
0.37005615234375,0.1349029541015625,-1.0865936279296875
0.367919921875,0.212371826171875,-1.125518798828125
0.407501220703125,0.201812744140625,-1.0124969482421875
0.437286376953125,0.150054931640625,-1.0000152587890625
0.4183197021484375,0.1534881591796875,-0.996185302734375
0.420806884765625,0.15655517578125,-0.8951568603515625
0.3880767822265625,0.20953369140625,-0.772613525390625
0.410552978515625,0.272186279296875,-0.87127685546875
0.371826171875,0.3533477783203125,-1.0667724609375
0.3616180419921875,0.2691802978515625,-1.0541229248046875
0.3678436279296875,0.1851043701171875,-0.944671630859375
0.3238372802734375,0.208099365234375,-0.872894287109375
0.3350677490234375,0.230987548828125,-0.8633575439453125
0.34576416015625,0.2376556396484375,-0.8809814453125
0.34124755859375,0.21832275390625,-0.870819091796875
0.3223419189453125,0.2104339599609375,-0.8762359619140625
0.3269195556640625,0.21044921875,-0.8856658935546875
0.309051513671875,0.2085418701171875,-0.8966064453125
0.28143310546875,0.20135498046875,-0.9048004150390624
0.2595062255859375,0.1891937255859375,-0.905059814453125
0.23358154296875,0.185546875,-0.9015350341796876
0.214080810546875,0.164276123046875,-0.9150390625
0.202667236328125,0.147979736328125,-0.952911376953125
0.236785888671875,0.2013702392578125,-1.0002899169921875
0.28509521484375,0.3094482421875,-1.1743927001953125
0.3248443603515625,0.289459228515625,-1.135772705078125
0.3678131103515625,0.14788818359375,-0.955322265625
0.332244873046875,0.0673980712890625,-0.9039459228515624
0.2558746337890625,-0.0528106689453125,-0.90631103515625
0.218017578125,-0.099609375,-0.9263458251953124
0.221160888671875,0.0145111083984375,-1.006072998046875
0.24688720703125,0.1579742431640625,-1.1571807861328125
0.2823944091796875,0.1812744140625,-1.1266021728515625
0.239013671875,0.1067962646484375,-0.983428955078125
0.1532745361328125,0.0902862548828125,-0.959197998046875
0.1382293701171875,0.1396484375,-1.0080413818359375
0.1513214111328125,0.21612548828125,-1.0090789794921875
0.1938934326171875,0.219696044921875,-0.9256744384765624
0.1942901611328125,0.185546875,-0.9039154052734376
0.2105865478515625,0.1216888427734375,-0.9195404052734376
0.2480010986328125,0.06634521484375,-0.9272613525390624
0.2865447998046875,0.027099609375,-0.9297027587890624
0.359405517578125,-0.0568084716796875,-0.889617919921875
0.4088287353515625,-0.04791259765625,-0.8209381103515625
0.4149932861328125,-0.070648193359375,-0.896148681640625
0.417816162109375,-0.0805511474609375,-0.96337890625
0.416595458984375,-0.114410400390625,-0.99627685546875
0.4219512939453125,-0.14544677734375,-0.99298095703125
0.409423828125,-0.1324310302734375,-0.951080322265625
0.4124908447265625,-0.0639495849609375,-0.9082794189453124
0.4293975830078125,0.0423736572265625,-1.004119873046875
0.4057464599609375,0.0508575439453125,-1.17608642578125
0.34259033203125,-0.0062408447265625,-1.2266998291015625
0.2796630859375,0.0193328857421875,-1.1334075927734375
0.284149169921875,0.1450653076171875,-1.0764312744140625
0.28961181640625,0.1878662109375,-1.007843017578125
0.3209991455078125,0.2378692626953125,-1.060577392578125
0.376190185546875,0.2853240966796875,-1.1489105224609375
0.4094390869140625,0.2886962890625,-1.1747283935546875
0.4039459228515625,0.2499847412109375,-1.1396331787109375
0.4089202880859375,0.2863922119140625,-1.0284881591796875
0.340484619140625,0.3547210693359375,-0.8752593994140625
0.3615570068359375,0.315521240234375,-0.762481689453125
0.299591064453125,0.3188323974609375,-0.649993896484375
0.2796478271484375,0.25970458984375,-0.6611480712890625
0.03472900390625,0.0843048095703125,-0.9236297607421876
0.1024322509765625,0.0140380859375,-0.9691619873046876
0.1564788818359375,-0.20721435546875,-0.7614593505859375
0.111724853515625,-0.347747802734375,-0.9855194091796876
-0.0228424072265625,-0.151580810546875,-1.0146484375
-0.009552001953125,-0.2664947509765625,-1.0229949951171875
-0.118743896484375,-0.2636260986328125,-0.922576904296875
-0.2128753662109375,-0.2367401123046875,-0.9282379150390624
-0.161102294921875,-0.2884674072265625,-0.9745635986328124
-0.2043914794921875,-0.1213226318359375,-1.077178955078125
-0.154052734375,-0.0215911865234375,-1.16815185546875
-0.1387786865234375,-0.060333251953125,-1.1359100341796875
-0.15673828125,-0.07513427734375,-0.96258544921875
-0.2103118896484375,-0.03759765625,-0.8702545166015625
-0.2183990478515625,-0.0197601318359375,-0.90557861328125
-0.1576385498046875,0.0184783935546875,-0.9361724853515624
-0.0924072265625,0.015777587890625,-0.8648529052734375
-0.0564117431640625,0.0493621826171875,-1.05804443359375
0.0086669921875,0.072723388671875,-1.18865966796875
0.129302978515625,-0.119171142578125,-1.12567138671875
0.079742431640625,-0.12103271484375,-1.057281494140625
0.04644775390625,-0.08721923828125,-0.92755126953125
-0.0170745849609375,-0.0470123291015625,-0.8903350830078125
-0.0045166015625,-0.024078369140625,-0.9803924560546876
0.0110015869140625,-0.051788330078125,-1.01214599609375
-0.00762939453125,-0.0536346435546875,-1.0059661865234375
0.0098724365234375,-0.0443267822265625,-1.0183258056640625
-0.0114593505859375,-0.0903167724609375,-1.0174102783203125
0.02569580078125,-0.112579345703125,-0.9698486328125
0.0223236083984375,-0.003753662109375,-1.0193023681640625
0.0379486083984375,0.0079803466796875,-1.0941009521484375
0.0389251708984375,0.0211029052734375,-1.0591278076171875
0.0359954833984375,0.013885498046875,-0.98602294921875
0.056060791015625,0.0198516845703125,-1.03900146484375
0.0963897705078125,0.0378875732421875,-1.021575927734375
0.092315673828125,0.020599365234375,-0.9442901611328124
0.1349334716796875,0.0267791748046875,-0.957305908203125
0.145355224609375,0.0394439697265625,-0.9316253662109376
0.163848876953125,0.0485076904296875,-0.978607177734375
0.160552978515625,-0.015533447265625,-0.9958953857421876
0.163665771484375,-0.052215576171875,-0.9602508544921876
0.145233154296875,-0.05743408203125,-0.9562530517578124
0.13397216796875,-0.0919189453125,-0.9355926513671876
0.1436920166015625,-0.0430145263671875,-0.9018402099609376
0.1750946044921875,0.004608154296875,-0.88568115234375
0.2751312255859375,-0.0904693603515625,-0.9135284423828124
0.3966217041015625,-0.036773681640625,-0.9550933837890624
0.45703125,-0.06396484375,-0.849822998046875
0.481414794921875,0.043182373046875,-0.84417724609375
0.596099853515625,-0.1259002685546875,-0.8447113037109375
0.5789642333984375,-0.2130584716796875,-0.85980224609375
0.39678955078125,-0.18316650390625,-0.8387298583984375
0.4105377197265625,-0.13775634765625,-0.8035125732421875
0.254180908203125,-0.00518798828125,-0.8123931884765625
0.238800048828125,0.1015625,-0.9505157470703124
0.21759033203125,0.2082366943359375,-0.966064453125
0.2590789794921875,0.2578277587890625,-0.9297332763671876
0.2877044677734375,0.315216064453125,-0.939788818359375
0.2856292724609375,0.287567138671875,-1.0816497802734375
0.3914947509765625,0.2616729736328125,-1.1367034912109375
0.446136474609375,0.2251434326171875,-1.130035400390625
0.4233245849609375,0.248809814453125,-1.1365966796875
0.3178558349609375,0.273223876953125,-1.091400146484375
0.2036590576171875,0.309112548828125,-1.058990478515625
0.2115020751953125,0.254913330078125,-0.9646759033203124
0.235107421875,0.2152557373046875,-0.8950347900390625
0.2071685791015625,0.22894287109375,-0.93048095703125
0.198974609375,0.2363433837890625,-0.992431640625
0.20855712890625,0.179046630859375,-0.9920501708984376
0.201019287109375,0.1439971923828125,-0.9824676513671876
0.24468994140625,0.1350250244140625,-0.91412353515625
0.18804931640625,0.1226959228515625,-0.942108154296875
0.195770263671875,0.08990478515625,-0.909210205078125
0.2443695068359375,0.09649658203125,-0.8505859375
0.2577667236328125,0.1539154052734375,-0.845458984375
0.256988525390625,0.2145538330078125,-0.9259796142578124
0.2564239501953125,0.3005523681640625,-0.9737091064453124
0.207183837890625,0.342498779296875,-1.046295166015625
0.20916748046875,0.3426513671875,-1.08447265625
0.28546142578125,0.453704833984375,-1.2194976806640625
0.2593231201171875,0.398284912109375,-1.1565704345703125
0.258331298828125,0.10626220703125,-0.9821929931640624
0.1475830078125,0.08172607421875,-1.1926116943359375
0.1896820068359375,0.266387939453125,-1.322540283203125
0.3206329345703125,0.272308349609375,-1.0685272216796875
0.2047271728515625,0.3781890869140625,-0.9482269287109376
0.2184906005859375,0.3004150390625,-0.8727569580078125
0.2843475341796875,0.1625518798828125,-0.9479522705078124
0.2470703125,0.193572998046875,-0.902801513671875
0.2222442626953125,0.14892578125,-0.814605712890625
0.1264495849609375,0.1922607421875,-0.850311279296875
0.1028289794921875,0.208709716796875,-0.77496337890625
0.119537353515625,0.2126922607421875,-0.7025604248046875
0.133148193359375,0.2341461181640625,-0.672119140625
0.1610260009765625,0.244293212890625,-0.660552978515625
0.14599609375,0.224639892578125,-0.7560272216796875
0.2081298828125,0.23773193359375,-0.8986358642578125
0.31591796875,0.21246337890625,-0.985107421875
0.2309112548828125,0.1452178955078125,-1.21563720703125
0.3631591796875,0.219512939453125,-1.4946136474609375
0.4533233642578125,0.380706787109375,-1.4982147216796875
0.454071044921875,0.19793701171875,-1.1568450927734375
0.323699951171875,-0.022796630859375,-0.9379425048828124
0.3330230712890625,-0.1238861083984375,-0.889068603515625
0.3242950439453125,0.03924560546875,-1.176788330078125
0.2563629150390625,0.1886749267578125,-1.12396240234375
0.206146240234375,0.162384033203125,-0.8958587646484375
0.1208648681640625,0.1215972900390625,-0.86151123046875
0.1009063720703125,0.0580291748046875,-0.81671142578125
0.097076416015625,0.0911712646484375,-0.843536376953125
0.0750885009765625,0.1648101806640625,-0.8761138916015625
0.0840911865234375,0.15899658203125,-0.8877716064453125
0.0926055908203125,0.14288330078125,-0.9253387451171876
0.1102752685546875,0.14263916015625,-0.9142303466796876
0.12615966796875,0.1389007568359375,-0.9233551025390624
0.130645751953125,0.1286773681640625,-0.9629669189453124
0.143524169921875,0.146514892578125,-1.0350799560546875
0.168121337890625,0.14886474609375,-1.150665283203125
0.222900390625,0.1891021728515625,-1.3057098388671875
0.182891845703125,0.22064208984375,-1.2438507080078125
0.180511474609375,0.2224884033203125,-1.1228485107421875
0.1309356689453125,0.14678955078125,-0.9546966552734376
0.05389404296875,0.056884765625,-0.922332763671875
0.086151123046875,0.1407623291015625,-1.0655364990234375
0.1564178466796875,0.1925506591796875,-1.051483154296875
0.1446380615234375,0.223388671875,-1.0742645263671875
0.11419677734375,0.2579498291015625,-1.0409698486328125
0.1209564208984375,0.301605224609375,-0.91241455078125
0.1233978271484375,0.3440093994140625,-0.893829345703125
0.1248321533203125,0.3048248291015625,-0.861114501953125
0.10699462890625,0.221893310546875,-0.8271942138671875
0.0802459716796875,0.1450347900390625,-0.8409271240234375
0.06097412109375,0.12994384765625,-0.918792724609375
0.094573974609375,0.0945281982421875,-0.90765380859375
0.112945556640625,0.0766448974609375,-0.953857421875
0.134063720703125,0.081207275390625,-0.9925079345703124
0.148681640625,0.0595855712890625,-1.0946197509765625
0.153961181640625,0.224578857421875,-1.329559326171875
0.2105865478515625,0.291259765625,-1.3420257568359375
0.2463226318359375,-0.018035888671875,-1.123626708984375
0.1282958984375,-0.1575775146484375,-0.888580322265625
0.1581878662109375,-0.042755126953125,-0.91131591796875
0.1717376708984375,0.28985595703125,-1.1461181640625
0.1466217041015625,0.3030548095703125,-1.0311279296875
0.1521148681640625,0.17919921875,-0.9161834716796876
0.137054443359375,0.1670379638671875,-0.9004058837890625
0.14178466796875,0.1528472900390625,-0.9089508056640624
0.1231536865234375,0.11163330078125,-0.8909454345703125
0.0509490966796875,0.135711669921875,-0.9336090087890624
0.0272064208984375,0.1236419677734375,-0.951568603515625
0.0453033447265625,0.1215667724609375,-0.9519805908203124
0.0283050537109375,0.1452484130859375,-0.937347412109375
0.0294647216796875,0.121124267578125,-0.9143218994140624
0.0268096923828125,0.1302032470703125,-0.9041748046875
0.0129852294921875,0.148162841796875,-0.9278564453125
0.0260009765625,0.1336517333984375,-1.008392333984375
0.0588836669921875,0.1902618408203125,-1.0617218017578125
0.1457977294921875,0.2082672119140625,-1.022003173828125
0.2261505126953125,0.255584716796875,-0.959014892578125
0.221588134765625,0.285675048828125,-0.904815673828125
0.2182159423828125,0.2904815673828125,-0.901123046875
0.2615203857421875,0.343475341796875,-0.90142822265625
0.28729248046875,0.32061767578125,-0.910003662109375
0.28363037109375,0.3211517333984375,-0.9102020263671876
0.227783203125,0.260589599609375,-0.83697509765625
0.2056732177734375,0.1593475341796875,-0.83502197265625
0.1135101318359375,-0.0112457275390625,-0.983001708984375
0.0836029052734375,0.0177001953125,-0.9912872314453124
0.078277587890625,-0.09246826171875,-1.00482177734375
0.0158233642578125,-0.0532684326171875,-0.96649169921875
0.010223388671875,-0.2039337158203125,-1.0864105224609375
0.4097900390625,-0.18115234375,-1.0582427978515625
0.2582244873046875,-0.2275543212890625,-1.2440643310546875
0.3329620361328125,-0.1857757568359375,-1.2337493896484375
0.29010009765625,-0.1517486572265625,-1.11700439453125
0.201629638671875,-0.071990966796875,-1.0003204345703125
0.225982666015625,-0.209869384765625,-1.0415496826171875
0.2862091064453125,-0.1800537109375,-0.9262542724609376
0.206787109375,-0.246063232421875,-1.0902557373046875
0.144744873046875,-0.2712249755859375,-1.09893798828125
0.0174407958984375,-0.2165374755859375,-0.8346710205078125
-0.0701446533203125,-0.2387847900390625,-0.9283905029296876
-0.091278076171875,-0.2087249755859375,-0.9120025634765624
-0.084381103515625,-0.2658538818359375,-0.8459625244140625
0.0704193115234375,-0.4256134033203125,-1.0682525634765625
0.1394805908203125,-0.511810302734375,-1.01275634765625
0.1060333251953125,-0.3448638916015625,-0.8632659912109375
0.0089111328125,-0.1272125244140625,-0.925048828125
-0.119873046875,-0.2250213623046875,-0.923675537109375
-0.1949005126953125,-0.3400421142578125,-0.9998779296875
-0.059661865234375,-0.365325927734375,-1.080078125
-0.02349853515625,-0.365142822265625,-0.8852081298828125
0.02178955078125,-0.3509368896484375,-0.82574462890625
0.03692626953125,-0.407012939453125,-0.8718719482421875
0.0187835693359375,-0.410491943359375,-0.8936309814453125
0.0091400146484375,-0.3960113525390625,-0.9345703125
-0.0019073486328125,-0.387969970703125,-0.925750732421875
0.0224456787109375,-0.3773651123046875,-0.9665985107421876
0.0458984375,-0.3567657470703125,-0.9190216064453124
0.082916259765625,-0.340087890625,-0.9640960693359376
0.0908966064453125,-0.3274993896484375,-0.997222900390625
0.0715484619140625,-0.3120880126953125,-0.95416259765625
0.06982421875,-0.3099365234375,-0.946380615234375
0.0733489990234375,-0.327362060546875,-0.9544830322265624
0.0792388916015625,-0.3479766845703125,-0.9468841552734376
0.080841064453125,-0.3695220947265625,-0.9498291015625
0.071380615234375,-0.37835693359375,-0.9226226806640624
0.0602874755859375,-0.375732421875,-0.9122161865234376
0.040802001953125,-0.3855133056640625,-0.9215545654296876
0.036102294921875,-0.3845977783203125,-0.92462158203125
0.0240631103515625,-0.3761749267578125,-0.91693115234375
0.030975341796875,-0.37310791015625,-0.92913818359375
0.056304931640625,-0.3670806884765625,-0.953125
0.0525360107421875,-0.368377685546875,-0.9581298828125
