AccelerationX,AccelerationY,AccelerationZ
-0.1293182373046875,-0.038970947265625,-0.9947509765625
-0.0760955810546875,-0.01904296875,-0.93341064453125
-0.0186920166015625,0.0160675048828125,-0.9976806640625
-0.019927978515625,-0.0194854736328125,-1.031982421875
0.011260986328125,-0.1261444091796875,-0.957855224609375
0.046142578125,-0.1552276611328125,-1.1443023681640625
0.195587158203125,-0.1863861083984375,-1.140869140625
0.1791839599609375,0.04681396484375,-1.109100341796875
0.254425048828125,-0.0372314453125,-1.003662109375
-0.03436279296875,0.07562255859375,-0.498382568359375
0.240081787109375,-0.3387451171875,-1.2686004638671875
0.546600341796875,-0.4435882568359375,-0.7987213134765625
0.2566070556640625,-0.088531494140625,-0.9537811279296876
0.3196258544921875,-0.1049041748046875,-0.8909454345703125
0.3109130859375,-0.1494140625,-0.9076995849609376
0.302886962890625,-0.1444854736328125,-1.0370025634765625
0.2997894287109375,-0.15673828125,-0.960540771484375
0.3386993408203125,-0.04302978515625,-0.9525146484375
0.3061676025390625,-0.101104736328125,-0.943817138671875
0.421417236328125,-0.05426025390625,-0.903167724609375
0.3524627685546875,-0.0001068115234375,-0.998016357421875
0.2379150390625,-0.0032806396484375,-0.9378204345703124
0.31500244140625,-0.04522705078125,-0.9683685302734376
0.292449951171875,-0.0216217041015625,-0.947052001953125
0.3065338134765625,0.0490570068359375,-0.836944580078125
0.1898345947265625,0.12872314453125,-0.7717132568359375
0.169036865234375,0.074676513671875,-0.86273193359375
0.2493133544921875,0.0899200439453125,-1.021820068359375
0.13031005859375,0.1091461181640625,-1.0513153076171875
0.1190643310546875,0.0308990478515625,-1.0922088623046875
0.09674072265625,0.037750244140625,-1.13970947265625
0.0755615234375,0.0981903076171875,-1.04296875
0.114715576171875,0.1009368896484375,-1.0164642333984375
0.0172119140625,0.189117431640625,-1.182830810546875
0.0466766357421875,0.1621856689453125,-1.230194091796875
0.076202392578125,0.11865234375,-1.09326171875
-0.005126953125,0.09124755859375,-0.9795379638671876
-0.0670013427734375,0.0959625244140625,-0.9545745849609376
-0.11895751953125,0.12408447265625,-0.95587158203125
-0.0672607421875,0.1734466552734375,-0.943695068359375
-0.037689208984375,0.179046630859375,-0.9613494873046876
-0.022125244140625,0.1528167724609375,-0.9906768798828124
0.0054931640625,0.0921478271484375,-0.9748992919921876
0.012054443359375,0.0354461669921875,-0.956024169921875
-0.0170135498046875,0.050689697265625,-0.9779052734375
0.0175018310546875,0.086090087890625,-1.0029754638671875
0.023681640625,0.10626220703125,-1.0326080322265625
0.05120849609375,0.1601715087890625,-1.1930999755859375
0.1450042724609375,0.1875,-1.1568145751953125
0.193511962890625,0.1890411376953125,-1.007843017578125
0.14971923828125,0.25653076171875,-1.01702880859375
0.1176300048828125,0.294219970703125,-1.0347900390625
0.082061767578125,0.2760009765625,-0.97857666015625
0.033355712890625,0.2553558349609375,-0.9479522705078124
0.033416748046875,0.2082366943359375,-0.907989501953125
0.0497589111328125,0.2393035888671875,-0.96099853515625
0.03973388671875,0.3552398681640625,-1.1090087890625
0.0631561279296875,0.367645263671875,-1.1266326904296875
0.054229736328125,0.2895050048828125,-1.018707275390625
0.0381317138671875,0.231048583984375,-0.9732666015625
0.0337066650390625,0.2369384765625,-0.95166015625
0.037750244140625,0.2724456787109375,-0.952178955078125
0.0583953857421875,0.259490966796875,-0.9263763427734376
0.02911376953125,0.3012237548828125,-0.901397705078125
0.010589599609375,0.267333984375,-0.8562774658203125
-0.024261474609375,0.240875244140625,-0.848297119140625
-0.0359344482421875,0.14715576171875,-0.8885955810546875
-0.0320281982421875,0.0357818603515625,-1.0087127685546875
0.039276123046875,-0.0380401611328125,-1.0853729248046875
0.0470123291015625,-0.0172119140625,-1.1554412841796875
-0.003936767578125,-0.079132080078125,-1.193389892578125
0.0391387939453125,-0.0035400390625,-1.1225433349609375
0.0073699951171875,0.199127197265625,-1.2185821533203125
0.0341339111328125,0.43499755859375,-1.34124755859375
0.1400299072265625,0.2899017333984375,-1.1312408447265625
0.084686279296875,0.1348419189453125,-1.0257720947265625
0.0452117919921875,0.026214599609375,-0.942413330078125
0.0780792236328125,0.11529541015625,-0.9241485595703124
0.1235504150390625,0.324981689453125,-0.9831390380859376
0.1147308349609375,0.5538787841796875,-1.022369384765625
0.15338134765625,0.54852294921875,-0.9149322509765624
0.145843505859375,0.4116058349609375,-0.7277679443359375
0.049957275390625,0.285308837890625,-0.643707275390625
-0.074432373046875,0.2577056884765625,-0.6826019287109375
-0.0971832275390625,0.258544921875,-0.7446136474609375
-0.0508270263671875,0.3325653076171875,-0.831146240234375
-0.0061492919921875,0.409027099609375,-0.9182891845703124
0.0261688232421875,0.3669281005859375,-1.0102386474609375
0.012969970703125,0.312835693359375,-1.0701904296875
0.017333984375,0.248016357421875,-1.0764312744140625
-0.038116455078125,0.24176025390625,-1.0857391357421875
-0.0592498779296875,0.2829132080078125,-1.07135009765625
-0.07269287109375,0.3105926513671875,-1.0554656982421875
-0.08453369140625,0.3787078857421875,-1.0886383056640625
-0.0399322509765625,0.4454803466796875,-1.1959381103515625
-0.00396728515625,0.4739990234375,-1.314422607421875
0.044158935546875,0.2782440185546875,-1.1987152099609375
0.016845703125,0.221435546875,-1.0449066162109375
0.0328216552734375,0.1736907958984375,-0.852569580078125
0.0613555908203125,0.1772308349609375,-0.74468994140625
0.0217437744140625,0.311798095703125,-0.8552398681640625
0.0215606689453125,0.3925323486328125,-1.101837158203125
0.10748291015625,0.3346099853515625,-1.1440582275390625
0.122344970703125,0.2847442626953125,-1.11383056640625
0.058868408203125,0.3388519287109375,-1.06463623046875
-0.041900634765625,0.46746826171875,-1.0683746337890625
-0.0379638671875,0.5298309326171875,-0.997406005859375
0.0064239501953125,0.5123138427734375,-0.886749267578125
0.008209228515625,0.4458160400390625,-0.77215576171875
-0.0142059326171875,0.4391021728515625,-0.7504119873046875
-0.039642333984375,0.447235107421875,-0.7609100341796875
0.008270263671875,0.4194793701171875,-0.794647216796875
0.0590362548828125,0.40374755859375,-0.7840423583984375
0.0235137939453125,0.419586181640625,-0.802276611328125
0.000244140625,0.389617919921875,-0.8572540283203125
0.0044708251953125,0.342132568359375,-0.921722412109375
-0.023956298828125,0.3115081787109375,-1.08251953125
-0.0061492919921875,0.3313751220703125,-1.184173583984375
0.0367279052734375,0.4914093017578125,-1.4716644287109375
0.1486968994140625,0.39251708984375,-1.3411865234375
0.180755615234375,0.204376220703125,-1.15643310546875
-0.0165863037109375,0.065521240234375,-1.0270843505859375
-0.151824951171875,-0.10064697265625,-1.0063629150390625
-0.08282470703125,-0.07342529296875,-1.043487548828125
0.0469818115234375,0.1492156982421875,-1.0416259765625
0.0970306396484375,0.5125274658203125,-1.03033447265625
0.07958984375,0.655426025390625,-0.9286651611328124
0.03369140625,0.62884521484375,-0.846649169921875
-0.0125885009765625,0.6841583251953125,-0.7755584716796875
0.004486083984375,0.7055511474609375,-0.7958221435546875
0.0475921630859375,0.72064208984375,-0.808135986328125
0.0641021728515625,0.7369232177734375,-0.8058319091796875
0.06390380859375,0.667205810546875,-0.80908203125
0.0182952880859375,0.58013916015625,-0.818695068359375
0.01416015625,0.4942626953125,-0.878875732421875
0.0113067626953125,0.393524169921875,-0.8980255126953125
-0.00469970703125,0.3902130126953125,-0.8895263671875
0.0166778564453125,0.3106689453125,-0.9256439208984376
0.0042266845703125,0.3058319091796875,-1.02606201171875
-0.0260467529296875,0.2745361328125,-1.179931640625
-1.52587890625e-05,0.17254638671875,-1.154083251953125
0.0793914794921875,0.2104644775390625,-1.1051483154296875
0.1252899169921875,0.2513885498046875,-1.010162353515625
0.1152496337890625,0.25738525390625,-0.9443817138671876
0.0912322998046875,0.26446533203125,-0.904205322265625
0.101715087890625,0.2755279541015625,-0.927337646484375
0.160430908203125,0.2806854248046875,-0.9235076904296876
0.1574859619140625,0.2865142822265625,-0.876220703125
0.1506805419921875,0.2402801513671875,-0.98455810546875
0.1438751220703125,0.208221435546875,-0.9552764892578124
0.132965087890625,0.2357025146484375,-0.9473876953125
0.1329803466796875,0.2174072265625,-0.962127685546875
0.08251953125,0.2022857666015625,-0.9479217529296876
0.0556793212890625,0.1859588623046875,-1.0087432861328125
0.036865234375,0.2214202880859375,-1.0671844482421875
-0.0163421630859375,0.1723785400390625,-1.0396575927734375
0.007049560546875,0.11004638671875,-0.9588623046875
-0.04827880859375,0.085540771484375,-0.97412109375
-0.0554656982421875,0.075836181640625,-0.9937286376953124
-0.0367431640625,0.09332275390625,-1.0068206787109375
0.0195159912109375,0.116455078125,-0.9915313720703124
0.035064697265625,0.114471435546875,-0.97918701171875
0.0616607666015625,0.1204681396484375,-1.0504302978515625
0.099822998046875,0.12799072265625,-1.0221405029296875
0.1661834716796875,0.1521759033203125,-1.1020660400390625
0.2099761962890625,0.138580322265625,-1.0670166015625
0.21319580078125,0.112945556640625,-1.043426513671875
0.239501953125,0.131591796875,-1.0272674560546875
0.203125,0.142669677734375,-0.96319580078125
0.2195892333984375,0.1502685546875,-0.9795074462890624
0.240234375,0.1654510498046875,-0.9569244384765624
0.2451324462890625,0.1494903564453125,-0.9777679443359376
0.22210693359375,0.1447296142578125,-0.936492919921875
0.2015838623046875,0.13519287109375,-0.944183349609375
0.1643829345703125,0.123809814453125,-0.974456787109375
0.153839111328125,0.0865631103515625,-0.969024658203125
0.14447021484375,0.07720947265625,-0.9808349609375
0.1264495849609375,0.0934906005859375,-0.964141845703125
0.13275146484375,0.117645263671875,-0.9505157470703124
0.137298583984375,0.146759033203125,-0.9704742431640624
0.154510498046875,0.1192626953125,-1.008056640625
0.180419921875,0.0853424072265625,-1.0485076904296875
0.1967926025390625,0.06646728515625,-1.032470703125
0.2096099853515625,0.066680908203125,-1.0301513671875
0.2189178466796875,0.0901641845703125,-1.007171630859375
0.2310333251953125,0.1064605712890625,-0.9642791748046876
0.2256011962890625,0.110809326171875,-0.9560394287109376
0.214111328125,0.1202392578125,-1.00054931640625
0.21783447265625,0.1078643798828125,-1.040802001953125
0.2369232177734375,0.0545806884765625,-1.06591796875
0.261627197265625,0.003814697265625,-1.057281494140625
0.2762603759765625,-0.0085601806640625,-0.9713287353515624
0.2244873046875,0.042938232421875,-0.990570068359375
0.1869964599609375,0.0710601806640625,-0.9778289794921876
0.148345947265625,0.0911712646484375,-0.9714813232421876
0.129638671875,0.09759521484375,-0.9558258056640624
0.0987396240234375,0.0761260986328125,-0.9327392578125
0.0700225830078125,0.0566253662109375,-0.9420166015625
0.0543670654296875,0.034210205078125,-0.946868896484375
0.044891357421875,0.035675048828125,-0.9824676513671876
0.04931640625,0.026458740234375,-1.0443572998046875
0.0586700439453125,0.0045623779296875,-1.069183349609375
0.0743408203125,-0.010223388671875,-1.10308837890625
0.11322021484375,-0.011260986328125,-1.064056396484375
0.1242523193359375,-0.0218963623046875,-0.991302490234375
0.0732421875,-0.0276947021484375,-0.9566650390625
0.0486297607421875,-0.02911376953125,-0.9656524658203124
0.0582122802734375,0.0198516845703125,-1.004730224609375
0.06243896484375,0.05609130859375,-1.0565643310546875
0.1038665771484375,0.051666259765625,-1.0557708740234375
0.107208251953125,0.0267333984375,-1.0503692626953125
0.1118621826171875,-0.006988525390625,-1.0085601806640625
0.097320556640625,-0.0118560791015625,-0.9763031005859376
0.09100341796875,0.0064697265625,-0.9921875
0.1090850830078125,0.008941650390625,-0.992340087890625
0.10235595703125,0.00335693359375,-1.002655029296875
0.094085693359375,-0.0069732666015625,-1.007476806640625
0.0947265625,-0.0057830810546875,-0.9968109130859376
0.089569091796875,0.008453369140625,-1.03826904296875
0.092010498046875,0.010467529296875,-0.9833221435546876
0.0980377197265625,0.0277862548828125,-0.9730987548828124
0.1056671142578125,0.0327606201171875,-0.952423095703125
0.097137451171875,0.0543975830078125,-0.959808349609375
0.1010589599609375,0.0639801025390625,-0.9401397705078124
0.0990753173828125,0.0852203369140625,-0.9305877685546876
0.072174072265625,0.0843505859375,-0.9515533447265624
0.0666351318359375,0.0930023193359375,-0.9799957275390624
0.079437255859375,0.1179046630859375,-1.0870361328125
0.0839080810546875,0.122589111328125,-1.1531524658203125
0.125579833984375,0.06219482421875,-1.1219329833984375
0.163360595703125,0.028106689453125,-1.037628173828125
0.151336669921875,0.0233306884765625,-0.9935760498046876
0.0898590087890625,0.013214111328125,-0.9937591552734376
0.0693359375,-0.0310821533203125,-0.978851318359375
0.0569915771484375,-0.0135498046875,-1.0566253662109375
0.0885009765625,0.00506591796875,-1.1035003662109375
0.1284027099609375,-0.0176544189453125,-1.09521484375
0.10748291015625,-0.007354736328125,-1.087066650390625
0.0795135498046875,0.0352020263671875,-1.0501708984375
0.075927734375,0.0808563232421875,-1.005828857421875
0.0652313232421875,0.1219329833984375,-0.959716796875
0.0905303955078125,0.1347503662109375,-0.9762420654296876
0.1201171875,0.1223602294921875,-0.9433441162109376
0.134765625,0.08251953125,-0.8958587646484375
0.13671875,0.0733795166015625,-0.8427734375
0.13140869140625,0.0617218017578125,-0.8471527099609375
0.16033935546875,0.0637054443359375,-0.840911865234375
0.1886138916015625,0.09710693359375,-0.9014434814453124
0.2327423095703125,0.072723388671875,-0.982391357421875
0.282135009765625,-0.0137939453125,-1.1075286865234375
0.3083038330078125,-0.1354827880859375,-1.139678955078125
0.2560577392578125,-0.15435791015625,-1.1544036865234375
0.1534881591796875,-0.115142822265625,-1.19647216796875
0.14862060546875,0.0154876708984375,-1.450164794921875
0.249786376953125,-0.00146484375,-1.2780303955078125
0.280914306640625,-0.137481689453125,-0.7808837890625
0.1972198486328125,-0.24395751953125,-0.62493896484375
0.04107666015625,-0.2721405029296875,-0.812164306640625
7.62939453125e-05,-0.102813720703125,-1.084381103515625
0.1675567626953125,0.083953857421875,-1.136688232421875
0.2753753662109375,0.10723876953125,-0.941314697265625
0.2089996337890625,0.000274658203125,-0.8857421875
0.0736236572265625,-0.0025177001953125,-0.9892578125
0.0237579345703125,0.030487060546875,-1.1141815185546875
0.1138763427734375,0.1026458740234375,-1.1436309814453125
0.177734375,0.1507568359375,-1.1014404296875
0.181365966796875,0.1412506103515625,-1.0465545654296875
0.1547698974609375,0.0680694580078125,-0.9824066162109376
0.136566162109375,0.066680908203125,-0.9261474609375
0.14068603515625,0.1073455810546875,-0.8657989501953125
0.1228485107421875,0.167388916015625,-0.8557586669921875
0.099609375,0.186859130859375,-0.88427734375
0.102203369140625,0.1376495361328125,-0.9135589599609376
0.09869384765625,0.0918731689453125,-0.965118408203125
0.098480224609375,0.0684967041015625,-1.0802764892578125
0.13604736328125,0.0224456787109375,-1.115570068359375
0.13970947265625,0.030853271484375,-1.160491943359375
0.0461883544921875,0.052398681640625,-1.204010009765625
0.0277557373046875,0.0987548828125,-1.2131500244140625
0.112030029296875,0.1115264892578125,-1.162353515625
0.1551971435546875,0.08038330078125,-0.978057861328125
0.129791259765625,0.080322265625,-0.94439697265625
0.1022186279296875,0.0782470703125,-1.0398101806640625
0.0976409912109375,-0.00323486328125,-1.0428466796875
0.0344390869140625,-0.01959228515625,-1.03179931640625
0.116241455078125,-0.0318756103515625,-0.9842376708984376
0.1465301513671875,-0.031402587890625,-0.951324462890625
0.0908050537109375,-0.013458251953125,-0.93505859375
0.0772552490234375,-0.0164642333984375,-0.93218994140625
0.0893096923828125,-0.018646240234375,-0.92681884765625
0.085968017578125,-0.0308074951171875,-0.9485931396484376
0.070892333984375,-0.0326690673828125,-0.973907470703125
0.1012420654296875,-0.0296173095703125,-0.9606781005859376
0.073883056640625,-0.004913330078125,-0.9452972412109376
0.066986083984375,-0.020965576171875,-0.96075439453125
0.0767822265625,-0.0501708984375,-1.0047454833984375
0.0608978271484375,-0.0557403564453125,-1.0322723388671875
0.0827789306640625,0.010223388671875,-1.167388916015625
0.1547393798828125,0.0831146240234375,-1.2471923828125
0.1458740234375,0.1652984619140625,-1.43609619140625
0.1345062255859375,0.129852294921875,-1.1889190673828125
0.067718505859375,0.0249176025390625,-0.801483154296875
0.0121002197265625,0.073699951171875,-0.7693023681640625
0.0450286865234375,0.131134033203125,-0.8751373291015625
0.1068115234375,0.2112884521484375,-1.047760009765625
0.1533355712890625,0.2841033935546875,-1.0296173095703125
0.1413726806640625,0.22247314453125,-0.9044342041015624
0.0888671875,0.1611175537109375,-0.868377685546875
0.031829833984375,0.102294921875,-0.868927001953125
0.0472412109375,0.139404296875,-0.9012603759765624
0.13543701171875,0.13250732421875,-0.8936767578125
0.1573333740234375,0.1135406494140625,-0.9037628173828124
0.1527252197265625,0.12200927734375,-0.9361114501953124
0.1778106689453125,0.1117095947265625,-0.921661376953125
0.18231201171875,0.1190032958984375,-0.9275360107421876
0.2005615234375,0.1165008544921875,-0.9276123046875
0.222503662109375,0.1059722900390625,-0.9233856201171876
0.2418060302734375,0.0907440185546875,-0.956878662109375
0.273712158203125,0.1060638427734375,-1.0087890625
0.3337249755859375,0.1626129150390625,-1.021575927734375
0.3856048583984375,0.2151641845703125,-1.1190338134765625
0.3869476318359375,0.20166015625,-1.0983734130859375
0.3367462158203125,0.1916961669921875,-1.1249542236328125
0.265777587890625,0.1711883544921875,-1.102569580078125
0.232666015625,0.1305694580078125,-1.0355987548828125
0.2073822021484375,0.1116180419921875,-0.952056884765625
0.2105712890625,0.0715484619140625,-0.920745849609375
0.2145233154296875,0.0877532958984375,-1.05267333984375
0.18328857421875,0.175445556640625,-1.0507659912109375
0.1905670166015625,0.21710205078125,-1.043121337890625
0.19915771484375,0.2248077392578125,-0.9792327880859376
0.1904449462890625,0.234710693359375,-0.9134979248046876
0.1812591552734375,0.214202880859375,-0.93328857421875
0.2292938232421875,0.150390625,-0.9190673828125
0.2133331298828125,0.195709228515625,-0.9444732666015624
0.2595672607421875,0.195556640625,-0.9635162353515624
0.2860260009765625,0.18914794921875,-0.966064453125
0.2990570068359375,0.1905059814453125,-0.91680908203125
0.3023834228515625,0.1584014892578125,-0.8754730224609375
0.3037109375,0.172576904296875,-0.90869140625
0.325775146484375,0.1788787841796875,-0.9699249267578124
0.352813720703125,0.1862640380859375,-1.033782958984375
0.3423309326171875,0.177337646484375,-1.0383758544921875
0.329559326171875,0.1825103759765625,-1.021148681640625
0.3118743896484375,0.1307373046875,-0.905303955078125
0.248382568359375,0.0632171630859375,-0.852447509765625
0.194061279296875,0.0401458740234375,-0.9233856201171876
0.1453857421875,0.0477142333984375,-1.005706787109375
0.1472625732421875,0.0982513427734375,-1.0761566162109375
0.2064056396484375,0.1141510009765625,-1.096099853515625
0.2799835205078125,0.07647705078125,-0.981048583984375
0.25274658203125,0.0550689697265625,-0.9192352294921876
0.214874267578125,0.076690673828125,-0.967681884765625
0.24896240234375,0.0901641845703125,-0.9973907470703124
0.2969512939453125,0.07049560546875,-0.98675537109375
0.309814453125,0.041961669921875,-0.9725494384765624
0.273101806640625,0.0208892822265625,-1.0009918212890625
0.2685089111328125,0.0149078369140625,-0.9960784912109376
0.2527313232421875,0.00201416015625,-0.9699554443359376
0.218780517578125,0.009613037109375,-0.9830322265625
0.1845245361328125,0.004608154296875,-0.9925537109375
0.168487548828125,0.0044097900390625,-0.9862518310546876
0.1530914306640625,-0.00311279296875,-0.9658660888671876
0.12469482421875,-0.00457763671875,-0.9683685302734376
0.1137237548828125,-0.0005645751953125,-0.9663238525390624
0.1208953857421875,0.0048828125,-1.046905517578125
0.13427734375,0.01593017578125,-1.1830291748046875
0.16925048828125,-0.0571136474609375,-1.0900421142578125
0.1274261474609375,-0.0461273193359375,-1.086517333984375
0.1265716552734375,0.0033416748046875,-1.0972900390625
0.16790771484375,0.038360595703125,-1.057220458984375
0.1799468994140625,0.030426025390625,-0.98114013671875
0.163116455078125,0.019683837890625,-0.965728759765625
0.1885833740234375,0.0688323974609375,-1.0599517822265625
0.2321014404296875,0.132049560546875,-1.1429595947265625
0.2579803466796875,0.1303558349609375,-1.117767333984375
0.2403106689453125,0.068695068359375,-1.0085906982421875
0.1804351806640625,0.041656494140625,-0.93499755859375
0.1530303955078125,0.0666351318359375,-0.947906494140625
0.1609954833984375,0.0864105224609375,-0.939300537109375
0.1597442626953125,0.074737548828125,-0.934295654296875
0.1303558349609375,0.0665740966796875,-0.933135986328125
0.115142822265625,0.0435028076171875,-0.9153289794921876
0.1120452880859375,0.0275115966796875,-0.925201416015625
0.1151123046875,0.0231170654296875,-0.9104461669921876
0.111785888671875,0.02484130859375,-0.915008544921875
0.1024322509765625,0.041595458984375,-0.972869873046875
0.1315765380859375,0.04119873046875,-1.005828857421875
0.154296875,0.0736083984375,-1.0034332275390625
0.1776580810546875,0.1401824951171875,-1.227447509765625
0.24267578125,0.1564483642578125,-1.1797943115234375
0.219390869140625,0.069061279296875,-1.0010528564453125
0.118682861328125,0.0221099853515625,-0.9035491943359376
0.0850677490234375,-0.04449462890625,-0.8542633056640625
0.1356048583984375,-0.0944061279296875,-0.97174072265625
0.2030181884765625,0.0163726806640625,-1.070648193359375
0.1900787353515625,0.1271514892578125,-1.1228179931640625
0.183990478515625,0.0887908935546875,-1.0424652099609375
0.136383056640625,0.004730224609375,-0.93585205078125
0.0912628173828125,-0.000274658203125,-0.9327392578125
0.101806640625,0.03021240234375,-0.9659881591796876
0.1441650390625,0.0394439697265625,-0.9738006591796876
0.161285400390625,0.0357208251953125,-0.9698944091796876
0.1274261474609375,0.0224761962890625,-0.9705963134765624
0.114501953125,0.0019683837890625,-0.9641571044921876
0.1204376220703125,0.02764892578125,-0.9694671630859376
0.149261474609375,0.031768798828125,-0.942352294921875
0.152252197265625,0.0388031005859375,-0.950531005859375
0.14422607421875,0.0445709228515625,-0.974609375
0.1655731201171875,0.0843505859375,-1.0104217529296875
0.19830322265625,0.1264801025390625,-1.04608154296875
0.19207763671875,0.1764984130859375,-1.1835784912109375
0.202789306640625,0.1611328125,-1.1688690185546875
0.21490478515625,0.1474609375,-1.042724609375
0.187255859375,0.2272186279296875,-0.99591064453125
0.186920166015625,0.2891998291015625,-0.9517364501953124
0.1349639892578125,0.322174072265625,-0.866302490234375
0.1094207763671875,0.4102020263671875,-0.9127197265625
0.1707763671875,0.2675323486328125,-1.0458984375
0.14337158203125,0.174896240234375,-1.0304412841796875
0.131195068359375,0.2228240966796875,-0.91217041015625
0.1407470703125,0.2194976806640625,-0.8978424072265625
0.159088134765625,0.1717071533203125,-0.9239654541015624
0.1630859375,0.1646881103515625,-1.007415771484375
0.1800689697265625,0.1581268310546875,-0.963043212890625
0.1827545166015625,0.1583404541015625,-0.968902587890625
0.16290283203125,0.1931610107421875,-0.9741973876953124
0.098419189453125,0.2008056640625,-1.00323486328125
0.1637725830078125,0.12969970703125,-1.0541229248046875
0.152984619140625,0.1634063720703125,-1.05096435546875
0.14166259765625,0.093353271484375,-0.973907470703125
0.1154022216796875,0.030670166015625,-0.9726715087890624
0.0864105224609375,0.0562591552734375,-0.9897308349609376
0.1139984130859375,0.082916259765625,-1.002685546875
0.1255035400390625,0.1099395751953125,-0.9856414794921876
0.16510009765625,0.1192626953125,-0.9885711669921876
0.1753692626953125,0.110748291015625,-1.0225982666015625
0.191314697265625,0.1486663818359375,-1.1365814208984375
0.2433319091796875,0.2415008544921875,-1.3435516357421875
0.2513885498046875,0.134979248046875,-1.0289459228515625
0.1212615966796875,0.0939178466796875,-0.9626312255859376
0.0977935791015625,0.05487060546875,-0.98590087890625
0.15203857421875,0.07427978515625,-0.96240234375
0.1450042724609375,0.133880615234375,-0.978302001953125
0.138824462890625,0.191497802734375,-1.110443115234375
0.0879669189453125,0.2891845703125,-1.218536376953125
0.0925750732421875,0.3277740478515625,-1.14111328125
0.11639404296875,0.2710113525390625,-1.0089111328125
0.0529022216796875,0.24066162109375,-0.946014404296875
-0.0072174072265625,0.2239532470703125,-0.9377288818359376
-0.0172119140625,0.2252655029296875,-0.9333343505859376
0.00469970703125,0.2135467529296875,-0.8955841064453125
0.0149688720703125,0.1771697998046875,-0.881317138671875
-0.0008087158203125,0.1725311279296875,-0.8713226318359375
-0.017181396484375,0.1659088134765625,-0.890777587890625
0.0142364501953125,0.146728515625,-0.895599365234375
0.03228759765625,0.1619873046875,-0.8749847412109375
0.0439453125,0.161895751953125,-0.9155426025390624
0.056243896484375,0.128875732421875,-0.950531005859375
0.042144775390625,0.0971832275390625,-1.0559234619140625
0.0274505615234375,0.106536865234375,-1.126129150390625
0.082611083984375,0.05517578125,-1.186309814453125
0.1044921875,0.0204925537109375,-1.28411865234375
0.074981689453125,0.0619659423828125,-1.49951171875
0.1119537353515625,-0.03875732421875,-1.3071746826171875
0.15093994140625,-0.07958984375,-1.129608154296875
0.1371612548828125,-0.03924560546875,-0.9893646240234376
0.0708770751953125,0.024505615234375,-0.827911376953125
-0.0083770751953125,0.1752777099609375,-0.8908233642578125
-0.01654052734375,0.212432861328125,-1.0748291015625
0.02081298828125,0.1608428955078125,-1.07977294921875
0.040435791015625,0.209564208984375,-0.96173095703125
0.02532958984375,0.300811767578125,-0.8933563232421875
0.0351104736328125,0.3263397216796875,-0.8608551025390625
0.0517730712890625,0.304107666015625,-0.9035186767578124
0.08856201171875,0.2602386474609375,-0.9219207763671876
0.11248779296875,0.1949310302734375,-0.9560699462890624
0.1292724609375,0.1727294921875,-0.9546661376953124
0.155914306640625,0.1621551513671875,-0.9803619384765624
0.1646575927734375,0.1484832763671875,-0.96795654296875
0.1391143798828125,0.152618408203125,-0.9666748046875
0.1136932373046875,0.205657958984375,-0.9484100341796876
0.11962890625,0.206573486328125,-0.9362335205078124
0.13262939453125,0.1568756103515625,-0.95172119140625
0.118682861328125,0.1743927001953125,-0.9992523193359376
0.090545654296875,0.1679840087890625,-1.041229248046875
0.0550079345703125,0.2315216064453125,-1.1328277587890625
0.1233978271484375,0.202301025390625,-1.2999267578125
0.1755218505859375,0.111328125,-1.1350250244140625
0.084930419921875,0.0421600341796875,-0.975982666015625
-0.00799560546875,-0.0612945556640625,-0.9777374267578124
0.0157318115234375,-0.074676513671875,-0.9405975341796876
0.058502197265625,-0.020904541015625,-0.9344940185546876
0.0885772705078125,0.08697509765625,-1.144256591796875
0.130035400390625,0.185546875,-1.3535003662109375
0.1402587890625,0.174468994140625,-1.2118377685546875
0.1299285888671875,0.108245849609375,-1.01519775390625
0.099395751953125,0.0699920654296875,-0.937225341796875
0.1001129150390625,0.068389892578125,-0.9586334228515624
0.1242523193359375,0.10186767578125,-1.0022125244140625
0.11712646484375,0.095611572265625,-0.94500732421875
0.0914459228515625,0.0672454833984375,-0.8655853271484375
0.0353851318359375,0.036865234375,-0.839569091796875
-0.00225830078125,0.0038299560546875,-0.8315582275390625
-0.0240936279296875,0.0022430419921875,-0.8656158447265625
-0.0482635498046875,-0.0154266357421875,-0.90618896484375
-0.058868408203125,-0.02105712890625,-0.959716796875
-0.0614013671875,-0.020294189453125,-1.029144287109375
-0.037567138671875,-0.0467681884765625,-1.03302001953125
-0.04095458984375,-0.0569610595703125,-1.059661865234375
-0.0281524658203125,-0.0373382568359375,-1.09149169921875
0.0367889404296875,0.020294189453125,-1.0902862548828125
0.089141845703125,0.0452423095703125,-1.0025482177734375
0.1257171630859375,0.030609130859375,-0.9227447509765624
0.10272216796875,0.0523529052734375,-0.941253662109375
0.1011505126953125,0.0804290771484375,-0.9947509765625
0.1247100830078125,0.0672607421875,-1.0316314697265625
0.1496429443359375,0.0396881103515625,-1.045654296875
0.1633148193359375,0.016571044921875,-1.0423126220703125
0.1648101806640625,-0.037506103515625,-1.0432586669921875
0.2023468017578125,-0.078887939453125,-1.0328216552734375
0.243194580078125,-0.0399322509765625,-1.0285797119140625
0.2718048095703125,-0.0106201171875,-1.0238189697265625
0.2468109130859375,0.0138702392578125,-1.02728271484375
0.2097625732421875,-0.000701904296875,-1.02789306640625
0.2042999267578125,-0.0030975341796875,-1.0009918212890625
0.212493896484375,0.02264404296875,-1.00262451171875
0.2225341796875,0.0425567626953125,-1.007415771484375
0.2238006591796875,0.0436248779296875,-0.994903564453125
0.19146728515625,0.029937744140625,-1.00079345703125
0.1889495849609375,0.056488037109375,-1.1192474365234375
0.2198486328125,0.041900634765625,-1.048828125
0.18963623046875,0.0136260986328125,-0.9961090087890624
0.1395416259765625,0.0534515380859375,-1.1161041259765625
0.190704345703125,0.0212249755859375,-1.06182861328125
0.1869659423828125,-0.0186767578125,-0.976837158203125
0.1328125,-0.0205078125,-0.957733154296875
0.114593505859375,0.026397705078125,-1.0475616455078125
0.1167755126953125,0.095062255859375,-1.105194091796875
0.1432342529296875,0.1012115478515625,-1.0353240966796875
0.1137847900390625,0.0703277587890625,-0.93939208984375
0.0785369873046875,0.038238525390625,-0.9096221923828124
0.0742340087890625,0.04132080078125,-0.9170989990234376
0.08709716796875,0.05523681640625,-0.89398193359375
0.05621337890625,0.0583343505859375,-0.91473388671875
0.039703369140625,0.03662109375,-0.92333984375
0.028778076171875,0.0116424560546875,-0.918060302734375
0.0168914794921875,-0.0062255859375,-0.959136962890625
0.0420379638671875,-0.0287322998046875,-1.0248870849609375
0.06524658203125,-0.016998291015625,-1.0851593017578125
0.09552001953125,-0.0042877197265625,-1.12994384765625
0.147796630859375,0.068603515625,-1.23974609375
0.1174774169921875,-0.0018310546875,-1.1034698486328125
0.10296630859375,-0.083099365234375,-1.0339813232421875
0.09918212890625,-0.0883331298828125,-1.0126953125
0.0738067626953125,-0.08294677734375,-1.0363311767578125
0.05462646484375,-0.0477447509765625,-1.0966033935546875
0.0667877197265625,-0.05767822265625,-1.072021484375
0.0920257568359375,-0.0529937744140625,-1.0411529541015625
0.1218109130859375,-0.0192718505859375,-1.0074462890625
0.1374969482421875,-0.0106658935546875,-0.9963836669921876
0.1485137939453125,-0.0077972412109375,-0.994842529296875
0.1699981689453125,0.0399932861328125,-0.98577880859375
0.1933441162109375,0.0489959716796875,-1.0050506591796875
0.2164306640625,0.059844970703125,-1.0095367431640625
0.2310943603515625,0.0606231689453125,-0.997406005859375
0.220703125,0.05108642578125,-0.9398956298828124
0.1800537109375,0.042724609375,-0.943817138671875
0.1601715087890625,0.0650177001953125,-0.941070556640625
0.142120361328125,0.080352783203125,-0.9508056640625
0.1446380615234375,0.1092529296875,-0.9888916015625
0.1268157958984375,0.128387451171875,-1.0431060791015625
0.10888671875,0.0828857421875,-1.0222015380859375
0.0695953369140625,0.049530029296875,-1.1502532958984375
0.072296142578125,0.14349365234375,-1.470611572265625
0.20166015625,0.0782012939453125,-1.0441131591796875
0.1453094482421875,-0.0254974365234375,-0.8624420166015625
0.03173828125,-0.1102142333984375,-0.88946533203125
0.083740234375,-0.1290740966796875,-1.0255584716796875
0.1522369384765625,-0.071807861328125,-1.110382080078125
0.1512908935546875,-0.003326416015625,-1.0293426513671875
0.0484466552734375,0.0376129150390625,-1.0191802978515625
0.0052947998046875,-0.0031280517578125,-0.885101318359375
-0.044769287109375,-0.0336456298828125,-0.81890869140625
-0.0550537109375,0.0080108642578125,-0.83502197265625
-0.0073699951171875,0.064300537109375,-0.87969970703125
0.04876708984375,0.0955963134765625,-0.993804931640625
0.0975494384765625,0.0491180419921875,-1.007476806640625
0.102508544921875,-0.0579833984375,-0.9927520751953124
0.0886077880859375,-0.09033203125,-1.03594970703125
0.1141204833984375,-0.086151123046875,-1.022216796875
0.12738037109375,-0.0822601318359375,-0.9833221435546876
0.1039276123046875,-0.0528411865234375,-0.9537506103515624
0.09716796875,-0.031219482421875,-0.9796295166015624
0.07415771484375,-0.05950927734375,-1.03619384765625
0.0609130859375,-0.095672607421875,-1.1430511474609375
0.1298065185546875,-0.110992431640625,-1.177093505859375
0.1487579345703125,-0.065521240234375,-1.260498046875
0.12652587890625,-0.0847625732421875,-1.2156524658203125
0.1444091796875,-0.0491180419921875,-1.225921630859375
0.1279754638671875,-0.107147216796875,-0.9875640869140624
0.035400390625,-0.17657470703125,-0.8814849853515625
0.024566650390625,-0.116455078125,-1.0948638916015625
0.115264892578125,0.037689208984375,-1.2311553955078125
0.1602325439453125,0.0245819091796875,-1.16229248046875
0.122314453125,0.003326416015625,-1.068603515625
0.0981597900390625,0.0102081298828125,-1.014373779296875
0.08648681640625,0.0555572509765625,-0.9910430908203124
0.08441162109375,0.07208251953125,-0.9637603759765624
0.06671142578125,0.07403564453125,-0.9391937255859376
0.051361083984375,0.0904693603515625,-0.8818511962890625
0.032379150390625,0.0545806884765625,-0.841064453125
0.0309600830078125,0.01751708984375,-0.8217315673828125
0.03094482421875,0.0018463134765625,-0.7828369140625
-0.0043487548828125,-0.0013580322265625,-0.8250274658203125
-0.0299530029296875,-0.020050048828125,-0.883148193359375
-0.020355224609375,-0.024658203125,-0.98956298828125
-0.002044677734375,-0.010406494140625,-1.068450927734375
-0.002655029296875,-0.0095062255859375,-1.1830902099609375
0.035858154296875,0.0348663330078125,-1.4395599365234375
0.1101531982421875,0.0215606689453125,-1.4633636474609375
0.102081298828125,-0.104461669921875,-1.1445465087890625
0.004730224609375,-0.16259765625,-0.9205780029296876
0.0003662109375,-0.20733642578125,-0.82330322265625
0.065765380859375,-0.2058868408203125,-0.90325927734375
0.0945587158203125,-0.1438751220703125,-1.1384429931640625
0.1221160888671875,-0.0782470703125,-1.2328338623046875
0.0677490234375,-0.0680084228515625,-1.041839599609375
-0.022064208984375,-0.064910888671875,-0.87799072265625
-0.0746002197265625,-0.0181121826171875,-0.8665924072265625
-0.069427490234375,0.0359039306640625,-0.9124603271484376
-0.0177154541015625,0.0891876220703125,-0.955657958984375
-0.0002288818359375,0.061859130859375,-0.9825439453125
0.0024871826171875,0.0233917236328125,-0.98553466796875
-0.002838134765625,-0.0324859619140625,-0.9496002197265624
-0.0110931396484375,-0.0641021728515625,-0.9342193603515624
-0.03533935546875,-0.062225341796875,-0.9354705810546876
-0.0576324462890625,-0.039459228515625,-0.9229736328125
0.003021240234375,-0.045562744140625,-1.0193023681640625
0.0353240966796875,-0.0551605224609375,-1.0784759521484375
0.04876708984375,-0.1074066162109375,-1.049530029296875
0.0360260009765625,-0.120269775390625,-1.1648406982421875
0.033721923828125,-0.0246429443359375,-1.305938720703125
0.089935302734375,-0.0286407470703125,-1.16424560546875
0.087127685546875,-0.024993896484375,-1.0842437744140625
0.031524658203125,-0.02069091796875,-1.0960235595703125
0.03192138671875,-0.0082855224609375,-1.02508544921875
0.057464599609375,-0.0018768310546875,-0.923614501953125
0.039764404296875,0.1016693115234375,-1.0670013427734375
0.0562896728515625,0.1343994140625,-1.178070068359375
0.053192138671875,0.1575775146484375,-1.1767120361328125
0.06195068359375,0.1661224365234375,-1.0488739013671875
0.02947998046875,0.1373138427734375,-0.9362030029296876
-0.000335693359375,0.1257781982421875,-0.88507080078125
-0.005950927734375,0.1540985107421875,-0.913116455078125
4.57763671875e-05,0.1667938232421875,-0.8984832763671875
0.0303497314453125,0.169769287109375,-0.881011962890625
0.0453033447265625,0.1710205078125,-0.880767822265625
0.0626983642578125,0.179718017578125,-0.91070556640625
0.067779541015625,0.2173919677734375,-0.9721221923828124
0.14453125,0.1593017578125,-1.052276611328125
0.209075927734375,0.065643310546875,-1.1103973388671875
0.2575531005859375,0.0280303955078125,-1.1638641357421875
0.2752532958984375,0.0541229248046875,-1.167999267578125
0.2584228515625,0.04913330078125,-1.2061004638671875
0.2653045654296875,0.0331268310546875,-1.2828826904296875
0.2773284912109375,0.0488128662109375,-1.272369384765625
0.2697296142578125,0.069854736328125,-1.1577606201171875
0.219482421875,0.07598876953125,-0.9627532958984376
0.1711273193359375,0.0735931396484375,-0.8654022216796875
0.1585845947265625,0.086334228515625,-0.8436431884765625
0.173675537109375,0.1533966064453125,-0.9149017333984376
0.2041473388671875,0.206787109375,-0.950042724609375
0.212982177734375,0.206024169921875,-0.92724609375
0.1892547607421875,0.1480255126953125,-0.9210662841796876
0.174407958984375,0.0867919921875,-0.951202392578125
0.1983642578125,0.030120849609375,-1.0314788818359375
0.2214508056640625,0.0538787841796875,-1.0588836669921875
0.2650909423828125,0.03302001953125,-1.021453857421875
0.2493133544921875,0.015869140625,-1.0177459716796875
0.2299346923828125,-0.015869140625,-1.0644683837890625
0.2390289306640625,-0.017181396484375,-1.075653076171875
0.258697509765625,-0.0169219970703125,-1.0580596923828125
0.22613525390625,-0.0356292724609375,-1.0264434814453125
0.1783905029296875,-0.0569610595703125,-1.053009033203125
0.1499176025390625,-0.0645294189453125,-1.088226318359375
0.1306915283203125,-0.072357177734375,-1.055145263671875
0.096710205078125,-0.041259765625,-1.0628814697265625
0.077850341796875,0.0003814697265625,-1.16387939453125
0.07470703125,-0.0617828369140625,-1.124114990234375
0.06298828125,-0.11590576171875,-1.0045166015625
0.021881103515625,-0.0588531494140625,-1.032684326171875
0.022186279296875,-0.019256591796875,-1.0943145751953125
0.0650634765625,-0.0102081298828125,-1.0776214599609375
0.0554351806640625,-0.05206298828125,-1.0217437744140625
0.027984619140625,-0.061737060546875,-1.0125885009765625
0.0189666748046875,0.00030517578125,-1.1100006103515625
0.05999755859375,0.0724945068359375,-1.1566009521484375
0.10992431640625,0.1337432861328125,-1.157440185546875
0.1489715576171875,0.1376800537109375,-1.1021575927734375
0.1769256591796875,0.1174163818359375,-1.0551605224609375
0.1648712158203125,0.1389617919921875,-1.048583984375
0.152740478515625,0.13616943359375,-1.008758544921875
0.128143310546875,0.15869140625,-0.9935760498046876
0.12237548828125,0.1307373046875,-0.9630126953125
0.11431884765625,0.128021240234375,-0.899444580078125
0.0976104736328125,0.1258697509765625,-0.8490753173828125
0.065673828125,0.12493896484375,-0.8330535888671875
0.0393218994140625,0.115936279296875,-0.819793701171875
0.0268707275390625,0.0957794189453125,-0.8360443115234375
0.025054931640625,0.1149749755859375,-0.93798828125
0.0815277099609375,0.134613037109375,-1.193359375
0.151092529296875,0.2676239013671875,-1.503509521484375
0.2705841064453125,0.1347808837890625,-1.3385009765625
0.18499755859375,-0.04937744140625,-1.115692138671875
0.085662841796875,-0.2292022705078125,-0.9710540771484376
0.0903167724609375,-0.29620361328125,-0.907440185546875
0.1145782470703125,-0.13409423828125,-1.0586090087890625
0.1202239990234375,0.0720977783203125,-1.137603759765625
0.117706298828125,0.105743408203125,-1.098907470703125
0.1114959716796875,0.051605224609375,-0.9821014404296876
0.050750732421875,0.0501708984375,-0.92230224609375
0.0657806396484375,0.0766143798828125,-0.904754638671875
0.09930419921875,0.127532958984375,-0.9156951904296876
0.117706298828125,0.1256256103515625,-0.9742279052734376
0.1240081787109375,0.1360321044921875,-0.9835968017578124
0.1397705078125,0.1514892578125,-0.95574951171875
0.1363525390625,0.166717529296875,-0.9464569091796876
0.149810791015625,0.1426849365234375,-0.94232177734375
0.138885498046875,0.1295623779296875,-0.8921356201171875
0.1530303955078125,0.0887603759765625,-0.878936767578125
0.19244384765625,0.1373138427734375,-0.9265899658203124
0.214813232421875,0.1610870361328125,-0.9960784912109376
0.225494384765625,0.13372802734375,-1.00909423828125
0.2259368896484375,0.1941070556640625,-1.19561767578125
0.170928955078125,0.1820526123046875,-1.2288055419921875
0.169921875,0.1551666259765625,-1.1131439208984375
0.118133544921875,0.098785400390625,-1.048828125
0.044189453125,0.1088714599609375,-0.842987060546875
0.02288818359375,0.079193115234375,-0.9565582275390624
-0.0047454833984375,0.0105133056640625,-1.1573944091796875
0.000640869140625,-0.037506103515625,-1.12890625
0.0558624267578125,0.01953125,-1.0136871337890625
0.1406707763671875,0.052520751953125,-0.9339447021484376
0.198944091796875,0.0233917236328125,-0.952423095703125
0.218292236328125,0.087615966796875,-0.973541259765625
0.2703857421875,-0.0050506591796875,-1.0540618896484375
0.27972412109375,0.0398406982421875,-1.0769195556640625
0.2381439208984375,0.069976806640625,-1.094635009765625
0.20166015625,0.126861572265625,-1.051910400390625
0.2161865234375,0.0852203369140625,-0.9656829833984376
0.173431396484375,0.07562255859375,-0.9489288330078124
0.1359100341796875,0.061431884765625,-0.93658447265625
0.1058197021484375,0.0617218017578125,-0.9481201171875
0.09808349609375,0.0682220458984375,-0.9395294189453124
0.097808837890625,0.0801849365234375,-0.9756011962890624
0.0900421142578125,0.0773773193359375,-0.9688720703125
0.056060791015625,0.1580352783203125,-1.1969146728515625
0.051300048828125,0.133087158203125,-1.2269744873046875
0.0624542236328125,0.017242431640625,-1.0413665771484375
0.003265380859375,-0.081787109375,-0.9420623779296876
-0.00494384765625,-0.091705322265625,-0.8517608642578125
0.0838165283203125,-0.08306884765625,-0.8681793212890625
0.0529327392578125,0.0998687744140625,-1.1538543701171875
0.141937255859375,0.1295928955078125,-1.124786376953125
0.1500091552734375,0.0648956298828125,-0.9653472900390624
0.0744171142578125,0.0151824951171875,-0.9009857177734376
0.0272674560546875,-0.002899169921875,-0.932647705078125
0.0707550048828125,0.0133056640625,-0.948272705078125
0.101654052734375,0.039093017578125,-0.9832916259765624
0.0916748046875,0.03997802734375,-1.017486572265625
0.0550384521484375,-0.0086212158203125,-0.99371337890625
0.0301666259765625,-0.0121917724609375,-0.978851318359375
0.036346435546875,-0.0063018798828125,-0.954010009765625
0.050994873046875,-0.0023040771484375,-0.950286865234375
0.0700836181640625,0.001800537109375,-0.96417236328125
0.1020050048828125,-0.014923095703125,-0.9430389404296876
0.08538818359375,-0.0054779052734375,-0.9808502197265624
0.0878448486328125,0.0025634765625,-1.01171875
0.13922119140625,0.023529052734375,-1.0233306884765625
0.14813232421875,0.0583038330078125,-1.1947784423828125
0.1628570556640625,0.04998779296875,-1.2454681396484375
0.223052978515625,-0.0208587646484375,-1.0951690673828125
0.238494873046875,0.067108154296875,-0.97845458984375
0.1970367431640625,0.0838165283203125,-0.8903961181640625
0.1731109619140625,0.05108642578125,-0.8228302001953125
0.17535400390625,0.160400390625,-1.0027618408203125
0.15130615234375,0.216705322265625,-1.2605133056640625
0.2122039794921875,0.1007537841796875,-1.1665802001953125
0.274261474609375,0.0967864990234375,-1.003753662109375
0.2229156494140625,0.077850341796875,-0.9740142822265624
0.124725341796875,0.0503082275390625,-1.05450439453125
0.1034393310546875,0.0906524658203125,-1.1101837158203125
0.1283416748046875,0.134735107421875,-1.0588226318359375
0.12298583984375,0.14715576171875,-1.01702880859375
0.135040283203125,0.1714935302734375,-0.9689788818359376
0.1514434814453125,0.1622161865234375,-0.915313720703125
0.135772705078125,0.1280670166015625,-0.89202880859375
0.1138763427734375,0.1111602783203125,-0.9009857177734376
0.1126556396484375,0.074066162109375,-0.86224365234375
0.09503173828125,0.077117919921875,-0.8831024169921875
0.0878448486328125,0.0615997314453125,-0.9017791748046876
0.06951904296875,0.0583953857421875,-0.941986083984375
0.0727386474609375,0.0402069091796875,-0.9886627197265624
0.0753021240234375,0.062835693359375,-1.097900390625
0.1170501708984375,0.1112060546875,-1.286712646484375
0.1559600830078125,0.0686798095703125,-1.2456817626953125
0.1124420166015625,-0.0277252197265625,-1.083343505859375
0.0206451416015625,-0.06732177734375,-1.0025482177734375
0.012725830078125,-0.106048583984375,-0.9882659912109376
0.0171051025390625,-0.150146484375,-0.973297119140625
0.0315399169921875,-0.1517181396484375,-0.94329833984375
0.0652313232421875,-0.0729522705078125,-1.05096435546875
0.092132568359375,-0.02642822265625,-1.164306640625
0.0751800537109375,-0.05938720703125,-1.0746917724609375
0.0208587646484375,-0.058685302734375,-0.9773712158203124
0.012603759765625,-0.0482940673828125,-0.942138671875
0.0391082763671875,-0.015106201171875,-0.96087646484375
0.0825958251953125,0.010467529296875,-0.971893310546875
0.0736236572265625,0.009674072265625,-0.984100341796875
0.0680694580078125,-0.0160980224609375,-0.963653564453125
0.07177734375,-0.0148468017578125,-0.9691162109375
0.0756988525390625,-0.00604248046875,-0.97894287109375
0.0665130615234375,-0.01275634765625,-0.9752655029296876
0.0764007568359375,-0.0048675537109375,-0.9927978515625
0.0884246826171875,0.0161285400390625,-1.0040283203125
0.0911865234375,0.0248870849609375,-1.0194244384765625
0.1346282958984375,0.044586181640625,-1.08624267578125
0.1333160400390625,0.05230712890625,-1.049652099609375
0.1528472900390625,0.099578857421875,-1.0474395751953125
0.1919097900390625,0.1063079833984375,-1.0043792724609375
0.2101287841796875,0.0717620849609375,-0.9095916748046876
0.2138519287109375,0.105682373046875,-0.9186859130859376
0.229278564453125,0.1280670166015625,-0.923248291015625
0.2567138671875,0.1524505615234375,-0.9830322265625
0.27423095703125,0.13677978515625,-0.9973907470703124
0.276611328125,0.0853118896484375,-1.01007080078125
0.269805908203125,0.0077056884765625,-1.0744171142578125
0.3157958984375,-0.029571533203125,-1.054351806640625
0.3390655517578125,-0.001617431640625,-1.0075836181640625
0.2915191650390625,0.0171661376953125,-1.0078582763671875
0.2361602783203125,0.0147247314453125,-1.01458740234375
0.2093505859375,0.01617431640625,-0.9981231689453124
0.1893310546875,0.024566650390625,-1.0053558349609375
0.176910400390625,0.019683837890625,-1.009124755859375
0.214111328125,-0.01995849609375,-0.9954833984375
0.2144775390625,-0.026580810546875,-1.0074310302734375
0.2035675048828125,-0.0143585205078125,-1.0167694091796875
0.21612548828125,0.0008697509765625,-1.0003509521484375
0.2362518310546875,0.0064544677734375,-1.0295562744140625
0.2336578369140625,-0.011077880859375,-1.0682373046875
0.17962646484375,-0.02294921875,-1.0655364990234375
0.14910888671875,-0.004241943359375,-1.0284423828125
0.116424560546875,-0.0114288330078125,-0.9924163818359376
0.08270263671875,-0.014434814453125,-0.9715423583984376
0.063934326171875,-0.0186767578125,-0.9151458740234376
0.03369140625,0.0060272216796875,-0.914154052734375
0.0023193359375,0.054901123046875,-1.0094451904296875
-0.015045166015625,0.10284423828125,-1.0938720703125
0.0139617919921875,0.065093994140625,-1.0081787109375
0.0023193359375,0.0045928955078125,-0.9554290771484376
-0.0101318359375,0.003143310546875,-0.96044921875
0.01953125,0.0213775634765625,-0.9617767333984376
0.0555572509765625,0.0534820556640625,-0.9795379638671876
0.0801849365234375,0.0733489990234375,-1.0025482177734375
0.0655517578125,0.0536041259765625,-1.0285491943359375
0.05889892578125,0.024505615234375,-1.029144287109375
0.0640716552734375,0.0009613037109375,-1.0304718017578125
0.0521240234375,-0.0052032470703125,-1.0557861328125
0.059814453125,-0.0168304443359375,-1.0467987060546875
0.054534912109375,-0.033111572265625,-0.997955322265625
0.03582763671875,-0.0499267578125,-0.9897613525390624
0.022918701171875,-0.0297393798828125,-0.994720458984375
0.02978515625,-0.01947021484375,-0.9944915771484376
0.042388916015625,-0.004486083984375,-1.0152587890625
0.043487548828125,-0.00860595703125,-1.0295257568359375
0.0403289794921875,-0.0143280029296875,-1.061126708984375
0.0354156494140625,0.0047149658203125,-1.1043548583984375
0.0644378662109375,-0.0239105224609375,-1.0335845947265625
0.0731964111328125,-0.017913818359375,-1.0002593994140625
0.08612060546875,-0.00537109375,-1.0005950927734375
0.102691650390625,0.0369873046875,-1.074737548828125
0.09918212890625,0.04412841796875,-1.060882568359375
0.0825958251953125,-0.0151824951171875,-0.965179443359375
0.05035400390625,0.038543701171875,-1.0486602783203125
0.0675201416015625,0.04132080078125,-1.131500244140625
0.0577850341796875,-0.021240234375,-1.065460205078125
0.028289794921875,-0.032928466796875,-0.9875335693359376
0.01568603515625,-0.0128021240234375,-1.0129241943359375
0.0510711669921875,-0.0340118408203125,-1.017974853515625
0.0667724609375,-0.03216552734375,-1.0396575927734375
0.0776519775390625,-0.02227783203125,-1.0355377197265625
0.081878662109375,0.00286865234375,-1.0178375244140625
0.1058807373046875,0.0215301513671875,-0.97064208984375
0.108062744140625,0.0546417236328125,-0.9164581298828124
0.063690185546875,0.041259765625,-0.8681793212890625
0.0062408447265625,0.038055419921875,-0.8527679443359375
-0.026611328125,0.0390472412109375,-0.8798675537109375
-0.033599853515625,0.01953125,-0.8998260498046875
-0.0367279052734375,0.0247802734375,-0.9690704345703124
-0.0123748779296875,0.0436553955078125,-1.0448150634765625
-0.02490234375,0.0981903076171875,-1.265472412109375
0.005462646484375,0.1074676513671875,-1.349365234375
0.04656982421875,-0.015655517578125,-1.0452880859375
0.0005340576171875,-0.0586090087890625,-0.924102783203125
-0.0030517578125,-0.0987091064453125,-0.927642822265625
0.0397796630859375,-0.1598358154296875,-0.952667236328125
0.0877532958984375,-0.0629425048828125,-1.0901947021484375
0.115264892578125,0.0368499755859375,-1.159759521484375
0.1226959228515625,0.087005615234375,-1.1218719482421875
0.083343505859375,0.046875,-0.9779815673828124
0.0340118408203125,-0.0066986083984375,-0.8791046142578125
0.019866943359375,0.043487548828125,-0.8828277587890625
0.0679779052734375,0.1159210205078125,-0.906097412109375
0.085845947265625,0.12640380859375,-0.908172607421875
0.0824127197265625,0.0876007080078125,-0.92498779296875
0.066436767578125,0.03314208984375,-0.9234161376953124
0.0923614501953125,0.009063720703125,-0.9595184326171876
0.1305999755859375,0.0177001953125,-0.967315673828125
0.1076507568359375,0.0073699951171875,-0.988037109375
0.0671844482421875,-0.0104217529296875,-1.0127716064453125
0.083160400390625,-0.0006256103515625,-1.0286102294921875
0.0821075439453125,0.0027008056640625,-1.012603759765625
0.0515899658203125,-0.005828857421875,-1.0760650634765625
0.09478759765625,0.0514068603515625,-1.3312225341796875
0.1434783935546875,0.091400146484375,-1.3414764404296875
0.1082611083984375,0.018341064453125,-1.1695709228515625
0.0449676513671875,-0.0386962890625,-1.155853271484375
0.0423583984375,-0.160430908203125,-0.994140625
0.0390777587890625,-0.1661834716796875,-0.8929443359375
0.060791015625,-0.0281982421875,-1.055633544921875
0.071533203125,0.0978546142578125,-1.2389373779296875
0.11297607421875,0.0958251953125,-1.135467529296875
0.098968505859375,0.0331878662109375,-1.0483856201171875
0.0448455810546875,0.04193115234375,-1.045806884765625
0.0556488037109375,0.0392303466796875,-1.071441650390625
0.0909423828125,0.085601806640625,-1.0585479736328125
0.0789947509765625,0.10296630859375,-1.0127410888671875
0.0546417236328125,0.103729248046875,-0.9503631591796876
0.0362548828125,0.0948028564453125,-0.875152587890625
0.0058441162109375,0.0697174072265625,-0.83880615234375
-0.0007476806640625,0.065155029296875,-0.8070526123046875
-0.0066680908203125,0.040679931640625,-0.805023193359375
-0.0346832275390625,0.0471038818359375,-0.8472442626953125
-0.017578125,0.034088134765625,-0.8466339111328125
-0.00787353515625,0.0677642822265625,-0.9280853271484376
0.0147552490234375,0.1171875,-1.0357208251953125
0.0527801513671875,0.129425048828125,-1.181488037109375
0.174530029296875,0.1900482177734375,-1.5048980712890625
0.2657928466796875,0.1297149658203125,-1.3748321533203125
0.2554779052734375,0.0013885498046875,-1.0959014892578125
0.14166259765625,-0.0753326416015625,-0.874176025390625
0.08612060546875,-0.135528564453125,-0.8112640380859375
0.091064453125,-0.0805816650390625,-1.0296478271484375
0.140655517578125,0.021636962890625,-1.2758636474609375
0.2135467529296875,0.03546142578125,-1.175323486328125
0.1881103515625,-0.017578125,-0.9425201416015624
0.0646514892578125,-0.039215087890625,-0.905548095703125
-0.0061187744140625,-0.0550537109375,-0.93994140625
0.0102996826171875,-0.004638671875,-0.964935302734375
0.04937744140625,0.0458526611328125,-0.9737701416015624
0.04180908203125,0.0479583740234375,-0.9912567138671876
0.035552978515625,0.01116943359375,-0.99945068359375
0.0424652099609375,-0.0085296630859375,-0.98394775390625
0.0547943115234375,-0.017547607421875,-0.9399261474609376
0.054046630859375,0.0037841796875,-0.9265594482421876
0.04864501953125,0.016845703125,-0.9593963623046876
0.0679779052734375,0.0242156982421875,-1.028900146484375
0.0872344970703125,0.0411529541015625,-1.1244354248046875
0.09259033203125,0.055419921875,-1.27691650390625
0.0938873291015625,0.035430908203125,-1.214691162109375
0.1126251220703125,0.00543212890625,-1.1231689453125
0.0751953125,0.07818603515625,-1.112274169921875
0.05938720703125,0.0533294677734375,-1.005645751953125
0.013916015625,0.0393829345703125,-0.8900146484375
-0.021087646484375,0.1310577392578125,-0.9833831787109376
-0.0386810302734375,0.2204132080078125,-1.1766204833984375
0.021484375,0.1992340087890625,-1.1719818115234375
0.0913848876953125,0.1233978271484375,-1.0195159912109375
0.074798583984375,0.076995849609375,-0.949066162109375
0.02032470703125,0.0743255615234375,-0.998809814453125
0.023040771484375,0.113250732421875,-1.0123748779296875
0.05950927734375,0.1479034423828125,-0.9763946533203124
0.0652313232421875,0.15478515625,-0.9482574462890624
0.05462646484375,0.1481170654296875,-0.9261932373046876
0.02197265625,0.1600341796875,-0.8985595703125
0.026123046875,0.1775665283203125,-0.8762664794921875
0.047760009765625,0.1656494140625,-0.933502197265625
0.12261962890625,0.1078948974609375,-0.9803619384765624
0.15338134765625,0.052978515625,-1.0487213134765625
0.2075347900390625,0.041412353515625,-1.0940704345703125
0.262847900390625,0.0204925537109375,-1.11712646484375
0.2888336181640625,0.0518035888671875,-1.149444580078125
0.34423828125,0.1417388916015625,-1.247589111328125
0.42584228515625,0.14434814453125,-1.1921234130859375
0.43133544921875,0.1119384765625,-1.021026611328125
0.3959808349609375,0.037353515625,-0.8895111083984375
0.3231658935546875,0.02777099609375,-0.87640380859375
0.2724609375,0.0531463623046875,-0.9334869384765624
0.287384033203125,0.0756988525390625,-0.96600341796875
0.288360595703125,0.109649658203125,-0.9954986572265624
0.2388458251953125,0.0888671875,-0.98406982421875
0.157318115234375,0.04925537109375,-0.963531494140625
0.1222076416015625,0.04217529296875,-0.9706878662109376
0.147064208984375,0.0569305419921875,-0.981719970703125
0.208526611328125,0.0732879638671875,-0.9894256591796876
0.228118896484375,0.0619659423828125,-1.022796630859375
0.2123870849609375,0.048065185546875,-1.054168701171875
0.1924896240234375,-0.00408935546875,-1.038116455078125
0.1830291748046875,-0.0160980224609375,-1.0323028564453125
0.1469879150390625,0.0125579833984375,-1.0565643310546875
0.1503448486328125,0.0303955078125,-1.0293121337890625
0.144439697265625,-0.0107879638671875,-0.9918060302734376
0.09808349609375,-0.02001953125,-0.9966888427734376
0.0792083740234375,-0.0420684814453125,-0.9965057373046876
0.0774383544921875,-0.0647125244140625,-1.0091094970703125
0.0856475830078125,-0.068878173828125,-1.06060791015625
0.062713623046875,-0.089691162109375,-1.112091064453125
0.0852508544921875,-0.1222076416015625,-1.0447998046875
0.080657958984375,-0.093475341796875,-1.03424072265625
0.06219482421875,-0.0483245849609375,-1.1054229736328125
0.103363037109375,0.008697509765625,-1.13836669921875
0.153594970703125,0.0365142822265625,-1.0939178466796875
0.1474761962890625,0.008880615234375,-1.0162200927734375
0.1452484130859375,0.0565185546875,-1.0718536376953125
0.181182861328125,0.13336181640625,-1.18359375
0.2264251708984375,0.1374053955078125,-1.16552734375
0.2318878173828125,0.12188720703125,-1.044677734375
0.1882781982421875,0.13134765625,-1.0029449462890625
0.15716552734375,0.152252197265625,-0.9824676513671876
0.15380859375,0.1504974365234375,-0.9104156494140624
0.1174774169921875,0.15216064453125,-0.867950439453125
0.0849456787109375,0.1551666259765625,-0.8828277587890625
0.0756988525390625,0.1575164794921875,-0.889251708984375
0.0940093994140625,0.1671142578125,-0.8948516845703125
0.1418304443359375,0.1766204833984375,-0.8764190673828125
0.16168212890625,0.1640167236328125,-0.859161376953125
0.1448822021484375,0.1123809814453125,-0.928253173828125
0.1784210205078125,0.04132080078125,-1.0240936279296875
0.1997833251953125,-0.0214080810546875,-1.086883544921875
0.20123291015625,-0.000457763671875,-1.1766510009765625
0.2661895751953125,0.0114593505859375,-1.283172607421875
0.2565155029296875,0.050262451171875,-1.61065673828125
0.3296966552734375,-0.039031982421875,-1.4263458251953125
0.3752288818359375,-0.11541748046875,-1.131622314453125
0.262115478515625,-0.177947998046875,-0.87725830078125
0.1911468505859375,-0.268829345703125,-0.7399444580078125
0.14697265625,-0.15081787109375,-0.890167236328125
0.19378662109375,0.021270751953125,-1.0998687744140625
0.235076904296875,0.087860107421875,-1.0151519775390625
0.19219970703125,0.0050048828125,-0.9189605712890624
0.1183319091796875,-0.004302978515625,-0.938140869140625
0.133636474609375,0.0298614501953125,-0.938140869140625
0.16259765625,0.0970001220703125,-0.9373931884765624
0.1830291748046875,0.1316375732421875,-0.9959564208984376
0.2144622802734375,0.1149139404296875,-0.992889404296875
0.1893768310546875,0.069366455078125,-0.9277801513671876
0.1412811279296875,0.085906982421875,-0.9590911865234376
0.1674957275390625,0.093353271484375,-0.90777587890625
0.17535400390625,0.0912322998046875,-0.920806884765625
0.156494140625,0.0817413330078125,-0.9271240234375
0.1676483154296875,0.0845947265625,-0.938323974609375
0.2584075927734375,0.1790313720703125,-1.022186279296875
0.207672119140625,0.176239013671875,-1.2637939453125
0.1990509033203125,0.0712432861328125,-1.219635009765625
0.17291259765625,0.0487518310546875,-1.20928955078125
0.16607666015625,0.1076812744140625,-1.1337890625
0.1343231201171875,-0.0035400390625,-0.8721923828125
0.19140625,0.02728271484375,-0.955963134765625
0.2119140625,0.2044219970703125,-1.115966796875
0.247650146484375,0.1734619140625,-1.1272430419921875
0.2115936279296875,0.1044769287109375,-1.0251312255859375
0.183258056640625,0.1224212646484375,-0.9856109619140624
0.1881103515625,0.1712799072265625,-0.9746246337890624
0.2081146240234375,0.1855621337890625,-0.9214019775390624
0.1721038818359375,0.18939208984375,-0.8999481201171875
0.1073150634765625,0.2014007568359375,-0.8970489501953125
0.090179443359375,0.2101593017578125,-0.8595733642578125
0.0810089111328125,0.2133941650390625,-0.8248291015625
0.07452392578125,0.1952056884765625,-0.8250732421875
0.0709075927734375,0.1624755859375,-0.848114013671875
0.0781707763671875,0.12188720703125,-0.888275146484375
0.05859375,0.1143341064453125,-0.98016357421875
0.06982421875,0.123046875,-1.1066131591796875
0.1362762451171875,0.1067352294921875,-1.1634674072265625
0.1863861083984375,0.13128662109375,-1.278717041015625
0.26165771484375,0.2330322265625,-1.54095458984375
0.2775421142578125,0.149383544921875,-1.22613525390625
0.2108001708984375,0.054473876953125,-1.07989501953125
0.1666412353515625,0.01007080078125,-0.9494171142578124
0.1911773681640625,-0.080596923828125,-0.785003662109375
0.167449951171875,-0.08221435546875,-0.820770263671875
0.1596527099609375,0.047698974609375,-1.050567626953125
0.2004547119140625,0.1674957275390625,-1.1858978271484375
0.226409912109375,0.1298675537109375,-1.026123046875
0.1412811279296875,0.0554351806640625,-0.899932861328125
0.0518035888671875,0.042938232421875,-0.8725738525390625
0.05169677734375,0.070068359375,-0.90277099609375
0.0789337158203125,0.1278533935546875,-0.9740142822265624
0.0944061279296875,0.1124420166015625,-1.0169525146484375
0.09112548828125,0.1009521484375,-1.0195770263671875
0.080841064453125,0.0655975341796875,-0.9926300048828124
0.08331298828125,0.08941650390625,-0.9715423583984376
0.129425048828125,0.1176605224609375,-0.942718505859375
0.138519287109375,0.081451416015625,-0.8807525634765625
0.0983123779296875,0.057098388671875,-0.881866455078125
0.0928802490234375,0.0548248291015625,-0.8994140625
0.1101837158203125,0.0943756103515625,-0.92572021484375
0.13970947265625,0.0851593017578125,-0.922332763671875
0.178680419921875,0.06048583984375,-0.9334869384765624
0.2117156982421875,0.114837646484375,-1.2904052734375
0.1563873291015625,0.1750030517578125,-1.467041015625
0.23345947265625,-0.0925445556640625,-1.1816558837890625
0.234466552734375,-0.1390838623046875,-0.9721527099609376
0.1962432861328125,-0.0611419677734375,-0.9112091064453124
0.197052001953125,0.107513427734375,-1.0551605224609375
0.147735595703125,0.2000274658203125,-1.228424072265625
0.1226348876953125,0.1727752685546875,-1.251922607421875
0.166534423828125,0.1241302490234375,-1.167633056640625
0.155548095703125,0.13653564453125,-1.1022186279296875
0.1269989013671875,0.164825439453125,-1.09967041015625
0.1194915771484375,0.20477294921875,-1.0689697265625
0.1035614013671875,0.1956329345703125,-1.048309326171875
0.083770751953125,0.2147369384765625,-1.02777099609375
0.09576416015625,0.19927978515625,-0.89935302734375
0.0721435546875,0.1757659912109375,-0.8210296630859375
0.035308837890625,0.140350341796875,-0.79461669921875
0.0255584716796875,0.130340576171875,-0.8242950439453125
0.04791259765625,0.1305084228515625,-0.8314971923828125
0.0444488525390625,0.05560302734375,-0.9344940185546876
0.1159820556640625,-0.06915283203125,-1.088165283203125
0.1601409912109375,-0.0306243896484375,-1.1378173828125
0.256805419921875,-0.1322784423828125,-1.23602294921875
0.2741546630859375,-0.1641387939453125,-1.2096710205078125
0.3219451904296875,-0.056396484375,-1.143524169921875
0.438690185546875,-0.005218505859375,-1.1379852294921875
0.466949462890625,0.1465301513671875,-1.18994140625
0.450592041015625,0.2547607421875,-1.1395721435546875
0.4554595947265625,0.1929473876953125,-1.0060272216796875
0.4853973388671875,0.1708831787109375,-0.9278106689453124
0.510467529296875,0.1029052734375,-0.979766845703125
0.63922119140625,0.01812744140625,-1.0311431884765625
0.678253173828125,0.091217041015625,-0.8910980224609375
0.6705780029296875,0.1593475341796875,-0.7441253662109375
0.6686553955078125,0.0429229736328125,-0.663055419921875
0.65899658203125,0.00457763671875,-0.668182373046875
0.576995849609375,0.0579071044921875,-0.7577667236328125
0.523651123046875,0.06671142578125,-0.6438751220703125
0.44866943359375,0.13665771484375,-0.8168182373046875
0.464630126953125,0.216217041015625,-0.9488525390625
0.4372406005859375,0.1640167236328125,-0.8748931884765625
0.3159332275390625,0.1988677978515625,-0.8376312255859375
0.2769927978515625,0.2767181396484375,-0.8419342041015625
0.3504180908203125,0.132537841796875,-0.9569244384765624
0.341796875,0.12298583984375,-0.9760589599609376
0.3523406982421875,0.1429901123046875,-1.024932861328125
0.369537353515625,0.085723876953125,-1.0361175537109375
0.323822021484375,0.1834259033203125,-1.0287017822265625
0.2800140380859375,0.25335693359375,-0.9913787841796876
0.1012725830078125,0.4660186767578125,-0.9956512451171876
0.2997589111328125,0.0565643310546875,-1.097259521484375
0.1752777099609375,0.0045013427734375,-0.933990478515625
0.1317901611328125,-0.0253753662109375,-0.8705596923828125
0.125823974609375,-0.1708831787109375,-0.8975067138671875
0.0930633544921875,-0.22015380859375,-0.8247528076171875
0.0762786865234375,-0.214141845703125,-0.8559722900390625
0.011474609375,-0.2109832763671875,-0.9170074462890624
0.0228424072265625,-0.209625244140625,-0.9830780029296876
-0.001068115234375,-0.2118682861328125,-0.9640045166015624
-0.027496337890625,-0.194671630859375,-0.9930267333984376
-0.0027618408203125,-0.180755615234375,-0.9823455810546876
0.0024871826171875,-0.1321563720703125,-0.9870452880859376
0.0280303955078125,-0.135589599609375,-1.040313720703125
0.03082275390625,-0.172271728515625,-0.9580230712890624
-0.02996826171875,-0.1383819580078125,-0.9228363037109376
0.016448974609375,-0.1272735595703125,-0.905426025390625
0.0156402587890625,-0.0941009521484375,-0.8198699951171875
0.0919036865234375,-0.0950164794921875,-0.99249267578125
0.0334320068359375,-0.0528717041015625,-0.9162139892578124
0.241851806640625,-0.183502197265625,-1.094329833984375
0.19573974609375,-0.143402099609375,-1.024261474609375
0.27752685546875,-0.107147216796875,-1.04632568359375
0.2075653076171875,-0.0582275390625,-1.0188140869140625
0.2808074951171875,-0.1006622314453125,-1.0887603759765625
0.242401123046875,-0.01312255859375,-0.9895477294921876
0.2595672607421875,-0.051605224609375,-1.010498046875
0.258453369140625,-0.068572998046875,-0.9765472412109376
0.2630615234375,-0.0220947265625,-1.0323333740234375
0.218017578125,0.0461578369140625,-1.063995361328125
0.2081451416015625,0.050048828125,-0.989990234375
0.2806396484375,-0.0372161865234375,-0.9120330810546876
0.2129058837890625,-0.0110015869140625,-0.93798828125
0.1212005615234375,-0.0493621826171875,-0.8345947265625
0.285797119140625,0.0227813720703125,-0.962432861328125
0.393280029296875,0.120391845703125,-1.07232666015625
0.480224609375,0.1067657470703125,-0.7233428955078125
0.445159912109375,0.1515045166015625,-0.84454345703125
0.2841796875,0.122589111328125,-0.8545074462890625
0.19171142578125,0.180999755859375,-0.9633331298828124
0.1424102783203125,0.2660369873046875,-0.9020233154296876
0.098297119140625,0.2715911865234375,-0.896392822265625
0.0337982177734375,0.2389678955078125,-0.8535003662109375
0.0237884521484375,0.322174072265625,-0.8048858642578125
0.035614013671875,0.3729705810546875,-0.838958740234375
0.034576416015625,0.362640380859375,-1.03173828125
0.12396240234375,0.3210296630859375,-1.094024658203125
0.1446533203125,0.3040313720703125,-1.041656494140625
0.161041259765625,0.2883148193359375,-1.1016387939453125
0.199615478515625,0.2322235107421875,-1.1899566650390625
0.2491607666015625,0.1937255859375,-1.1661529541015625
0.1933746337890625,0.1340179443359375,-1.1432952880859375
0.12042236328125,0.1087493896484375,-1.1765289306640625
0.113494873046875,0.069976806640625,-1.0993804931640625
0.0850982666015625,0.035614013671875,-1.1086883544921875
0.0266571044921875,0.016265869140625,-1.1781768798828125
0.0368499755859375,0.0168914794921875,-1.188385009765625
0.1128082275390625,0.0322113037109375,-1.1968841552734375
0.069244384765625,-0.0618896484375,-1.1825103759765625
0.0759124755859375,-0.0960693359375,-1.1724700927734375
0.09075927734375,-0.03466796875,-1.152130126953125
0.1070404052734375,0.072174072265625,-1.1920623779296875
0.076629638671875,0.1313323974609375,-1.1910858154296875
0.0377197265625,0.1771240234375,-1.1148681640625
-0.0019683837890625,0.3155364990234375,-1.1602020263671875
-0.0966033935546875,0.4649200439453125,-1.29296875
-0.070892333984375,0.496551513671875,-1.2712554931640625
0.0147552490234375,0.48388671875,-1.0876007080078125
0.0182342529296875,0.4410858154296875,-0.9591827392578124
-0.018798828125,0.38336181640625,-0.89703369140625
-0.07147216796875,0.37396240234375,-0.8555145263671875
-0.070220947265625,0.33380126953125,-0.8217926025390625
-0.04779052734375,0.3150634765625,-0.8074493408203125
-0.0329437255859375,0.2542877197265625,-0.7598114013671875
-0.0256195068359375,0.20062255859375,-0.749847412109375
-0.01763916015625,0.1432952880859375,-0.76397705078125
-0.0388946533203125,0.10052490234375,-0.79571533203125
-0.0351104736328125,0.052825927734375,-0.85015869140625
-0.0485076904296875,0.105255126953125,-0.9987640380859376
-0.0398406982421875,0.1759185791015625,-1.144012451171875
0.05804443359375,0.2263031005859375,-1.185333251953125
0.0686492919921875,0.4006805419921875,-1.4426116943359375
0.161865234375,0.464630126953125,-1.4029388427734375
0.2328338623046875,0.3049774169921875,-1.0998077392578125
0.18280029296875,0.0845489501953125,-0.8928680419921875
0.1755828857421875,0.0146484375,-0.903961181640625
0.1666717529296875,0.1480865478515625,-1.1268768310546875
0.167694091796875,0.3145904541015625,-1.2267303466796875
0.114013671875,0.3214263916015625,-1.01263427734375
0.06964111328125,0.21221923828125,-0.818359375
0.00775146484375,0.1760406494140625,-0.8335113525390625
-0.0394744873046875,0.2196197509765625,-0.920013427734375
-0.0263824462890625,0.228515625,-0.9468536376953124
0.0091094970703125,0.1986541748046875,-0.9397735595703124
-0.002410888671875,0.1515350341796875,-0.9818572998046876
-0.0253143310546875,0.082733154296875,-1.012481689453125
-0.00970458984375,0.0356903076171875,-1.0449371337890625
-0.0345001220703125,-0.0102996826171875,-1.0341949462890625
-0.17333984375,-0.0570526123046875,-1.131988525390625
-0.0620269775390625,-0.0012969970703125,-1.07611083984375
0.0086822509765625,0.1113739013671875,-1.0361328125
-0.0053863525390625,0.1425628662109375,-1.0454254150390625
0.0592041015625,0.2916717529296875,-1.2431640625
0.14105224609375,0.3297882080078125,-1.2805328369140625
0.2117919921875,0.2734222412109375,-1.20660400390625
0.1497955322265625,0.348541259765625,-1.2190704345703125
0.15087890625,0.2465362548828125,-0.9788055419921876
0.161956787109375,0.3150482177734375,-0.9613494873046876
0.08917236328125,0.5065765380859375,-1.0632171630859375
0.0774688720703125,0.53472900390625,-1.10260009765625
0.059722900390625,0.4926605224609375,-1.0473480224609375
0.0237579345703125,0.44085693359375,-0.9629058837890624
0.0190887451171875,0.424591064453125,-0.8861236572265625
0.010223388671875,0.423370361328125,-0.89544677734375
-0.01165771484375,0.3994140625,-0.841949462890625
-0.0349884033203125,0.361053466796875,-0.7893829345703125
-0.0751190185546875,0.3407135009765625,-0.7656707763671875
-0.1010894775390625,0.34283447265625,-0.7429656982421875
-0.114166259765625,0.3306732177734375,-0.7379302978515625
-0.083038330078125,0.32373046875,-0.8358917236328125
-0.0277252197265625,0.3387298583984375,-0.9423370361328124
-0.0189056396484375,0.349761962890625,-1.039703369140625
-0.0381011962890625,0.3148651123046875,-1.2922515869140625
-0.121826171875,0.4633026123046875,-1.5006103515625
0.002960205078125,0.295989990234375,-1.2388458251953125
0.017059326171875,0.1383514404296875,-1.036041259765625
-0.025177001953125,0.0158538818359375,-0.94036865234375
-0.05255126953125,-0.0269317626953125,-1.0164947509765625
-0.0505828857421875,0.11328125,-1.207305908203125
0.016937255859375,0.177642822265625,-1.1930694580078125
0.0240936279296875,0.1077117919921875,-1.01678466796875
-0.0664215087890625,0.0565338134765625,-0.9466400146484376
-0.1816253662109375,0.0313568115234375,-0.9114532470703124
-0.2326507568359375,0.084136962890625,-1.0125579833984375
-0.1712493896484375,0.134246826171875,-1.0182342529296875
-0.102508544921875,0.15887451171875,-0.98529052734375
-0.1099395751953125,0.1726226806640625,-0.9649200439453124
-0.1206512451171875,0.174163818359375,-0.933837890625
-0.0832672119140625,0.20098876953125,-0.917572021484375
-0.10064697265625,0.237457275390625,-0.914093017578125
-0.091583251953125,0.261505126953125,-0.943267822265625
-0.063812255859375,0.2716064453125,-0.9223480224609376
-0.0641326904296875,0.30511474609375,-0.983673095703125
-0.0433502197265625,0.381805419921875,-1.0720977783203125
0.019927978515625,0.2862548828125,-0.952117919921875
0.01971435546875,0.2300262451171875,-0.8466949462890625
0.0293731689453125,0.243865966796875,-0.9307098388671876
0.0624542236328125,0.288848876953125,-0.9575653076171876
0.087982177734375,0.313140869140625,-0.9946136474609376
0.123931884765625,0.31195068359375,-1.0232696533203125
0.1516265869140625,0.2872467041015625,-1.0247650146484375
0.1545257568359375,0.2024993896484375,-1.0282745361328125
0.160552978515625,0.211517333984375,-1.014678955078125
0.1462249755859375,0.2779541015625,-0.9677734375
0.1421661376953125,0.321197509765625,-0.9277801513671876
0.1365509033203125,0.3169708251953125,-0.93792724609375
0.123626708984375,0.339996337890625,-0.9158935546875
0.1044921875,0.3109893798828125,-0.88055419921875
0.09674072265625,0.3192291259765625,-0.8355560302734375
0.072998046875,0.313018798828125,-0.8872222900390625
0.10955810546875,0.26385498046875,-0.9824371337890624
0.1038818359375,0.140472412109375,-1.0974273681640625
0.1055908203125,0.017730712890625,-1.18890380859375
0.462860107421875,0.0243377685546875,-1.1385955810546875
0.4035491943359375,0.039093017578125,-1.2103271484375
0.170989990234375,0.2146759033203125,-1.1295928955078125
0.01922607421875,0.0094146728515625,-1.3524322509765625
0.0198822021484375,0.1214599609375,-1.30010986328125
-0.1651153564453125,0.0401763916015625,-0.8689727783203125
0.020477294921875,-0.22332763671875,-1.014251708984375
-0.0717315673828125,-0.3515625,-1.108612060546875
0.0225067138671875,-0.21600341796875,-0.9886932373046876
0.1198577880859375,-0.2227630615234375,-1.115753173828125
0.1967926025390625,-0.2193756103515625,-1.0222320556640625
0.0074615478515625,-0.210723876953125,-0.6978607177734375
0.1493988037109375,-0.3044586181640625,-0.8317108154296875
0.042510986328125,-0.3186187744140625,-0.8876953125
0.1177520751953125,-0.3787689208984375,-0.751373291015625
0.1515045166015625,-0.4600372314453125,-0.7662811279296875
0.1326141357421875,-0.4047088623046875,-0.8837738037109375
-0.089996337890625,-0.4757537841796875,-0.8936920166015625
-0.110504150390625,-0.4905242919921875,-0.928741455078125
-0.0377655029296875,-0.463592529296875,-0.9268951416015624
0.03125,-0.4668426513671875,-0.84686279296875
0.0143280029296875,-0.41986083984375,-0.86083984375
-0.013702392578125,-0.4009552001953125,-0.7801666259765625
