AccelerationX,AccelerationY,AccelerationZ
-0.5076446533203125,0.78643798828125,-0.301788330078125
-0.528350830078125,0.7672882080078125,-0.201751708984375
-0.5963134765625,0.80572509765625,-0.3333282470703125
-0.5106658935546875,0.7900390625,-0.2520751953125
-0.518035888671875,0.7953643798828125,-0.3065643310546875
-0.5309600830078125,0.78851318359375,-0.2739410400390625
-0.536285400390625,0.7857208251953125,-0.26019287109375
-0.5106048583984375,0.79022216796875,-0.2772674560546875
-0.50482177734375,0.801361083984375,-0.3112335205078125
-0.506317138671875,0.812103271484375,-0.3349609375
-0.5088348388671875,0.7876434326171875,-0.2569580078125
-0.5501556396484375,0.787200927734375,-0.23828125
-0.521820068359375,0.78900146484375,-0.2942657470703125
-0.4872589111328125,0.793182373046875,-0.31915283203125
-0.491302490234375,0.7945556640625,-0.2877960205078125
-0.540313720703125,0.7921905517578125,-0.2700958251953125
-0.553924560546875,0.7734375,-0.3125152587890625
-0.5681915283203125,0.78289794921875,-0.293914794921875
-0.5290069580078125,0.7695159912109375,-0.305694580078125
-0.556365966796875,0.773773193359375,-0.3186187744140625
-0.5966949462890625,0.7527618408203125,-0.2367401123046875
-0.638214111328125,0.7448577880859375,-0.258209228515625
-0.615631103515625,0.7185211181640625,-0.230926513671875
-0.5678863525390625,0.7061004638671875,-0.2901763916015625
-0.6400909423828125,0.7476959228515625,-0.2081451416015625
-0.607269287109375,0.7208709716796875,-0.1877593994140625
-0.6398468017578125,0.7360992431640625,-0.2039794921875
-0.661224365234375,0.7398834228515625,-0.138519287109375
-0.6993865966796875,0.7079925537109375,-0.0909423828125
-0.676727294921875,0.6877593994140625,-0.054534912109375
-0.6721343994140625,0.721923828125,-0.1868438720703125
-0.6246490478515625,0.7017059326171875,-0.1822357177734375
-0.732635498046875,0.7294921875,-0.173431396484375
-0.642578125,0.6890411376953125,-0.1611785888671875
-0.558074951171875,0.7355194091796875,-0.1781463623046875
-0.63720703125,0.7710113525390625,-0.1995697021484375
-0.6194305419921875,0.7503204345703125,-0.1716156005859375
-0.6252288818359375,0.7050628662109375,-0.0853729248046875
-0.55413818359375,0.624725341796875,-0.0418548583984375
-0.672760009765625,0.69390869140625,-0.0980682373046875
-0.704254150390625,0.67681884765625,-0.1206817626953125
-0.7574920654296875,0.673919677734375,-0.16107177734375
-0.797332763671875,0.69488525390625,-0.194122314453125
-0.7905426025390625,0.6890411376953125,-0.1571807861328125
-0.759918212890625,0.6977996826171875,-0.1185760498046875
-0.7500762939453125,0.738922119140625,-0.1790771484375
-0.6739654541015625,0.7442169189453125,-0.21893310546875
-0.636138916015625,0.713165283203125,-0.192535400390625
-0.650970458984375,0.760772705078125,-0.113006591796875
-0.75750732421875,0.8521881103515625,-0.152557373046875
-0.7332763671875,0.8094940185546875,-0.18280029296875
-0.5970458984375,0.6788482666015625,-0.2242889404296875
-0.51763916015625,0.6652679443359375,-0.18829345703125
-0.62469482421875,0.795623779296875,-0.22381591796875
-0.6674652099609375,0.9036865234375,-0.2978515625
-0.46380615234375,0.85504150390625,-0.173065185546875
-0.457275390625,0.7613067626953125,-0.1484832763671875
-0.5044708251953125,0.7723236083984375,-0.1798858642578125
-0.451629638671875,0.767120361328125,-0.1349945068359375
-0.4830474853515625,0.74127197265625,-0.1495513916015625
-0.529754638671875,0.7510833740234375,-0.103973388671875
-0.6138916015625,0.800323486328125,-0.074493408203125
-0.71551513671875,0.9222412109375,-0.0796051025390625
-0.6674652099609375,0.9269866943359376,-0.0962982177734375
-0.62493896484375,0.879119873046875,-0.163238525390625
-0.682586669921875,0.9188385009765624,-0.163543701171875
-0.705902099609375,1.0089569091796875,-0.1628570556640625
-0.5582427978515625,0.7308349609375,-0.1781158447265625
-0.6002044677734375,0.543792724609375,-0.11737060546875
-0.640167236328125,0.6456146240234375,-0.0845947265625
-0.6010284423828125,0.8057098388671875,-0.1312103271484375
-0.51861572265625,0.7317657470703125,-0.172698974609375
-0.518585205078125,0.6837310791015625,-0.142974853515625
-0.5693206787109375,0.69036865234375,-0.0673828125
-0.513031005859375,0.6871337890625,0.0416259765625
-0.5738983154296875,0.7447509765625,-0.0497283935546875
-0.66241455078125,0.7604522705078125,-0.1693115234375
-0.6691131591796875,0.7570953369140625,-0.1295013427734375
-0.6932220458984375,0.7891998291015625,-0.03717041015625
-0.7001953125,0.78350830078125,0.02154541015625
-0.72412109375,0.7520294189453125,-0.0675201416015625
-0.7541351318359375,0.8484039306640625,-0.1371002197265625
-0.7696075439453125,0.9672088623046876,-0.1288909912109375
-0.7014923095703125,0.7998504638671875,-0.14837646484375
-0.570281982421875,0.6988983154296875,-0.124053955078125
-0.4876708984375,0.7871856689453125,-0.1136016845703125
-0.542999267578125,0.9015655517578124,-0.10516357421875
-0.497161865234375,0.8443450927734375,-0.12451171875
-0.481903076171875,0.757965087890625,-0.1479034423828125
-0.4882965087890625,0.7547454833984375,-0.1551971435546875
-0.471160888671875,0.73431396484375,-0.0399627685546875
-0.4701690673828125,0.74041748046875,0.01312255859375
-0.492828369140625,0.817962646484375,-0.0572052001953125
-0.5736236572265625,0.82177734375,-0.0907135009765625
-0.668792724609375,0.85791015625,-0.06658935546875
-0.6801605224609375,0.8724822998046875,-0.0680999755859375
-0.767547607421875,0.9635467529296876,-0.0920867919921875
-0.7838134765625,0.953857421875,-0.1624755859375
-0.6567230224609375,0.718231201171875,-0.2125091552734375
-0.6130218505859375,0.5126190185546875,-0.13958740234375
-0.697509765625,0.614959716796875,-0.0337982177734375
-0.7831268310546875,0.7940521240234375,-0.039031982421875
-0.652496337890625,0.7417449951171875,-0.1327056884765625
-0.6025238037109375,0.642608642578125,-0.1285400390625
-0.6466217041015625,0.63397216796875,0.0027923583984375
-0.628448486328125,0.660614013671875,0.035003662109375
-0.5964508056640625,0.7174224853515625,-0.0218048095703125
-0.685089111328125,0.720458984375,-0.0906219482421875
-0.7671966552734375,0.720245361328125,-0.1118621826171875
-0.804107666015625,0.79315185546875,-0.12677001953125
-0.717803955078125,0.808197021484375,-0.010894775390625
-0.6593475341796875,0.796905517578125,0.0478363037109375
-0.620361328125,0.82000732421875,-0.0169525146484375
-0.595855712890625,0.9330902099609376,-0.1220245361328125
-0.6509857177734375,1.0390777587890625,-0.062286376953125
-0.599639892578125,0.8189544677734375,-0.0937347412109375
-0.516265869140625,0.623504638671875,-0.1370391845703125
-0.46923828125,0.68994140625,-0.0711669921875
-0.4997406005859375,0.8262176513671875,-0.01507568359375
-0.5667724609375,0.8342742919921875,-0.086090087890625
-0.58758544921875,0.7457733154296875,-0.094818115234375
-0.6192474365234375,0.695068359375,-0.054534912109375
-0.6002044677734375,0.6698150634765625,-0.0335235595703125
-0.6148834228515625,0.70477294921875,-0.1193389892578125
-0.55914306640625,0.7553253173828125,-0.090118408203125
-0.655120849609375,0.7847442626953125,-0.0865020751953125
-0.710418701171875,0.834075927734375,-0.0492095947265625
-0.7454986572265625,0.8321380615234375,-0.0606231689453125
-0.7455902099609375,0.767425537109375,-0.1021575927734375
-0.7417755126953125,0.78216552734375,-0.1398468017578125
-0.7276458740234375,0.82269287109375,-0.0875244140625
-0.60748291015625,0.6056976318359375,-0.089141845703125
-0.621337890625,0.5750274658203125,-0.1570892333984375
-0.738677978515625,0.73052978515625,-0.2269744873046875
-0.7409515380859375,0.7656402587890625,-0.1145477294921875
-0.688232421875,0.67315673828125,-0.09716796875
-0.6665496826171875,0.6766204833984375,-0.131988525390625
-0.6200103759765625,0.7144622802734375,-0.1098785400390625
-0.56591796875,0.7528228759765625,-0.1036834716796875
-0.5784759521484375,0.7444000244140625,-0.1309356689453125
-0.5818634033203125,0.7723236083984375,-0.1385650634765625
-0.6505279541015625,0.82806396484375,-0.0761260986328125
-0.6641387939453125,0.8495025634765625,-0.059661865234375
-0.6506195068359375,0.8286285400390625,-0.1344757080078125
-0.6550750732421875,0.8341064453125,-0.14862060546875
-0.6899871826171875,0.9536285400390624,-0.167236328125
-0.6900482177734375,1.011322021484375,-0.1296234130859375
-0.5196990966796875,0.72003173828125,-0.0770416259765625
-0.4958343505859375,0.743408203125,-0.1522674560546875
-0.5865478515625,0.8615570068359375,-0.263427734375
-0.58447265625,0.8591461181640625,-0.16546630859375
-0.5085906982421875,0.695068359375,-0.03411865234375
-0.5195465087890625,0.612091064453125,-0.032958984375
-0.568603515625,0.6247100830078125,-0.1187591552734375
-0.6150054931640625,0.6866912841796875,-0.0964202880859375
-0.5883636474609375,0.7369384765625,-0.1266326904296875
-0.55096435546875,0.7734832763671875,-0.1076202392578125
-0.6596832275390625,0.8690185546875,-0.078948974609375
-0.7397613525390625,0.878204345703125,-0.099151611328125
-0.7658538818359375,0.830841064453125,-0.127593994140625
-0.820037841796875,0.95941162109375,-0.11181640625
-0.713592529296875,0.8217620849609375,-0.212066650390625
-0.66748046875,0.5676422119140625,-0.2359771728515625
-0.674652099609375,0.578369140625,-0.0931243896484375
-0.640045166015625,0.7158660888671875,-0.03326416015625
-0.6326446533203125,0.7091522216796875,-0.1162567138671875
-0.63690185546875,0.6263885498046875,-0.201690673828125
-0.661376953125,0.6420135498046875,-0.1671905517578125
-0.632080078125,0.64947509765625,-0.08465576171875
-0.6879119873046875,0.656402587890625,-0.112030029296875
-0.7081146240234375,0.6669158935546875,-0.150909423828125
-0.716033935546875,0.678863525390625,-0.1250152587890625
-0.7225189208984375,0.7472381591796875,-0.0422515869140625
-0.7486114501953125,0.7764892578125,-0.0408782958984375
-0.75384521484375,0.7763519287109375,-0.0980987548828125
-0.7498779296875,0.8175201416015625,-0.130706787109375
-0.73114013671875,0.87432861328125,-0.1699981689453125
-0.6993560791015625,0.7911224365234375,-0.149322509765625
-0.6595458984375,0.616546630859375,-0.1346435546875
-0.6439971923828125,0.7537841796875,-0.1289825439453125
-0.6118621826171875,0.824188232421875,-0.123443603515625
-0.6395111083984375,0.7481689453125,-0.032745361328125
-0.6078033447265625,0.6357574462890625,-0.048309326171875
-0.531646728515625,0.6434783935546875,-0.180938720703125
-0.4876556396484375,0.64739990234375,-0.1866455078125
-0.523223876953125,0.65753173828125,-0.09423828125
-0.55548095703125,0.711761474609375,-0.09088134765625
-0.5987701416015625,0.7897491455078125,-0.13983154296875
-0.6814422607421875,0.8553924560546875,-0.138427734375
-0.7596282958984375,0.8607177734375,-0.1263885498046875
-0.8016815185546875,0.8341217041015625,-0.12335205078125
-0.9099884033203124,1.0164642333984375,-0.1022491455078125
-0.8363494873046875,0.8333282470703125,-0.16119384765625
-0.6963653564453125,0.4932098388671875,-0.19189453125
-0.7391357421875,0.5530853271484375,-0.1782684326171875
-0.673797607421875,0.692962646484375,-0.11468505859375
-0.538299560546875,0.7118682861328125,-0.0828704833984375
-0.4802093505859375,0.62249755859375,-0.0753936767578125
-0.61090087890625,0.607421875,-0.1595306396484375
-0.6793365478515625,0.619659423828125,-0.1360931396484375
-0.6889495849609375,0.64642333984375,-0.1122589111328125
-0.6944580078125,0.6692962646484375,-0.0960693359375
-0.767425537109375,0.7023773193359375,-0.0548095703125
-0.8229827880859375,0.79840087890625,-0.007965087890625
-0.8134002685546875,0.83349609375,-0.088623046875
-0.7935028076171875,0.871368408203125,-0.12054443359375
-0.81170654296875,0.975860595703125,-0.1366729736328125
-0.75250244140625,0.9309844970703124,-0.1215362548828125
-0.664581298828125,0.6448974609375,-0.125732421875
-0.642913818359375,0.6768646240234375,-0.0933380126953125
-0.5659637451171875,0.844940185546875,-0.0802459716796875
-0.4463348388671875,0.8052215576171875,-0.0788421630859375
-0.5053558349609375,0.6667327880859375,-0.0638427734375
-0.5030975341796875,0.6389007568359375,-0.131866455078125
-0.444183349609375,0.653656005859375,-0.1229095458984375
-0.456268310546875,0.665191650390625,-0.0829315185546875
-0.4962615966796875,0.6569061279296875,-0.0520172119140625
-0.5537109375,0.7044677734375,-0.0925445556640625
-0.653656005859375,0.8759002685546875,-0.0660858154296875
-0.712921142578125,0.9072723388671876,-0.098175048828125
-0.8513336181640625,0.9604644775390624,-0.107025146484375
-0.857635498046875,1.0386199951171875,-0.18121337890625
-0.7677154541015625,0.7536163330078125,-0.218048095703125
-0.8220977783203125,0.5467376708984375,-0.134368896484375
-0.7791748046875,0.657012939453125,-0.08343505859375
-0.6563568115234375,0.734954833984375,-0.0230712890625
-0.544921875,0.6527557373046875,0.0172271728515625
-0.592254638671875,0.6598358154296875,-0.139984130859375
-0.6036834716796875,0.728912353515625,-0.1754150390625
-0.642486572265625,0.7113800048828125,-0.11480712890625
-0.6461334228515625,0.7246551513671875,-0.0834197998046875
-0.6967010498046875,0.7091217041015625,-0.085784912109375
-0.7731475830078125,0.7599639892578125,-0.0685882568359375
-0.807952880859375,0.825927734375,-0.088287353515625
-0.76129150390625,0.785308837890625,-0.1236572265625
-0.7421112060546875,0.8473358154296875,-0.1124114990234375
-0.7159881591796875,0.9128265380859376,-0.1387176513671875
-0.6273193359375,0.83489990234375,-0.1179046630859375
-0.6078643798828125,0.65435791015625,-0.112823486328125
-0.5989227294921875,0.707977294921875,-0.1572723388671875
-0.543792724609375,0.81939697265625,-0.1600494384765625
-0.5235595703125,0.736541748046875,-0.083251953125
-0.5482025146484375,0.651153564453125,-0.0969085693359375
-0.529449462890625,0.6220245361328125,-0.1315155029296875
-0.51416015625,0.630584716796875,-0.1088104248046875
-0.5489349365234375,0.706268310546875,-0.0563812255859375
-0.596099853515625,0.7360992431640625,-0.0028839111328125
-0.679718017578125,0.8200531005859375,-0.0103302001953125
-0.7098236083984375,0.874359130859375,-0.063629150390625
-0.73126220703125,0.81732177734375,-0.0716552734375
-0.7853240966796875,0.8960723876953125,-0.0406341552734375
-0.7769317626953125,0.9024658203125,-0.0974884033203125
-0.7065887451171875,0.6904144287109375,-0.136505126953125
-0.7954864501953125,0.5838165283203125,-0.0842742919921875
-0.832305908203125,0.6685791015625,-0.08233642578125
-0.698486328125,0.7891082763671875,-0.0758056640625
-0.6342926025390625,0.69659423828125,-0.15234375
-0.6259613037109375,0.66400146484375,-0.2193756103515625
-0.5703582763671875,0.6828765869140625,-0.1491546630859375
-0.5821075439453125,0.6647796630859375,-0.0988922119140625
-0.6317901611328125,0.6401824951171875,-0.0435943603515625
-0.6742095947265625,0.6490325927734375,0.032012939453125
-0.78173828125,0.74383544921875,0.0163116455078125
-0.8316192626953125,0.8233642578125,-0.0535125732421875
-0.7968597412109375,0.8204193115234375,-0.0957794189453125
-0.79364013671875,0.8695220947265625,-0.147247314453125
-0.7537689208984375,0.93231201171875,-0.1939544677734375
-0.652252197265625,0.8630218505859375,-0.1413726806640625
-0.6101531982421875,0.6656494140625,-0.0653076171875
-0.5820159912109375,0.77703857421875,-0.077850341796875
-0.522491455078125,0.8781585693359375,-0.1342010498046875
-0.510711669921875,0.7891845703125,-0.155426025390625
-0.532867431640625,0.6768341064453125,-0.1389312744140625
-0.508209228515625,0.6551666259765625,-0.17333984375
-0.4854583740234375,0.643218994140625,-0.08477783203125
-0.4837799072265625,0.6439056396484375,-0.024078369140625
-0.5072021484375,0.6749267578125,0.007049560546875
-0.586151123046875,0.7458648681640625,-0.0340423583984375
-0.65289306640625,0.880706787109375,-0.039764404296875
-0.745758056640625,0.9275054931640624,-0.06512451171875
-0.811920166015625,0.8760223388671875,-0.1007843017578125
-0.8681488037109375,0.9603118896484376,-0.168365478515625
-0.7924957275390625,0.8809661865234375,-0.2527923583984375
-0.7257232666015625,0.6315460205078125,-0.1024169921875
-0.723602294921875,0.5352020263671875,0.032745361328125
-0.683990478515625,0.6974639892578125,-0.0381927490234375
-0.6217803955078125,0.7347869873046875,-0.1128692626953125
-0.6270599365234375,0.6367645263671875,-0.04107666015625
-0.6282501220703125,0.6237030029296875,-0.0499725341796875
-0.6378631591796875,0.648345947265625,-0.10467529296875
-0.641265869140625,0.676910400390625,-0.108245849609375
-0.6690521240234375,0.6900177001953125,-0.10113525390625
-0.7196197509765625,0.683837890625,-0.0529327392578125
-0.7744140625,0.746826171875,-0.0453948974609375
-0.7867584228515625,0.8194732666015625,-0.0804443359375
-0.74566650390625,0.8249053955078125,-0.1001129150390625
-0.7657318115234375,0.873565673828125,-0.080596923828125
-0.7537078857421875,0.9289398193359376,-0.1295928955078125
-0.6577606201171875,0.8766326904296875,-0.1719512939453125
-0.5801849365234375,0.648681640625,-0.165771484375
-0.6148681640625,0.709808349609375,-0.1216888427734375
-0.555450439453125,0.8435821533203125,-0.122528076171875
-0.486541748046875,0.846954345703125,-0.1130218505859375
-0.527740478515625,0.71490478515625,-0.0756072998046875
-0.539306640625,0.620086669921875,-0.074676513671875
-0.518310546875,0.6250457763671875,-0.0947723388671875
-0.51123046875,0.6812744140625,-0.06781005859375
-0.5321044921875,0.7117919921875,-0.0397796630859375
-0.6210784912109375,0.7239990234375,-0.03314208984375
-0.6707611083984375,0.77154541015625,-0.0221099853515625
-0.689666748046875,0.8528594970703125,-0.0424041748046875
-0.6951904296875,0.8810577392578125,-0.1136932373046875
-0.7044525146484375,0.813629150390625,-0.160400390625
-0.77496337890625,0.8859710693359375,-0.1523284912109375
-0.853515625,0.8931884765625,-0.068145751953125
-0.814605712890625,0.705780029296875,-0.01483154296875
-0.7710418701171875,0.472137451171875,0.03228759765625
-0.78240966796875,0.6082763671875,-0.061737060546875
-0.749114990234375,0.8129730224609375,-0.1215057373046875
-0.70489501953125,0.8079681396484375,-0.1201171875
-0.671661376953125,0.6846160888671875,-0.1124267578125
-0.66119384765625,0.69317626953125,-0.1308135986328125
-0.607879638671875,0.67578125,-0.0876007080078125
-0.6624755859375,0.671661376953125,0.1189727783203125
-0.6890106201171875,0.6641082763671875,0.05169677734375
-0.739959716796875,0.718048095703125,-0.202056884765625
-0.72979736328125,0.723846435546875,-0.1994171142578125
-0.701507568359375,0.6730804443359375,-0.103729248046875
-0.743255615234375,0.6412353515625,0.04644775390625
-0.779510498046875,0.6774444580078125,-0.025848388671875
-0.6951904296875,0.727020263671875,-0.07940673828125
-0.6790313720703125,0.770965576171875,-0.0951995849609375
-0.7510223388671875,0.81890869140625,-0.0023956298828125
-0.8103179931640625,0.8535308837890625,0.048492431640625
-0.6130218505859375,0.7058868408203125,-0.008880615234375
-0.507415771484375,0.6292724609375,0.04998779296875
-0.5137176513671875,0.57171630859375,-0.0991973876953125
-0.587677001953125,0.6245269775390625,-0.184112548828125
-0.6872100830078125,0.699005126953125,-0.3198394775390625
-0.6816864013671875,0.685272216796875,-0.3217926025390625
-0.7168731689453125,0.684844970703125,-0.2668304443359375
-0.7574920654296875,0.6653594970703125,-0.2798614501953125
-0.8542022705078125,0.7187347412109375,-0.255279541015625
-0.87432861328125,0.7333526611328125,-0.1956787109375
-0.802459716796875,0.700775146484375,-0.1771240234375
-0.7728118896484375,0.7196044921875,-0.27020263671875
-0.7351837158203125,0.7611846923828125,-0.3564605712890625
-0.6577606201171875,0.801300048828125,-0.3126373291015625
-0.627288818359375,0.7628631591796875,-0.26800537109375
-0.670440673828125,0.7375640869140625,-0.1940765380859375
-0.6980743408203125,0.7880096435546875,-0.1766510009765625
-0.6753997802734375,0.8104400634765625,-0.2001495361328125
-0.6459503173828125,0.786346435546875,-0.1902313232421875
-0.5171356201171875,0.7721710205078125,-0.121429443359375
-0.4335784912109375,0.745086669921875,-0.0599212646484375
-0.4237518310546875,0.7704620361328125,-0.021575927734375
-0.446380615234375,0.8234710693359375,-0.0418701171875
-0.513458251953125,0.84686279296875,0.059295654296875
-0.5984649658203125,0.9061431884765624,0.09423828125
-0.6033172607421875,0.8448028564453125,-0.0004730224609375
-0.6107330322265625,0.7871551513671875,-0.061920166015625
-0.663848876953125,0.7844085693359375,-0.0421295166015625
-0.7016754150390625,0.7446441650390625,-0.01177978515625
-0.716064453125,0.6869049072265625,0.048980712890625
-0.7250823974609375,0.6606903076171875,0.0587005615234375
-0.7347564697265625,0.657440185546875,-0.0089111328125
-0.73724365234375,0.65826416015625,-0.0565948486328125
-0.746185302734375,0.6639862060546875,-0.0455474853515625
-0.785125732421875,0.690216064453125,-0.0413360595703125
-0.831451416015625,0.7139434814453125,-0.0575408935546875
-0.8375091552734375,0.708038330078125,-0.092193603515625
-0.8481903076171875,0.8191375732421875,-0.147613525390625
-0.80645751953125,0.855010986328125,-0.2086029052734375
-0.708160400390625,0.7072601318359375,-0.1936187744140625
-0.6507568359375,0.7151641845703125,-0.1627960205078125
-0.6070404052734375,0.8551025390625,-0.1424560546875
-0.5675201416015625,0.8913116455078125,-0.133514404296875
-0.5320281982421875,0.793060302734375,-0.141326904296875
-0.562286376953125,0.737548828125,-0.1671905517578125
-0.616455078125,0.71685791015625,-0.17578125
-0.5874176025390625,0.709869384765625,-0.0625152587890625
-0.517608642578125,0.7519073486328125,-0.027313232421875
-0.5218353271484375,0.7405242919921875,-0.08062744140625
-0.555572509765625,0.7335357666015625,-0.0567779541015625
-0.612762451171875,0.7962646484375,-0.01397705078125
-0.6443328857421875,0.874053955078125,-0.0143890380859375
-0.6434326171875,0.8482208251953125,-0.0838775634765625
-0.7092132568359375,0.9726715087890624,-0.1154327392578125
-0.6708526611328125,0.93218994140625,-0.194488525390625
-0.572998046875,0.7360382080078125,-0.19287109375
-0.5555267333984375,0.5670928955078125,-0.0322418212890625
-0.6339569091796875,0.652801513671875,0.042816162109375
-0.6562957763671875,0.813629150390625,-0.0306396484375
-0.570892333984375,0.7832489013671875,-0.0715789794921875
-0.4986572265625,0.7162933349609375,-0.1235198974609375
-0.48040771484375,0.6909027099609375,-0.091064453125
-0.526123046875,0.6858978271484375,0.00714111328125
-0.6357879638671875,0.6811676025390625,0.0716705322265625
-0.7628173828125,0.7117919921875,0.00518798828125
-0.8169097900390625,0.7785186767578125,-0.0310821533203125
-0.83123779296875,0.8260345458984375,-0.05999755859375
-0.802001953125,0.7674102783203125,0.0011444091796875
-0.847015380859375,0.8814697265625,-0.03424072265625
-0.786102294921875,0.9663848876953124,-0.1249237060546875
-0.6172332763671875,0.8209228515625,-0.1657257080078125
-0.6043243408203125,0.75067138671875,-0.118438720703125
-0.56719970703125,0.82476806640625,-0.0982818603515625
-0.5476226806640625,0.8541107177734375,-0.1796722412109375
-0.538970947265625,0.7878570556640625,-0.1991729736328125
-0.4827117919921875,0.787994384765625,-0.0781402587890625
-0.431671142578125,0.7721405029296875,-0.095947265625
-0.43670654296875,0.7209625244140625,-0.195587158203125
-0.5225830078125,0.6922149658203125,-0.2257080078125
-0.537017822265625,0.7455902099609375,-0.090057373046875
-0.544708251953125,0.7872314453125,0.01446533203125
-0.653076171875,0.875640869140625,0.015380859375
-0.714874267578125,0.8433837890625,-0.090484619140625
-0.7394561767578125,0.847259521484375,-0.1312713623046875
-0.7285614013671875,0.955902099609375,-0.14874267578125
-0.6598663330078125,0.8348846435546875,-0.20751953125
-0.590972900390625,0.633148193359375,-0.1568603515625
-0.5811767578125,0.587371826171875,-0.0421142578125
-0.6794281005859375,0.7356109619140625,-0.0576934814453125
-0.7588653564453125,0.8285980224609375,-0.151947021484375
-0.670013427734375,0.6604156494140625,-0.0957794189453125
-0.57098388671875,0.576629638671875,-0.0372772216796875
-0.5453643798828125,0.6273345947265625,-0.0149688720703125
-0.5296783447265625,0.6929168701171875,0.0183258056640625
-0.596466064453125,0.7032470703125,-0.071533203125
-0.709320068359375,0.6975250244140625,-0.107208251953125
-0.83721923828125,0.730712890625,-0.0487518310546875
-0.9650115966796876,0.7869720458984375,-0.0167694091796875
-0.9402618408203124,0.7445526123046875,-0.0973968505859375
-0.7799224853515625,0.7195892333984375,-0.0872039794921875
-0.76025390625,0.89434814453125,-0.092529296875
-0.787872314453125,0.9324798583984376,-0.1335601806640625
-0.7671661376953125,0.6952667236328125,-0.1571044921875
-0.7485504150390625,0.635894775390625,-0.068267822265625
-0.6428375244140625,0.80810546875,-0.0447998046875
-0.5774688720703125,0.86761474609375,-0.09088134765625
-0.5755767822265625,0.73583984375,-0.16400146484375
-0.52874755859375,0.639251708984375,-0.1405029296875
-0.4977569580078125,0.6195068359375,-0.104461669921875
-0.4998626708984375,0.6258697509765625,-0.06610107421875
-0.514984130859375,0.65460205078125,-0.05194091796875
-0.582000732421875,0.70928955078125,-0.0899810791015625
-0.67755126953125,0.7779693603515625,-0.1038970947265625
-0.7449188232421875,0.832611083984375,-0.117156982421875
-0.71929931640625,0.78314208984375,-0.1756744384765625
-0.7450714111328125,0.8597259521484375,-0.198883056640625
-0.7335662841796875,0.86419677734375,-0.169708251953125
-0.685150146484375,0.7381439208984375,-0.1174163818359375
-0.658355712890625,0.5616607666015625,-0.102630615234375
-0.700927734375,0.6399993896484375,-0.0951690673828125
-0.689544677734375,0.752471923828125,-0.089752197265625
-0.6638641357421875,0.69671630859375,-0.147186279296875
-0.6222991943359375,0.6362152099609375,-0.1300811767578125
-0.634002685546875,0.6453857421875,-0.103668212890625
-0.6643524169921875,0.6480712890625,-0.0757904052734375
-0.707275390625,0.64990234375,-0.059722900390625
-0.7512054443359375,0.6417694091796875,-0.08746337890625
-0.82470703125,0.709228515625,-0.0980987548828125
-0.8905029296875,0.7972259521484375,-0.0802764892578125
-0.8549346923828125,0.7474365234375,-0.07470703125
-0.855255126953125,0.818695068359375,-0.10845947265625
-0.8065948486328125,0.8603057861328125,-0.139068603515625
-0.68084716796875,0.755706787109375,-0.1450958251953125
-0.7054595947265625,0.68682861328125,-0.135589599609375
-0.68890380859375,0.819122314453125,-0.1583251953125
-0.5949249267578125,0.8820343017578125,-0.1788177490234375
-0.5110015869140625,0.773773193359375,-0.163818359375
-0.4598388671875,0.7091217041015625,-0.1834259033203125
-0.4253082275390625,0.675811767578125,-0.2424468994140625
-0.4545135498046875,0.6387176513671875,-0.1561737060546875
-0.5231781005859375,0.6613616943359375,-0.076141357421875
-0.584930419921875,0.7244720458984375,-0.01971435546875
-0.669281005859375,0.80059814453125,-0.01312255859375
-0.744903564453125,0.8739776611328125,0.0155487060546875
-0.7284698486328125,0.828704833984375,-0.0343017578125
-0.771881103515625,1.0211334228515625,-0.0964508056640625
-0.714569091796875,0.9073028564453124,-0.218353271484375
-0.645599365234375,0.642608642578125,-0.218536376953125
-0.682342529296875,0.6224822998046875,-0.07415771484375
-0.646942138671875,0.7535858154296875,-0.02911376953125
-0.64019775390625,0.75701904296875,-0.0668792724609375
-0.564727783203125,0.657379150390625,-0.14019775390625
-0.4962310791015625,0.634246826171875,-0.1394195556640625
-0.5173492431640625,0.6598663330078125,-0.073699951171875
-0.589691162109375,0.6793365478515625,-0.0178680419921875
-0.609619140625,0.6855926513671875,-0.0361328125
-0.691741943359375,0.7096710205078125,-0.08380126953125
-0.809844970703125,0.807586669921875,-0.08087158203125
-0.850830078125,0.8787078857421875,-0.1209869384765625
-0.7782745361328125,0.7993621826171875,-0.10980224609375
-0.7852935791015625,0.8148345947265625,-0.0428009033203125
-0.812530517578125,0.909698486328125,-0.1228485107421875
-0.7375640869140625,0.890106201171875,-0.1575164794921875
-0.645416259765625,0.6982879638671875,-0.1312713623046875
-0.57965087890625,0.72564697265625,-0.1082763671875
-0.4955596923828125,0.852386474609375,-0.0854034423828125
-0.4754486083984375,0.874176025390625,-0.159088134765625
-0.468597412109375,0.7811431884765625,-0.2374420166015625
-0.4523773193359375,0.7262725830078125,-0.1667327880859375
-0.4495086669921875,0.728851318359375,-0.031036376953125
-0.4541015625,0.7155609130859375,0.0106048583984375
-0.489776611328125,0.7515869140625,-0.041107177734375
-0.560028076171875,0.814361572265625,-0.1138458251953125
-0.6112518310546875,0.9230804443359376,-0.120361328125
-0.5558013916015625,0.9051666259765624,-0.1605377197265625
-0.5903167724609375,0.83331298828125,-0.12005615234375
-0.722625732421875,1.0242156982421875,-0.07470703125
-0.63525390625,0.9512786865234376,-0.1670379638671875
-0.5302581787109375,0.7280731201171875,-0.2259368896484375
-0.5624542236328125,0.7346038818359375,-0.1509246826171875
-0.6309356689453125,0.77374267578125,-0.078826904296875
-0.6207275390625,0.726531982421875,-0.0408782958984375
-0.5685272216796875,0.657379150390625,-0.0353851318359375
-0.59735107421875,0.655975341796875,-0.0704193115234375
-0.6568603515625,0.669342041015625,-0.0447235107421875
-0.694915771484375,0.667449951171875,-0.0209503173828125
-0.697052001953125,0.676727294921875,0.01031494140625
-0.7190704345703125,0.7032470703125,-0.0064849853515625
-0.7813568115234375,0.7488861083984375,-0.057952880859375
-0.7813873291015625,0.7955780029296875,-0.0407867431640625
-0.7000579833984375,0.78564453125,-0.015167236328125
-0.629791259765625,0.791015625,-0.0202484130859375
-0.6841278076171875,0.9856719970703124,-0.1128082275390625
-0.737396240234375,0.9878387451171876,-0.211669921875
-0.6959686279296875,0.7551422119140625,-0.1174163818359375
-0.6636962890625,0.831634521484375,-0.0887603759765625
-0.6042327880859375,0.8881378173828125,-0.1007080078125
-0.54864501953125,0.770294189453125,-0.1623382568359375
-0.4749908447265625,0.6958465576171875,-0.0765838623046875
-0.417205810546875,0.7073974609375,-0.032867431640625
-0.4915008544921875,0.702239990234375,-0.020965576171875
-0.5455322265625,0.6884765625,-0.0705413818359375
-0.5009765625,0.7641143798828125,-0.046051025390625
-0.464385986328125,0.8128662109375,-0.050994873046875
-0.63446044921875,0.870086669921875,-0.0826568603515625
-0.7120361328125,0.8591156005859375,-0.1182403564453125
-0.6448974609375,0.7742156982421875,-0.1488037109375
-0.6949462890625,0.91265869140625,-0.125030517578125
-0.71600341796875,0.972412109375,-0.200164794921875
-0.6652069091796875,0.74298095703125,-0.2170562744140625
-0.69744873046875,0.6241455078125,-0.0821990966796875
-0.7046356201171875,0.672821044921875,-0.0422515869140625
-0.6634674072265625,0.722198486328125,-0.020355224609375
-0.5325927734375,0.690704345703125,-0.0155792236328125
-0.515716552734375,0.669830322265625,-0.0391693115234375
-0.5338134765625,0.714447021484375,-0.07177734375
-0.6179351806640625,0.6959991455078125,-0.0886077880859375
-0.6958770751953125,0.640869140625,-0.03753662109375
-0.7423553466796875,0.665557861328125,-0.0204925537109375
-0.8126983642578125,0.7766571044921875,-0.0948486328125
-0.8270721435546875,0.8482513427734375,-0.1143951416015625
-0.810699462890625,0.82440185546875,-0.0598907470703125
-0.7429656982421875,0.8724212646484375,-0.0146026611328125
-0.6626739501953125,0.95672607421875,-0.0769195556640625
-0.6861724853515625,0.96826171875,-0.1934814453125
-0.6245269775390625,0.7465972900390625,-0.1528167724609375
-0.5466766357421875,0.6889801025390625,-0.032867431640625
-0.52850341796875,0.813995361328125,0.001190185546875
-0.528106689453125,0.881683349609375,-0.09747314453125
-0.468109130859375,0.865325927734375,-0.1841888427734375
-0.4938812255859375,0.82769775390625,-0.22784423828125
-0.504608154296875,0.7695465087890625,-0.1478271484375
-0.4704437255859375,0.7396392822265625,-0.0951690673828125
-0.495574951171875,0.75177001953125,-0.10107421875
-0.5277557373046875,0.7478790283203125,-0.09063720703125
-0.62969970703125,0.7960662841796875,-0.04974365234375
-0.7317657470703125,0.892333984375,-0.045501708984375
-0.73065185546875,0.8886566162109375,-0.0416412353515625
-0.6743621826171875,0.89251708984375,-0.0925140380859375
-0.6280975341796875,0.8882293701171875,-0.1356658935546875
-0.5672760009765625,0.7462158203125,-0.103973388671875
-0.56451416015625,0.5326080322265625,-0.023834228515625
-0.6915130615234375,0.632781982421875,0.0120086669921875
-0.7492828369140625,0.7807159423828125,-0.1608428955078125
-0.633148193359375,0.7187652587890625,-0.2343597412109375
-0.56231689453125,0.6588134765625,-0.226348876953125
-0.587921142578125,0.633880615234375,-0.149383544921875
-0.6202545166015625,0.6201019287109375,-0.071929931640625
-0.6563568115234375,0.631011962890625,-0.002593994140625
-0.7815399169921875,0.6738433837890625,-0.0204315185546875
-0.873321533203125,0.7525634765625,-0.08026123046875
-0.904693603515625,0.8380126953125,-0.1500091552734375
-0.846588134765625,0.8049468994140625,-0.119659423828125
-0.875518798828125,0.8385162353515625,-0.04534912109375
-0.8553619384765625,0.927001953125,-0.0736236572265625
-0.713409423828125,0.8226776123046875,-0.1603546142578125
-0.6653289794921875,0.7324981689453125,-0.1394805908203125
-0.6359710693359375,0.8149871826171875,-0.13818359375
-0.61273193359375,0.89892578125,-0.109039306640625
-0.5217132568359375,0.7916107177734375,-0.1113128662109375
-0.5093994140625,0.711761474609375,-0.1548309326171875
-0.474090576171875,0.7115478515625,-0.133544921875
-0.4777069091796875,0.6914520263671875,-0.096099853515625
-0.5104827880859375,0.67730712890625,-0.0599365234375
-0.519866943359375,0.6916046142578125,-0.0839691162109375
-0.5568389892578125,0.7294769287109375,-0.0677337646484375
-0.6342315673828125,0.8342132568359375,-0.0666351318359375
-0.6444549560546875,0.8147430419921875,-0.088165283203125
-0.721466064453125,0.9044036865234376,-0.13177490234375
-0.737274169921875,0.9857177734375,-0.1417236328125
-0.6945953369140625,0.80010986328125,-0.1970062255859375
-0.6910400390625,0.562042236328125,-0.1905975341796875
-0.784881591796875,0.6051788330078125,-0.0905609130859375
-0.774505615234375,0.7705230712890625,-0.0695037841796875
-0.740325927734375,0.7177734375,-0.16748046875
-0.6699676513671875,0.6206207275390625,-0.173858642578125
-0.6244049072265625,0.61285400390625,-0.143402099609375
-0.6448822021484375,0.6435394287109375,-0.0976715087890625
-0.604888916015625,0.6793060302734375,-0.0379486083984375
-0.605804443359375,0.6839599609375,-0.038055419921875
-0.75634765625,0.686767578125,-0.1038970947265625
-0.829559326171875,0.7686309814453125,-0.071197509765625
-0.870880126953125,0.81005859375,-0.0521697998046875
-0.9014892578125,0.817779541015625,-0.040374755859375
-0.8834075927734375,0.8499603271484375,-0.1085662841796875
-0.827850341796875,0.87255859375,-0.168487548828125
-0.7011871337890625,0.702117919921875,-0.2345733642578125
-0.661407470703125,0.6369171142578125,-0.211822509765625
-0.6301116943359375,0.7843170166015625,-0.19891357421875
-0.5465087890625,0.877166748046875,-0.242584228515625
-0.50738525390625,0.780059814453125,-0.2671661376953125
-0.5616455078125,0.709991455078125,-0.2795867919921875
-0.6002960205078125,0.6732025146484375,-0.2138671875
-0.592498779296875,0.6731719970703125,-0.1323394775390625
-0.5985260009765625,0.71246337890625,-0.1484832763671875
-0.5973358154296875,0.7861328125,-0.142242431640625
-0.6091461181640625,0.774688720703125,-0.1097259521484375
-0.645233154296875,0.76416015625,-0.04522705078125
-0.5989990234375,0.8077850341796875,0.01220703125
-0.6659088134765625,0.9824981689453124,0.01043701171875
-0.6633453369140625,0.860687255859375,-0.0737152099609375
-0.6338348388671875,0.6073760986328125,-0.01104736328125
-0.5579071044921875,0.504364013671875,0.0990447998046875
-0.62420654296875,0.611907958984375,0.1441802978515625
-0.8201446533203125,0.8404693603515625,0.023895263671875
-0.850616455078125,0.85498046875,-0.0237579345703125
-0.80523681640625,0.777008056640625,-0.136474609375
-0.773773193359375,0.63409423828125,-0.125396728515625
-0.764678955078125,0.592010498046875,-0.05462646484375
-0.7779693603515625,0.638336181640625,-0.0372314453125
-0.79840087890625,0.6417083740234375,-0.1615447998046875
-0.8860015869140625,0.6425628662109375,-0.0953369140625
-0.87060546875,0.5772552490234375,-0.0729827880859375
-0.830322265625,0.6514129638671875,-0.0897979736328125
-0.6778106689453125,0.725341796875,-0.2225341796875
-0.6787567138671875,0.7087860107421875,-0.134246826171875
-0.645538330078125,0.7611846923828125,-0.16845703125
-0.6845703125,0.779693603515625,-0.303802490234375
-0.6632537841796875,0.7212677001953125,-0.304107666015625
-0.6033782958984375,0.7241363525390625,-0.281463623046875
-0.6208343505859375,0.675384521484375,-0.311614990234375
-0.701263427734375,0.705047607421875,-0.3194427490234375
-0.6744537353515625,0.7392425537109375,-0.3677978515625
-0.6070709228515625,0.712615966796875,-0.381195068359375
-0.7320098876953125,0.75885009765625,-0.34124755859375
-0.7847137451171875,0.7479705810546875,-0.2638702392578125
-0.8276519775390625,0.72113037109375,-0.1983795166015625
-0.79449462890625,0.7117919921875,-0.1733245849609375
-0.7676849365234375,0.7043914794921875,-0.1666107177734375
-0.6964874267578125,0.6970977783203125,-0.0941925048828125
-0.7049560546875,0.722381591796875,-0.0429534912109375
-0.6827545166015625,0.7883758544921875,-0.1507568359375
-0.557769775390625,0.7927703857421875,-0.1385498046875
-0.426239013671875,0.7348480224609375,-0.1259918212890625
-0.4911651611328125,0.7289276123046875,-0.14349365234375
-0.52734375,0.73492431640625,-0.064544677734375
-0.63079833984375,0.8025665283203125,-0.0278778076171875
-0.6491851806640625,0.7983551025390625,-0.0493316650390625
-0.6136474609375,0.8046722412109375,-0.1046142578125
-0.5908355712890625,0.78973388671875,-0.053466796875
-0.5915374755859375,0.7685546875,0.0148162841796875
-0.578399658203125,0.766265869140625,0.0325927734375
-0.566375732421875,0.7611846923828125,0.0504913330078125
-0.6178436279296875,0.7779083251953125,0.0487060546875
-0.6655426025390625,0.849365234375,0.05438232421875
-0.6360626220703125,0.8769683837890625,-0.030181884765625
-0.6077117919921875,0.7833709716796875,-0.075653076171875
-0.582763671875,0.70391845703125,0.0497283935546875
-0.6508636474609375,0.6509552001953125,0.106597900390625
-0.7109527587890625,0.6650848388671875,0.0723419189453125
-0.778289794921875,0.7021636962890625,-0.025665283203125
-0.74542236328125,0.690093994140625,-0.06884765625
-0.7472991943359375,0.670379638671875,-0.0728912353515625
-0.806671142578125,0.7115020751953125,-0.041778564453125
-0.78387451171875,0.743927001953125,-0.0388641357421875
-0.767059326171875,0.7693023681640625,-0.0895843505859375
-0.825897216796875,0.8478851318359375,-0.157745361328125
-0.8366546630859375,0.9149627685546876,-0.1767120361328125
-0.74383544921875,0.821014404296875,-0.15576171875
-0.635345458984375,0.7322235107421875,-0.1074981689453125
-0.6222991943359375,0.829010009765625,-0.158233642578125
-0.681976318359375,0.9566497802734376,-0.266937255859375
-0.4891510009765625,0.9307098388671876,-0.1971588134765625
-0.295013427734375,0.8120880126953125,-0.0888824462890625
-0.3496246337890625,0.713623046875,-0.09967041015625
-0.4243621826171875,0.6774749755859375,-0.1264190673828125
-0.4866180419921875,0.69097900390625,-0.1536407470703125
-0.5158233642578125,0.7660980224609375,-0.11944580078125
-0.5882415771484375,0.849517822265625,-0.035430908203125
-0.6710968017578125,0.8986968994140625,-0.0178985595703125
-0.7558135986328125,0.95501708984375,-0.047332763671875
-0.71392822265625,0.96484375,-0.0580902099609375
-0.711090087890625,0.9822998046875,-0.1320953369140625
-0.6168975830078125,0.836212158203125,-0.1475372314453125
-0.546783447265625,0.6285400390625,-0.0513153076171875
-0.5509796142578125,0.5856781005859375,0.063568115234375
-0.5773162841796875,0.745147705078125,0.0313568115234375
-0.62103271484375,0.820220947265625,-0.1153411865234375
-0.5713043212890625,0.7679290771484375,-0.1675567626953125
-0.534027099609375,0.7114715576171875,-0.1807403564453125
-0.5429229736328125,0.69110107421875,-0.05682373046875
-0.53729248046875,0.71075439453125,-0.042205810546875
-0.5371856689453125,0.7468414306640625,-0.0026702880859375
-0.5961761474609375,0.744781494140625,-0.0724334716796875
-0.6787872314453125,0.753814697265625,-0.0724639892578125
-0.745849609375,0.7691497802734375,-0.0021820068359375
-0.7705841064453125,0.7815704345703125,0.0513458251953125
-0.734832763671875,0.7677154541015625,-0.009979248046875
-0.7220306396484375,0.8857421875,-0.1176605224609375
-0.7073974609375,1.0283050537109375,-0.12115478515625
-0.6663665771484375,0.8717041015625,-0.172119140625
-0.647125244140625,0.7213897705078125,-0.181304931640625
-0.6129608154296875,0.8357086181640625,-0.19244384765625
-0.58282470703125,0.8802337646484375,-0.135498046875
-0.5493927001953125,0.8076324462890625,-0.16595458984375
-0.4750823974609375,0.77142333984375,-0.168304443359375
-0.4640960693359375,0.7601165771484375,-0.0608367919921875
-0.5299835205078125,0.7225189208984375,-0.0089111328125
-0.5543060302734375,0.740509033203125,-0.090545654296875
-0.5046234130859375,0.785491943359375,-0.148712158203125
-0.526123046875,0.8166046142578125,-0.1142578125
-0.5540618896484375,0.8591461181640625,-0.039031982421875
-0.61114501953125,0.876495361328125,-0.0948638916015625
-0.616546630859375,0.8527374267578125,-0.10943603515625
-0.680328369140625,0.919586181640625,-0.051666259765625
-0.685638427734375,0.90386962890625,-0.174468994140625
-0.57269287109375,0.72802734375,-0.1191558837890625
-0.5846710205078125,0.5723419189453125,-0.0181884765625
-0.7058258056640625,0.6772308349609375,-0.00225830078125
-0.8063201904296875,0.78717041015625,-0.05767822265625
-0.76043701171875,0.7170257568359375,-0.101165771484375
-0.6752471923828125,0.647735595703125,-0.108184814453125
-0.641571044921875,0.6647491455078125,-0.0348358154296875
-0.622161865234375,0.6648712158203125,-0.029296875
-0.6844940185546875,0.64117431640625,-0.0693511962890625
-0.732513427734375,0.6512908935546875,-0.0448455810546875
-0.7684478759765625,0.7171173095703125,-0.0624542236328125
-0.764495849609375,0.766571044921875,-0.021240234375
-0.7899169921875,0.7828369140625,-0.0142669677734375
-0.81707763671875,0.8343658447265625,-0.1234588623046875
-0.7863311767578125,0.9626922607421876,-0.2687225341796875
-0.6934051513671875,0.97039794921875,-0.2766876220703125
-0.544830322265625,0.811309814453125,-0.1160430908203125
-0.386383056640625,0.675872802734375,-0.017608642578125
-0.471832275390625,0.748504638671875,-0.146728515625
-0.5067138671875,0.8140411376953125,-0.212738037109375
-0.4362945556640625,0.7403106689453125,-0.129730224609375
-0.51007080078125,0.654052734375,-0.157684326171875
-0.5825653076171875,0.638397216796875,-0.0554046630859375
-0.6434478759765625,0.663055419921875,-0.0191192626953125
-0.6228485107421875,0.79364013671875,-0.0323333740234375
-0.6092987060546875,0.884490966796875,-0.0387725830078125
-0.7606658935546875,0.900299072265625,-0.0535125732421875
-0.8123931884765625,0.86163330078125,-0.074951171875
-0.7098846435546875,0.75201416015625,-0.0777587890625
-0.6827392578125,0.859832763671875,-0.0449676513671875
-0.6616973876953125,0.9146270751953124,-0.140716552734375
-0.546142578125,0.6168975830078125,-0.139739990234375
-0.6039886474609375,0.5942535400390625,-0.0534515380859375
-0.6429595947265625,0.7298431396484375,-0.0500640869140625
-0.5774688720703125,0.761749267578125,-0.104400634765625
-0.529937744140625,0.708221435546875,-0.14410400390625
-0.54876708984375,0.7005767822265625,-0.1547393798828125
-0.5835418701171875,0.6941680908203125,-0.0966796875
-0.6260986328125,0.672393798828125,-0.1196136474609375
-0.68017578125,0.68560791015625,-0.0986785888671875
-0.72259521484375,0.757568359375,-0.0895843505859375
-0.7332611083984375,0.7866973876953125,-0.10858154296875
-0.6824798583984375,0.797210693359375,-0.0969696044921875
-0.6734619140625,0.8235321044921875,-0.1107025146484375
-0.6298370361328125,0.8726806640625,-0.0841217041015625
-0.6947784423828125,0.984466552734375,-0.186309814453125
-0.7319183349609375,1.021392822265625,-0.21319580078125
-0.6019744873046875,0.7709197998046875,-0.0761260986328125
-0.5312042236328125,0.8302154541015625,-0.0860443115234375
-0.5037384033203125,0.9006805419921875,-0.2012939453125
-0.5752410888671875,0.83526611328125,-0.2010345458984375
-0.547454833984375,0.737762451171875,-0.1512603759765625
-0.58447265625,0.6979217529296875,-0.14739990234375
-0.56256103515625,0.6752166748046875,-0.0615386962890625
-0.569091796875,0.6767120361328125,-0.0527191162109375
-0.533966064453125,0.69781494140625,-0.1188201904296875
-0.5438690185546875,0.7040252685546875,-0.15447998046875
-0.66058349609375,0.7584991455078125,-0.120025634765625
-0.7429351806640625,0.8134002685546875,-0.0945281982421875
-0.7002105712890625,0.8232269287109375,-0.110443115234375
-0.65692138671875,0.796844482421875,-0.1415557861328125
-0.6474609375,0.9058380126953124,-0.123687744140625
-0.5890655517578125,0.8305206298828125,-0.200439453125
-0.4832763671875,0.6885833740234375,-0.080841064453125
-0.5623931884765625,0.742462158203125,-0.0772857666015625
-0.697479248046875,0.8171539306640625,-0.142822265625
-0.6990966796875,0.7516021728515625,-0.1494140625
-0.5697174072265625,0.6394500732421875,-0.0620269775390625
-0.5333099365234375,0.6082916259765625,-0.0188446044921875
-0.60882568359375,0.610992431640625,-0.05810546875
-0.6937255859375,0.636505126953125,-0.1107025146484375
-0.727142333984375,0.630218505859375,-0.071533203125
-0.76556396484375,0.6490325927734375,-0.047698974609375
-0.8677520751953125,0.7510528564453125,-0.0370635986328125
-0.9412841796875,0.8023223876953125,-0.048095703125
-0.8916015625,0.7535552978515625,-0.0662689208984375
-0.8640289306640625,0.8620147705078125,-0.0650634765625
-0.8363189697265625,0.98272705078125,-0.0122528076171875
-0.770233154296875,0.839752197265625,-0.0290374755859375
-0.7181549072265625,0.77166748046875,-0.0823974609375
-0.650970458984375,0.869415283203125,-0.0942535400390625
-0.5952606201171875,0.9309844970703124,-0.0388946533203125
-0.51690673828125,0.841278076171875,-0.0211944580078125
-0.412261962890625,0.7292633056640625,-0.0716552734375
-0.43878173828125,0.6927947998046875,-0.1542510986328125
-0.529449462890625,0.694091796875,-0.0813751220703125
-0.5583953857421875,0.6768035888671875,-0.0617523193359375
-0.515777587890625,0.70721435546875,-0.1129302978515625
-0.4991302490234375,0.7679901123046875,-0.1184844970703125
-0.5308074951171875,0.7926788330078125,-0.14715576171875
-0.678985595703125,0.88177490234375,-0.16278076171875
-0.7994232177734375,1.0837249755859375,-0.133819580078125
-0.6401214599609375,0.9685211181640624,-0.296112060546875
-0.5911865234375,0.756195068359375,-0.3762664794921875
-0.676361083984375,0.6996612548828125,-0.3038482666015625
-0.687957763671875,0.7045745849609375,-0.21258544921875
-0.68902587890625,0.6531219482421875,-0.12652587890625
-0.6268157958984375,0.5542144775390625,-0.0659332275390625
-0.6047210693359375,0.5999603271484375,-0.1124420166015625
-0.6081695556640625,0.65301513671875,-0.119476318359375
-0.6338958740234375,0.6691131591796875,-0.0749664306640625
-0.7207794189453125,0.6904754638671875,-0.121795654296875
-0.8354339599609375,0.7507476806640625,-0.1840972900390625
-0.918792724609375,0.763763427734375,-0.1101226806640625
-0.9042205810546876,0.701812744140625,-0.0313873291015625
-0.841552734375,0.738128662109375,0.038787841796875
-0.7678070068359375,0.846527099609375,-0.056854248046875
-0.8184814453125,0.8690948486328125,-0.2107391357421875
-0.7891845703125,0.7416229248046875,-0.21881103515625
-0.72711181640625,0.720611572265625,-0.1123199462890625
-0.6879730224609375,0.7924652099609375,-0.06170654296875
-0.686859130859375,0.8569793701171875,-0.1641082763671875
-0.6276702880859375,0.8038787841796875,-0.1963653564453125
-0.6309051513671875,0.73406982421875,-0.10345458984375
-0.6077880859375,0.7176971435546875,-0.0552215576171875
-0.53826904296875,0.7014617919921875,-0.0927581787109375
-0.4956207275390625,0.6864166259765625,-0.12274169921875
-0.506591796875,0.7196502685546875,-0.104400634765625
-0.5463104248046875,0.7262725830078125,-0.0406036376953125
-0.5859222412109375,0.802154541015625,-0.033477783203125
-0.5748291015625,0.827789306640625,-0.143157958984375
-0.6512451171875,0.8135833740234375,-0.1185455322265625
-0.7120819091796875,0.9575042724609376,-0.0009918212890625
-0.615631103515625,0.887847900390625,-0.1757659912109375
-0.55859375,0.66455078125,-0.214508056640625
-0.6747589111328125,0.7098541259765625,-0.105499267578125
-0.7542572021484375,0.78924560546875,-0.09808349609375
-0.6765289306640625,0.7384033203125,-0.153106689453125
-0.5799713134765625,0.66290283203125,-0.1935272216796875
-0.544036865234375,0.6761932373046875,-0.1294403076171875
-0.5747528076171875,0.676361083984375,-0.1114654541015625
-0.649169921875,0.6695098876953125,-0.1054534912109375
-0.72601318359375,0.6836395263671875,-0.066619873046875
-0.798095703125,0.6969146728515625,-0.066070556640625
-0.8513946533203125,0.695404052734375,-0.0606842041015625
-0.802703857421875,0.783355712890625,-0.0460205078125
-0.733489990234375,0.8297882080078125,-0.0648193359375
-0.858856201171875,0.974273681640625,-0.1686248779296875
-0.797637939453125,0.9924163818359376,-0.1982421875
-0.6725311279296875,0.8118133544921875,-0.19134521484375
-0.6246337890625,0.7515869140625,-0.132965087890625
-0.5531005859375,0.8823699951171875,-0.1217498779296875
-0.480987548828125,0.917633056640625,-0.1787109375
-0.504150390625,0.8054046630859375,-0.2412567138671875
-0.4943084716796875,0.7320404052734375,-0.1537628173828125
-0.524810791015625,0.7180328369140625,-0.0702667236328125
-0.5667572021484375,0.68438720703125,-0.044281005859375
-0.5171966552734375,0.663848876953125,0.0273284912109375
-0.430694580078125,0.7423553466796875,-0.0251007080078125
-0.4307861328125,0.786163330078125,-0.1268310546875
-0.563751220703125,0.815643310546875,-0.0971221923828125
-0.642059326171875,0.80877685546875,-0.06298828125
-0.769622802734375,0.8983612060546875,-0.0468902587890625
-0.745361328125,1.0782470703125,-0.1033782958984375
-0.641876220703125,0.7989501953125,-0.2823638916015625
-0.723602294921875,0.5865478515625,-0.1710357666015625
-0.80267333984375,0.655364990234375,0.01123046875
-0.779998779296875,0.7434234619140625,0.0676422119140625
-0.7047119140625,0.663604736328125,-0.0419158935546875
-0.595703125,0.6523590087890625,-0.09136962890625
-0.583038330078125,0.6941986083984375,-0.0845947265625
-0.5802459716796875,0.720947265625,-0.0378570556640625
-0.544891357421875,0.71710205078125,0.011474609375
-0.583251953125,0.7176666259765625,-0.088226318359375
-0.686004638671875,0.7361907958984375,-0.0780792236328125
-0.73046875,0.76739501953125,-0.0234222412109375
-0.7821197509765625,0.781005859375,-0.065338134765625
-0.8038177490234375,0.74725341796875,-0.0886688232421875
-0.7935638427734375,0.7370147705078125,-0.12847900390625
-0.795013427734375,0.9635162353515624,-0.2155303955078125
-0.7605133056640625,0.90167236328125,-0.346466064453125
-0.6775970458984375,0.745697021484375,-0.298095703125
-0.5913543701171875,0.709747314453125,-0.19146728515625
-0.56732177734375,0.760009765625,-0.2587432861328125
-0.5528717041015625,0.7775421142578125,-0.3085784912109375
-0.5297393798828125,0.7488250732421875,-0.31121826171875
-0.54217529296875,0.7485809326171875,-0.3010406494140625
-0.5538330078125,0.7673797607421875,-0.2490234375
-0.5537261962890625,0.770263671875,-0.19598388671875
-0.4829864501953125,0.8087615966796875,-0.1609039306640625
-0.4396514892578125,0.844635009765625,-0.193115234375
-0.53826904296875,0.8206024169921875,-0.1479644775390625
-0.55584716796875,0.8254852294921875,-0.060302734375
-0.5235443115234375,0.8492431640625,0.0367889404296875
-0.531524658203125,0.89666748046875,0.0654296875
-0.61700439453125,1.053985595703125,0.0413665771484375
-0.6136627197265625,1.05914306640625,-0.075439453125
-0.5154571533203125,0.8554534912109375,-0.0917816162109375
-0.479461669921875,0.6387786865234375,0.0785675048828125
-0.5251007080078125,0.6269378662109375,0.1688385009765625
-0.6268310546875,0.8713836669921875,0.107452392578125
-0.7473297119140625,0.959930419921875,-0.0595703125
-0.7183380126953125,0.8342742919921875,-0.156280517578125
-0.61248779296875,0.6702880859375,-0.14654541015625
-0.6296234130859375,0.6226043701171875,-0.0374298095703125
-0.6987152099609375,0.596405029296875,0.0161590576171875
-0.667205810546875,0.6766510009765625,-0.0060577392578125
-0.620391845703125,0.7082366943359375,-0.16351318359375
-0.6863555908203125,0.706451416015625,-0.199737548828125
-0.6815185546875,0.6881103515625,-0.0423583984375
-0.626617431640625,0.67572021484375,0.0184783935546875
-0.62384033203125,0.6507110595703125,0.0076446533203125
-0.530731201171875,0.5986785888671875,0.0265655517578125
-0.3803863525390625,0.506988525390625,0.043060302734375
-0.353179931640625,0.4318084716796875,0.0146331787109375
-0.416473388671875,0.4356842041015625,-0.0210113525390625
-0.4056396484375,0.4766845703125,0.0621490478515625
-0.5082244873046875,0.831390380859375,0.0179595947265625
-0.9586029052734376,1.7210693359375,-0.167449951171875
-1.1988677978515625,2.0014801025390625,-0.3523406982421875
-0.898193359375,1.30767822265625,-0.4237213134765625
-0.784515380859375,1.0673065185546875,-0.3171539306640625
-0.4726104736328125,0.873046875,-0.1820068359375
-0.3871612548828125,0.5624542236328125,0.044525146484375
-0.2970123291015625,0.3154296875,0.2187042236328125
-0.3247222900390625,0.2223663330078125,0.169464111328125
-0.3728790283203125,0.1050567626953125,0.2362213134765625
-0.3752593994140625,0.101531982421875,0.2200164794921875
-0.321868896484375,0.2281646728515625,0.0444488525390625
-0.5603179931640625,0.592498779296875,-0.03448486328125
-1.214996337890625,1.8902740478515625,-0.11041259765625
-1.6160430908203125,2.19635009765625,-0.265533447265625
-1.32598876953125,1.367767333984375,-0.329376220703125
-0.9190216064453124,0.8173828125,-0.016326904296875
-0.5154571533203125,0.7011566162109375,0.491058349609375
-0.261932373046875,0.4777374267578125,0.4806365966796875
-0.353118896484375,0.3828277587890625,0.106292724609375
-0.33880615234375,0.28045654296875,0.01812744140625
-0.2489776611328125,0.1828155517578125,-0.0008697509765625
-0.2073516845703125,0.2011260986328125,-0.083709716796875
-0.24237060546875,0.2779998779296875,-0.125701904296875
-0.391357421875,0.535308837890625,-0.092803955078125
-0.849761962890625,1.161651611328125,-0.067352294921875
-1.1682586669921875,1.818572998046875,-0.0767822265625
-1.296295166015625,1.9971160888671875,-0.218292236328125
-1.11773681640625,1.353759765625,-0.2827301025390625
-0.8078765869140625,1.1569671630859375,-0.1967315673828125
-0.2781829833984375,0.834747314453125,-0.204071044921875
-0.2206573486328125,0.4447479248046875,0.1082000732421875
-0.210205078125,0.2649383544921875,0.3032684326171875
-0.276031494140625,0.224945068359375,0.275634765625
-0.289398193359375,0.24481201171875,0.2416534423828125
-0.33465576171875,0.3185882568359375,0.10333251953125
-0.3974761962890625,0.4066162109375,-0.0559844970703125
-0.72784423828125,0.696685791015625,-0.06414794921875
-1.4946441650390625,2.032928466796875,-0.1153564453125
-1.4617462158203125,1.6185760498046875,-0.1582183837890625
-1.3710174560546875,1.087005615234375,-0.230072021484375
-1.0537567138671875,1.04510498046875,0.0287628173828125
-0.73065185546875,0.9467620849609376,0.15887451171875
-0.46484375,0.6269683837890625,0.1568450927734375
-0.4401702880859375,0.4497222900390625,0.2422332763671875
-0.2240142822265625,0.3669586181640625,0.2868804931640625
-0.0957183837890625,0.315093994140625,0.1168670654296875
-0.1123504638671875,0.3144073486328125,-0.0169677734375
-0.152740478515625,0.4457244873046875,-0.01025390625
-0.2540283203125,0.6169281005859375,-0.015655517578125
-0.4993133544921875,1.0435333251953125,-0.0157470703125
-0.69805908203125,1.3513946533203125,-0.0786590576171875
-1.0405426025390625,1.7319488525390625,-0.1690521240234375
-1.043426513671875,1.78607177734375,-0.278472900390625
-0.8819122314453125,1.3040313720703125,-0.2815704345703125
-0.7861328125,0.803375244140625,-0.260711669921875
-0.725830078125,0.6264190673828125,-0.15234375
-0.518310546875,0.54119873046875,0.1186065673828125
-0.416259765625,0.424407958984375,0.2877044677734375
-0.4264984130859375,0.3175201416015625,0.2253570556640625
-0.4674224853515625,0.2730865478515625,0.134521484375
-0.4902191162109375,0.2574615478515625,0.08001708984375
-0.6567535400390625,0.5308685302734375,0.0222625732421875
-1.1544647216796875,1.649444580078125,-0.0596923828125
-1.3575897216796875,2.012603759765625,-0.166900634765625
-1.3137359619140625,1.621917724609375,-0.4397430419921875
-0.788970947265625,0.9275970458984376,-0.3828277587890625
-0.44415283203125,0.72979736328125,0.1246185302734375
-0.413909912109375,0.603973388671875,0.3343505859375
-0.2946014404296875,0.5415802001953125,0.1592864990234375
-0.3300933837890625,0.5255889892578125,-0.0235595703125
-0.2390289306640625,0.527313232421875,0.0177764892578125
-0.212890625,0.4809722900390625,-0.0377655029296875
-0.2260589599609375,0.576568603515625,-0.05474853515625
-0.32855224609375,0.975982666015625,-0.036773681640625
-0.523162841796875,1.457061767578125,-0.0092010498046875
-0.7952423095703125,1.883880615234375,-0.0871429443359375
-0.7586212158203125,1.571929931640625,-0.3160247802734375
-0.8631591796875,1.2550811767578125,-0.3401336669921875
-0.8585968017578125,0.93402099609375,-0.22369384765625
-0.6733245849609375,0.5817413330078125,-0.012420654296875
-0.7630767822265625,0.3283233642578125,0.229736328125
-0.749664306640625,0.2950439453125,0.2025909423828125
-0.6865692138671875,0.3425445556640625,0.134735107421875
-0.6126556396484375,0.4417877197265625,-0.0854949951171875
-0.5393218994140625,0.42425537109375,-0.2437591552734375
-0.6528167724609375,0.4239349365234375,-0.2045440673828125
-1.1162109375,1.210723876953125,-0.050140380859375
-1.215423583984375,1.5945281982421875,-0.16680908203125
-1.329803466796875,1.5059814453125,-0.3885650634765625
-1.284698486328125,0.7574462890625,-0.19781494140625
-0.9855804443359376,0.5303497314453125,0.1259613037109375
-0.5332794189453125,0.4709320068359375,0.1940155029296875
-0.368011474609375,0.3436126708984375,-0.0208282470703125
-0.32110595703125,0.294830322265625,-0.2167816162109375
-0.3370208740234375,0.2659912109375,-0.324371337890625
-0.4980926513671875,0.3454437255859375,-0.4921875
-0.448883056640625,0.6488189697265625,-0.5358123779296875
-0.3680419921875,0.7298583984375,-0.716583251953125
-0.4761962890625,0.7658843994140625,-1.519012451171875
-0.701324462890625,0.6897430419921875,-1.241455078125
-0.518341064453125,0.404144287109375,-1.1052703857421875
-0.5448760986328125,0.0433349609375,-0.73516845703125
-0.4086456298828125,0.0852508544921875,-1.1298675537109375
-0.1655731201171875,0.023895263671875,-1.4000396728515625
-0.1851043701171875,-0.2242431640625,-1.2117462158203125
-0.0125732421875,-0.2734527587890625,-1.08905029296875
0.148681640625,-0.19927978515625,-1.3195343017578125
-0.3195343017578125,-0.3968353271484375,-1.4179840087890625
0.121978759765625,-0.3928985595703125,-0.99578857421875
0.1867828369140625,-0.2822418212890625,-1.0875091552734375
0.062896728515625,-0.2762451171875,-1.0706787109375
0.0953369140625,-0.3214263916015625,-0.8668365478515625
0.10284423828125,-0.3893585205078125,-0.9809112548828124
0.077911376953125,-0.440704345703125,-0.7226715087890625
0.0559844970703125,-0.38763427734375,-0.7720794677734375
