AccelerationX,AccelerationY,AccelerationZ
0.9765625,-0.0711212158203125,-0.2018890380859375
0.975921630859375,-0.04547119140625,-0.1817474365234375
0.9500885009765624,-0.086517333984375,-0.1173248291015625
0.954437255859375,-0.099761962890625,-0.07257080078125
0.99005126953125,-0.0612335205078125,-0.05584716796875
0.970245361328125,0.0471038818359375,-0.126251220703125
0.9456024169921876,-0.0048370361328125,-0.1047821044921875
0.9945068359375,-0.07147216796875,-0.084991455078125
1.0247802734375,-0.12738037109375,-0.033477783203125
0.9870758056640624,-0.1746063232421875,0.0257568359375
1.0244903564453125,-0.1374969482421875,0.0105743408203125
1.1383819580078125,-0.1168212890625,0.0305023193359375
1.2148895263671875,-0.015594482421875,0.0098724365234375
1.3704681396484375,-0.0843963623046875,0.0298309326171875
1.2306365966796875,-0.048431396484375,0.07421875
1.0330657958984375,0.003326416015625,-0.049468994140625
0.8782958984375,0.0511322021484375,-0.120452880859375
0.933746337890625,0.0808258056640625,-0.0588226318359375
1.170745849609375,0.30914306640625,0.0176544189453125
1.174713134765625,0.5889892578125,-0.002838134765625
1.115814208984375,0.818939208984375,-0.24371337890625
0.636810302734375,0.7694549560546875,-0.03009033203125
0.280731201171875,0.802215576171875,-0.10784912109375
0.23101806640625,1.01068115234375,0.0123291015625
0.6628265380859375,1.05694580078125,0.029632568359375
1.264801025390625,1.0994110107421875,0.1919097900390625
2.13397216796875,1.20989990234375,0.467071533203125
2.233139038085937,0.8933563232421875,0.361480712890625
1.88848876953125,0.64959716796875,0.3080902099609375
1.4748077392578125,0.1568450927734375,0.3356475830078125
1.1027679443359375,-0.0560150146484375,0.2205963134765625
0.5670166015625,0.0117645263671875,0.0870819091796875
0.370147705078125,-0.1573028564453125,0.151123046875
0.4866790771484375,-0.251373291015625,0.0413360595703125
0.3473968505859375,-0.1811065673828125,-0.1380767822265625
0.4848175048828125,-0.15362548828125,-0.134918212890625
1.012786865234375,-0.1455078125,0.17303466796875
2.3502655029296875,-0.49737548828125,0.6651611328125
3.817962646484375,0.9055633544921876,0.343414306640625
2.292221069335937,1.808624267578125,0.3264923095703125
1.2889862060546875,1.734344482421875,-0.1716461181640625
0.193267822265625,1.4427947998046875,-0.2781829833984375
-0.7851104736328125,1.0422821044921875,0.0740966796875
-1.819610595703125,0.803955078125,-0.4292144775390625
-0.63623046875,0.2924957275390625,0.1985015869140625
-0.234222412109375,0.5742950439453125,0.349151611328125
0.4806976318359375,2.1128082275390625,0.533966064453125
2.835556030273437,3.891876220703125,1.7151031494140625
2.9255523681640625,3.0975494384765625,1.21868896484375
2.4068145751953125,0.9928436279296876,0.59100341796875
1.9025115966796875,-0.6334381103515625,0.5724945068359375
1.1482391357421875,-1.4881134033203125,0.3980712890625
0.854278564453125,-0.8636932373046875,-0.5719451904296875
0.8634033203125,-0.815338134765625,-0.1343994140625
1.08343505859375,-0.6907196044921875,0.119842529296875
1.0415496826171875,-0.5251922607421875,0.390777587890625
1.873870849609375,-0.3115997314453125,0.6004180908203125
3.864898681640625,0.240814208984375,1.1673431396484375
3.55804443359375,2.950790405273437,-0.01751708984375
2.160629272460937,1.2016143798828125,0.179046630859375
1.0240325927734375,1.0701141357421875,0.299468994140625
0.1174163818359375,0.874237060546875,-0.0508880615234375
-0.91546630859375,1.0953216552734375,0.0354766845703125
-1.2082977294921875,1.4028778076171875,-0.1194915771484375
-0.901397705078125,1.7901153564453125,-0.4908599853515625
0.19805908203125,2.359375,0.0388946533203125
1.208770751953125,3.7250823974609375,1.2728424072265625
3.103256225585937,3.913238525390625,1.683258056640625
4.06103515625,3.3052978515625,1.082000732421875
3.4469451904296875,0.632080078125,0.8414459228515625
1.9952392578125,-1.1068878173828125,1.17010498046875
1.20916748046875,-1.4155731201171875,0.1569366455078125
1.09368896484375,-1.34112548828125,0.249755859375
1.329071044921875,-0.988800048828125,-0.0778961181640625
1.33245849609375,-0.671478271484375,0.47149658203125
1.8536376953125,-0.1136474609375,-0.2733306884765625
2.5024871826171875,0.587677001953125,-0.2572021484375
4.485107421875,3.5914764404296875,-0.0878143310546875
2.8582305908203125,3.019744873046875,-0.041778564453125
0.6773529052734375,1.834075927734375,0.119537353515625
-0.645721435546875,1.5617218017578125,0.179229736328125
-1.5277099609375,1.3993988037109375,0.2589874267578125
-2.210189819335937,1.3304290771484375,0.3217620849609375
-1.1588287353515625,1.0393218994140625,0.5636749267578125
-0.058868408203125,1.6298980712890625,1.01849365234375
2.2817840576171875,3.175811767578125,0.821014404296875
3.5615234375,4.039154052734375,1.14013671875
2.3076324462890625,1.4806976318359375,0.3434295654296875
1.297332763671875,0.0706787109375,0.567901611328125
0.8741302490234375,-0.8038482666015625,0.349395751953125
0.687744140625,-0.86505126953125,0.394256591796875
0.8246612548828125,-0.646942138671875,0.2839202880859375
1.26055908203125,-0.7890777587890625,0.006927490234375
1.5880889892578125,-0.145904541015625,0.1463623046875
1.4373931884765625,-0.314208984375,0.1725921630859375
3.5105438232421875,0.7676544189453125,1.0538177490234375
3.930908203125,3.820587158203125,1.20550537109375
1.386444091796875,2.3566436767578125,-0.0260772705078125
0.3845062255859375,1.1876373291015625,-0.2423248291015625
-0.2125701904296875,0.5803070068359375,0.0815887451171875
-1.3299713134765625,0.2379608154296875,0.34326171875
-1.48187255859375,0.2361297607421875,0.0133209228515625
-1.5355682373046875,0.8309326171875,0.3956298828125
-1.0806427001953125,1.717315673828125,0.490997314453125
-0.4457550048828125,4.24932861328125,1.7998809814453125
1.345458984375,5.498748779296875,1.4303436279296875
2.13726806640625,4.1268157958984375,1.48785400390625
2.71514892578125,1.4688568115234375,0.4487762451171875
2.110595703125,-0.2154083251953125,0.63037109375
1.4918670654296875,-0.95782470703125,0.0032958984375
1.58270263671875,-0.97357177734375,0.292572021484375
1.709930419921875,-1.0891571044921875,0.2420806884765625
1.7009124755859375,-0.6300506591796875,0.3022003173828125
1.986114501953125,0.070404052734375,0.1348876953125
3.666824340820313,2.9732818603515625,0.601226806640625
2.7373809814453125,4.9979248046875,1.6376953125
0.8544769287109375,3.4330291748046875,0.906158447265625
0.1215667724609375,1.56439208984375,0.2627716064453125
-0.38299560546875,0.8617401123046875,0.27349853515625
-0.677154541015625,0.538543701171875,0.3139801025390625
-1.3268890380859375,0.2991790771484375,0.404083251953125
-1.6627960205078125,0.220550537109375,0.725067138671875
-1.1397247314453125,0.860076904296875,0.7093963623046875
-0.399566650390625,2.215805053710937,1.3553466796875
0.93035888671875,2.906112670898437,2.1372222900390625
1.6876678466796875,3.702239990234375,2.34735107421875
2.1384735107421875,1.9091339111328125,0.803680419921875
1.1652069091796875,0.645782470703125,0.149627685546875
0.7588043212890625,0.014556884765625,0.1797943115234375
1.031158447265625,-0.5359039306640625,-0.179351806640625
1.370880126953125,-0.6627960205078125,-0.1672210693359375
1.2298583984375,-0.843048095703125,0.6046295166015625
1.417633056640625,-0.40509033203125,0.8926544189453125
1.9000091552734373,1.4470672607421875,0.890625
1.85406494140625,3.096786499023437,3.39501953125
0.0285491943359375,3.055023193359375,2.130889892578125
0.139892578125,1.620208740234375,0.68121337890625
-0.2834930419921875,1.0500946044921875,0.3004150390625
-0.6380157470703125,0.4519500732421875,0.5018157958984375
-1.74029541015625,-0.06622314453125,0.7151031494140625
-1.6630096435546875,-0.164947509765625,0.3372039794921875
-1.2225494384765625,0.93841552734375,0.66815185546875
-0.737274169921875,2.5162506103515625,1.3439178466796875
-0.312957763671875,3.16241455078125,2.119873046875
0.485260009765625,2.9267120361328125,1.6607513427734375
1.9249420166015625,1.5876617431640625,0.6186981201171875
1.42486572265625,0.2838592529296875,0.2282562255859375
0.947265625,0.032867431640625,0.13726806640625
1.1719512939453125,-0.3217926025390625,-0.227508544921875
1.2450103759765625,-0.529205322265625,-0.1125946044921875
1.1461029052734375,-0.3365936279296875,0.279205322265625
1.1862640380859375,-0.16558837890625,0.8740997314453125
2.3946990966796875,1.91180419921875,1.061370849609375
2.204132080078125,2.901596069335937,2.496795654296875
0.4995574951171875,3.899505615234375,2.2332916259765625
0.2338104248046875,1.3905792236328125,0.12811279296875
-0.54962158203125,0.9875640869140624,-0.0325927734375
-1.2136688232421875,0.613861083984375,0.0714263916015625
-1.68902587890625,0.012451171875,0.3285675048828125
-1.5589599609375,0.345733642578125,0.6008148193359375
-1.1061248779296875,1.7313079833984375,0.9140625
0.2334747314453125,2.9104766845703125,1.671112060546875
0.2525482177734375,3.350341796875,1.73291015625
0.8893890380859375,2.8220367431640625,1.508544921875
1.965606689453125,1.04449462890625,0.5125579833984375
1.5365447998046875,-0.292755126953125,0.5951385498046875
1.1587066650390625,-0.9418792724609376,-0.0233612060546875
1.3907318115234375,-0.8734893798828125,-0.0107574462890625
1.42572021484375,-0.8723602294921875,0.260650634765625
1.13543701171875,-0.4305877685546875,0.4236297607421875
1.513336181640625,-0.367919921875,0.6517333984375
5.5230712890625,3.581756591796875,1.9615478515625
2.5349884033203125,4.7208404541015625,1.7945709228515625
1.0482635498046875,1.8914794921875,0.5759735107421875
-0.2257232666015625,1.2494964599609375,0.3963623046875
-2.260284423828125,1.275726318359375,0.654052734375
-2.0096893310546875,0.5085601806640625,0.341064453125
-1.99395751953125,1.14361572265625,0.8724212646484375
-0.701629638671875,1.884124755859375,0.6177825927734375
0.945281982421875,3.4639892578125,1.3311767578125
1.2961883544921875,3.671310424804688,2.260284423828125
2.3835601806640625,2.490219116210937,1.791748046875
2.2253570556640625,-0.0593109130859375,0.818511962890625
0.9278106689453124,-0.524139404296875,0.304840087890625
1.1002044677734375,-0.62860107421875,0.0546722412109375
1.5328216552734375,-0.7283477783203125,-0.1045379638671875
1.423614501953125,-0.36529541015625,-0.382965087890625
1.07061767578125,-0.179290771484375,0.29937744140625
1.63336181640625,-0.0025787353515625,0.60321044921875
2.9038238525390625,2.5600738525390625,2.0847320556640625
1.99066162109375,4.028472900390625,1.89532470703125
0.6588134765625,2.108062744140625,0.7879180908203125
0.0819549560546875,1.2230682373046875,0.5016021728515625
-1.157745361328125,1.055389404296875,0.530059814453125
-1.7699127197265625,0.8715667724609375,0.4274749755859375
-1.8173980712890625,0.846527099609375,0.507080078125
-1.094696044921875,1.066070556640625,0.529541015625
0.10150146484375,2.9759979248046875,0.9218597412109376
-0.0156402587890625,3.3226776123046875,1.5369873046875
1.2239227294921875,3.070663452148437,1.3632965087890625
1.7440032958984375,1.2152862548828125,0.403289794921875
1.20355224609375,0.087677001953125,0.3436279296875
1.0124053955078125,-0.6488494873046875,0.3192596435546875
1.4876556396484375,-1.058502197265625,0.15423583984375
1.4608917236328125,-0.7944488525390625,0.199798583984375
1.401153564453125,-0.373992919921875,0.381561279296875
1.6858367919921875,0.82171630859375,0.829681396484375
2.643661499023437,2.6852264404296875,1.53607177734375
2.407806396484375,4.767135620117188,2.256988525390625
0.6614532470703125,2.3871002197265625,0.4629669189453125
-0.252105712890625,1.1822967529296875,0.13232421875
-0.9157562255859376,0.7102813720703125,0.4906158447265625
-1.687530517578125,0.2486572265625,0.636871337890625
-1.7102203369140625,0.2029876708984375,0.98394775390625
-1.3463897705078125,0.80548095703125,0.8570404052734375
0.0534515380859375,3.4897613525390625,0.753509521484375
1.2319183349609375,3.309188842773437,1.686676025390625
2.029327392578125,4.1641387939453125,0.75946044921875
1.7462158203125,1.55633544921875,0.7772216796875
1.1436920166015625,0.0438232421875,0.8197784423828125
1.0522003173828125,-1.0194091796875,-0.3155975341796875
1.5730133056640625,-1.150146484375,0.0436248779296875
1.3321990966796875,-1.2362060546875,0.2136077880859375
1.0892181396484375,-1.059326171875,0.6476898193359375
1.2443389892578125,-0.4696807861328125,0.8062591552734375
2.7003631591796875,0.9094085693359376,1.106903076171875
3.9292144775390634,4.02874755859375,1.8457794189453125
2.0758056640625,3.662399291992188,0.972503662109375
0.801666259765625,1.6277618408203125,0.1338043212890625
-0.9493865966796876,1.5372772216796875,0.5936737060546875
-1.82666015625,0.921417236328125,0.73468017578125
-1.8124542236328125,0.7362518310546875,0.15777587890625
-1.502532958984375,0.899017333984375,0.147857666015625
-0.69146728515625,0.8696746826171875,0.35772705078125
0.3120880126953125,3.24462890625,1.0929718017578125
0.8644561767578125,3.325164794921875,1.8919525146484373
2.1305694580078125,4.2559814453125,1.5730743408203125
1.6525421142578125,1.54217529296875,0.6576995849609375
0.885345458984375,0.094329833984375,0.6088409423828125
1.9387359619140625,-1.94677734375,0.318359375
1.473419189453125,-1.5205078125,0.1166534423828125
1.7069854736328125,-1.387847900390625,0.2066497802734375
1.139617919921875,-0.5608062744140625,0.129730224609375
1.3344573974609375,-0.08599853515625,0.24755859375
4.330047607421875,3.00067138671875,1.4088134765625
2.956451416015625,4.8781280517578125,2.9690399169921875
1.5607147216796875,2.158203125,0.5580902099609375
0.584014892578125,0.76043701171875,0.4518280029296875
-0.0572052001953125,0.2983245849609375,0.8017120361328125
-1.0611114501953125,0.3088226318359375,0.733367919921875
-1.6895904541015625,0.448944091796875,1.243255615234375
-2.085357666015625,0.5186920166015625,1.1570281982421875
-1.0445556640625,0.722198486328125,0.105682373046875
0.236572265625,2.534423828125,0.96600341796875
2.0291900634765625,4.164520263671875,2.607879638671875
3.4717559814453125,3.607009887695313,2.20709228515625
2.031097412109375,0.900238037109375,0.6530914306640625
1.47503662109375,-0.21990966796875,0.46185302734375
1.1974334716796875,-2.099349975585937,-0.278167724609375
0.8514556884765625,-2.141876220703125,-0.4580841064453125
1.24530029296875,-1.9136199951171875,0.6845855712890625
1.63165283203125,-1.262237548828125,0.9275360107421876
2.805038452148437,0.1096038818359375,0.8152313232421875
4.693756103515625,2.60833740234375,1.23223876953125
3.5301055908203125,3.2836456298828125,1.7441864013671875
1.47601318359375,1.91802978515625,0.3255157470703125
0.7755126953125,0.888427734375,0.2790374755859375
-0.0496063232421875,0.538543701171875,0.5949249267578125
-1.3428497314453125,0.731536865234375,0.553009033203125
-1.4188232421875,0.5303497314453125,0.517913818359375
-1.2146453857421875,0.7836761474609375,-0.2763214111328125
-0.706756591796875,1.0277099609375,-0.04449462890625
0.1502227783203125,2.4951171875,0.8527374267578125
1.133819580078125,3.702789306640625,2.134017944335937
3.07171630859375,3.95849609375,2.2270660400390625
2.5440216064453125,0.6799774169921875,0.7947540283203125
1.718963623046875,-1.4649658203125,0.8824005126953125
0.976715087890625,-2.100616455078125,-0.9394989013671876
1.6483001708984375,-1.842529296875,-0.337432861328125
1.41094970703125,-1.47900390625,0.5764007568359375
1.88653564453125,-0.8210601806640625,0.1960296630859375
2.3714599609375,0.1301116943359375,0.511962890625
5.955535888671875,2.4706573486328125,1.862518310546875
2.970001220703125,2.718368530273437,1.1650848388671875
1.1299285888671875,1.1996917724609375,0.314422607421875
0.2586517333984375,0.996856689453125,0.3489532470703125
-0.4831695556640625,1.024139404296875,0.343048095703125
-1.3223114013671875,1.03753662109375,0.0088653564453125
-1.2386932373046875,0.7764739990234375,0.2017974853515625
-1.0302581787109375,1.38153076171875,0.3424530029296875
0.3954925537109375,2.845062255859375,0.7693023681640625
1.7130584716796875,3.332992553710937,2.369720458984375
3.590057373046875,4.3295440673828125,2.706390380859375
2.993011474609375,2.020126342773437,1.17962646484375
1.8517303466796875,0.2913360595703125,0.7263336181640625
1.61761474609375,-1.6467437744140625,-0.345733642578125
1.52716064453125,-2.6174468994140625,0.446075439453125
1.444671630859375,-1.9967041015625,0.7593994140625
1.499603271484375,-1.133148193359375,0.486602783203125
1.7553863525390625,-0.367767333984375,0.4142303466796875
4.782150268554688,1.6403350830078125,1.4679107666015625
3.6932525634765625,5.029052734375,2.8494415283203125
2.194549560546875,2.814361572265625,0.7737274169921875
0.626922607421875,1.316375732421875,0.3956298828125
0.0097808837890625,0.6936492919921875,0.3890533447265625
-0.5763092041015625,0.5617828369140625,0.4239349365234375
-2.357574462890625,1.059417724609375,0.919189453125
-1.7191619873046875,1.2014312744140625,0.447052001953125
-0.808441162109375,2.3834686279296875,0.28863525390625
0.235809326171875,2.922576904296875,0.941375732421875
1.636016845703125,4.6015167236328125,1.378204345703125
3.1104888916015625,2.738006591796875,0.8819122314453125
1.945556640625,0.97259521484375,0.2641448974609375
1.051605224609375,0.1616668701171875,0.116729736328125
1.1874847412109375,-0.220489501953125,0.45611572265625
1.6172332763671875,-1.0793914794921875,0.0244903564453125
1.2428436279296875,-1.0469818115234375,0.6473388671875
1.2075042724609375,-1.0888671875,0.4838104248046875
0.7737884521484375,-0.3984375,-0.448211669921875
2.0535125732421875,0.6634063720703125,-0.3363800048828125
3.797698974609375,4.943267822265625,0.74371337890625
2.2035369873046875,4.46490478515625,0.911834716796875
-0.05804443359375,2.474960327148437,-0.2364654541015625
-0.3114776611328125,1.2389068603515625,0.3951263427734375
-1.474609375,1.0795745849609375,0.508148193359375
-1.4488677978515625,0.6702880859375,0.3152618408203125
-1.0367889404296875,1.06280517578125,-0.2612762451171875
-0.649200439453125,1.1757965087890625,0.198760986328125
-0.359619140625,2.1276397705078125,1.1321563720703125
0.5129547119140625,4.6329498291015625,2.442474365234375
2.7064361572265625,2.937774658203125,1.6702423095703125
1.5222930908203125,1.2846832275390625,0.910430908203125
1.1280364990234375,0.2953338623046875,0.3625335693359375
1.4476776123046875,-0.07794189453125,0.0723724365234375
1.93743896484375,-0.758575439453125,-0.3245849609375
1.63275146484375,-0.9421844482421876,-0.1927642822265625
1.0099029541015625,-0.8158111572265625,0.64263916015625
0.6314544677734375,-1.3376922607421875,0.4288482666015625
0.9093017578125,-0.177825927734375,-0.355712890625
3.626907348632813,3.7890625,2.196517944335937
2.316650390625,5.2933349609375,1.707061767578125
0.5122222900390625,2.7742919921875,0.8350830078125
0.360076904296875,1.5344390869140625,-0.200775146484375
-0.3966522216796875,0.947418212890625,-0.189849853515625
-1.5649871826171875,1.304840087890625,0.18780517578125
-2.419158935546875,0.9585113525390624,1.5985870361328125
-1.0091705322265625,1.5430755615234375,0.4618072509765625
0.7508392333984375,2.261199951171875,1.6879119873046875
0.5903778076171875,3.1267852783203125,2.3026123046875
2.124969482421875,2.729721069335937,2.4727020263671875
2.2730865478515625,0.3095245361328125,1.0941314697265625
0.6673126220703125,0.5767822265625,0.390594482421875
0.6485748291015625,0.165679931640625,0.252685546875
0.9441070556640624,-0.38250732421875,0.082855224609375
0.6777801513671875,-0.655792236328125,0.2462615966796875
0.6638946533203125,-0.6222991943359375,0.404571533203125
0.7677764892578125,-0.4995880126953125,0.1234588623046875
1.0463104248046875,-0.147918701171875,0.0969696044921875
2.67218017578125,1.554595947265625,0.844879150390625
2.3247833251953125,4.643096923828125,0.8586273193359375
1.000030517578125,2.4003448486328125,0.76885986328125
0.6627044677734375,1.5465240478515625,0.4486236572265625
0.5187225341796875,1.0731048583984375,0.5666961669921875
-0.4130706787109375,0.8126220703125,0.8960113525390625
-1.9113922119140625,0.8013458251953125,0.80438232421875
-2.523712158203125,0.721710205078125,1.1948699951171875
-1.307861328125,1.1938323974609375,1.1746826171875
0.1953277587890625,2.914535522460937,1.6076507568359375
0.9969329833984376,4.3597564697265625,3.1070709228515625
2.9636688232421875,3.5007781982421875,2.57476806640625
2.4951629638671875,0.609344482421875,0.911712646484375
1.190460205078125,-0.20465087890625,0.30926513671875
0.863677978515625,-0.6740264892578125,-0.2310028076171875
1.0613250732421875,-0.7808990478515625,-0.011383056640625
1.1142730712890625,-0.8717803955078125,-0.191192626953125
1.00018310546875,-0.679534912109375,0.187469482421875
1.031158447265625,-0.37322998046875,0.1464080810546875
2.370697021484375,0.89801025390625,1.3480377197265625
4.515914916992188,3.983352661132813,2.785858154296875
1.64208984375,2.7985076904296875,1.322784423828125
0.6963653564453125,1.698760986328125,0.2139739990234375
-0.136138916015625,1.208343505859375,0.0995941162109375
-1.54296875,1.0573272705078125,0.188873291015625
-1.09698486328125,1.1046905517578125,0.554656982421875
-1.24041748046875,1.7274169921875,0.9395904541015624
-0.476531982421875,1.879730224609375,1.0040283203125
0.5056915283203125,2.4558868408203125,1.446990966796875
1.519866943359375,2.78375244140625,2.1253204345703125
3.641311645507813,2.4101104736328125,1.5849761962890625
1.826690673828125,0.30950927734375,0.9618682861328124
1.24884033203125,-0.0498046875,0.4085845947265625
1.0907440185546875,-0.366119384765625,-0.037109375
1.4072418212890625,-0.7053375244140625,-0.07318115234375
1.4564666748046875,-0.70025634765625,-0.1663055419921875
0.862030029296875,-0.689117431640625,-0.145599365234375
0.550384521484375,-1.0666656494140625,-0.1771087646484375
1.2492218017578125,-0.6653900146484375,0.5965423583984375
5.183624267578125,2.83837890625,1.3127593994140625
2.52081298828125,4.6917724609375,1.6669769287109375
1.0005340576171875,1.756256103515625,0.1881103515625
0.38433837890625,1.1248779296875,0.4673614501953125
-0.602691650390625,0.8304290771484375,0.708465576171875
-1.46429443359375,0.9454803466796876,0.7847900390625
-1.015899658203125,1.44866943359375,0.7878875732421875
-0.8424530029296875,1.3009185791015625,0.3986358642578125
0.104522705078125,1.6464996337890625,0.88543701171875
0.6139678955078125,2.261962890625,1.7819976806640625
1.283782958984375,3.629638671875,1.51361083984375
2.3137969970703125,2.4155426025390625,1.172882080078125
1.4648284912109375,0.7584228515625,0.301788330078125
1.0156402587890625,-0.241241455078125,0.0426483154296875
0.9961395263671876,-0.6800689697265625,-0.1300811767578125
0.8935394287109375,-0.6463623046875,-0.0130157470703125
1.2608489990234375,-0.8760833740234375,0.3621063232421875
1.070953369140625,-0.7044677734375,0.750518798828125
1.22998046875,-0.4477996826171875,0.4463043212890625
2.4922027587890625,1.2019195556640625,0.9415740966796876
3.201416015625,4.846359252929688,1.53253173828125
1.14178466796875,3.4324951171875,0.6553497314453125
0.2121429443359375,1.6673126220703125,0.34161376953125
-0.4238433837890625,1.305572509765625,0.2255706787109375
-0.8819427490234375,0.913909912109375,0.3199310302734375
-1.574066162109375,0.7266693115234375,0.087371826171875
-1.2876129150390625,0.9695892333984376,0.5543212890625
-0.6011962890625,1.750457763671875,0.5719757080078125
0.4934844970703125,3.0773162841796875,1.3913726806640625
0.4700164794921875,4.04217529296875,2.62811279296875
2.118865966796875,3.0404205322265625,1.535003662109375
2.3111572265625,0.9308319091796876,0.76446533203125
1.3797607421875,-0.3400115966796875,0.486297607421875
1.120208740234375,-1.001312255859375,0.25640869140625
0.968505859375,-0.8446502685546875,0.1111602783203125
1.5001678466796875,-1.012969970703125,0.2988739013671875
1.4609375,-0.60467529296875,0.53692626953125
1.502166748046875,-0.310821533203125,0.203826904296875
3.794036865234375,1.7758636474609375,0.885223388671875
3.0943145751953125,3.9598236083984375,2.02313232421875
1.27679443359375,3.426742553710937,0.9627227783203124
0.484649658203125,1.9275665283203125,0.385162353515625
-0.535919189453125,1.3070220947265625,0.3502349853515625
-1.4000091552734375,1.101531982421875,0.5337066650390625
-1.8092498779296875,1.1403350830078125,0.2516632080078125
-1.9615936279296875,0.980438232421875,1.4584197998046875
-1.2734527587890625,1.70556640625,2.428497314453125
2.986297607421875,6.226104736328125,2.91455078125
3.541488647460937,4.2578887939453125,3.340682983398437
4.3919830322265625,1.1549530029296875,2.0849151611328125
2.423919677734375,-1.1064453125,1.3017425537109375
1.952880859375,-2.3791656494140625,0.5045166015625
2.115463256835937,-1.9684906005859373,-0.484039306640625
1.7913055419921875,-1.2223358154296875,0.11993408203125
1.76837158203125,-1.0182037353515625,0.279388427734375
4.2305755615234375,1.4202880859375,1.1256866455078125
4.3055419921875,5.35675048828125,2.5529327392578125
0.81463623046875,4.0182952880859375,1.1877593994140625
0.0640411376953125,1.6426544189453125,0.1701507568359375
-2.357040405273437,1.01336669921875,0.2448272705078125
-1.94354248046875,-0.042083740234375,0.385101318359375
-1.94024658203125,0.7689361572265625,0.7138519287109375
-0.7609405517578125,2.2139129638671875,0.8126220703125
1.8854217529296875,6.620040893554688,3.1279754638671875
3.03289794921875,5.0068359375,2.658416748046875
3.608306884765625,1.0671539306640625,2.474472045898437
2.912933349609375,-3.5453643798828125,2.230621337890625
3.4128570556640625,-3.738815307617188,1.061065673828125
2.4853973388671875,-2.0880126953125,1.0557403564453125
2.7440948486328125,-0.631317138671875,0.184234619140625
6.155853271484375,5.7867584228515625,0.957733154296875
1.5226593017578125,7.7942047119140625,2.727569580078125
1.247802734375,2.24603271484375,0.2843170166015625
-0.05255126953125,0.581085205078125,0.324951171875
-1.3431243896484375,-0.681121826171875,1.1309051513671875
-3.0045318603515625,0.316070556640625,0.774505615234375
-2.060791015625,1.37420654296875,0.59747314453125
-0.717041015625,4.3160400390625,1.4975128173828125
1.5829315185546875,4.258270263671875,2.1631622314453125
2.366455078125,2.892318725585937,1.3010101318359375
3.151107788085937,0.0326690673828125,1.090728759765625
1.252593994140625,-1.9023284912109373,0.6996917724609375
1.6344451904296875,-1.397674560546875,0.4257354736328125
2.0498504638671875,-1.191314697265625,0.986602783203125
1.921142578125,-0.1010284423828125,1.087188720703125
3.7054290771484375,2.344757080078125,1.436981201171875
2.75408935546875,4.74517822265625,2.58367919921875
0.6797332763671875,2.7213592529296875,0.5523529052734375
-0.328643798828125,1.539886474609375,0.8902587890625
-2.6328277587890625,1.2941741943359375,1.4958953857421875
-3.049285888671875,0.4055938720703125,1.06927490234375
-2.1118621826171875,1.4461822509765625,1.1545562744140625
-0.592437744140625,2.9600982666015625,2.255096435546875
2.195343017578125,4.511474609375,2.63726806640625
3.1136474609375,2.939605712890625,2.434539794921875
3.8238525390625,0.1364593505859375,0.663848876953125
2.280914306640625,-3.03826904296875,0.7417144775390625
1.6219940185546875,-2.482818603515625,0.3764190673828125
2.017059326171875,-1.8987274169921875,1.0767059326171875
2.2489166259765625,-0.7085418701171875,0.763336181640625
6.387603759765625,2.4805145263671875,1.165435791015625
2.768798828125,5.070083618164063,2.83758544921875
1.22686767578125,2.1419677734375,0.676910400390625
0.451507568359375,0.993743896484375,0.320526123046875
-0.6226043701171875,0.6681365966796875,0.8482513427734375
-2.570907592773437,0.8853607177734375,0.803741455078125
-3.09112548828125,2.37017822265625,0.7526092529296875
-1.8822479248046875,1.6087493896484375,-0.0714111328125
0.4993133544921875,4.144317626953125,1.5906524658203125
3.110595703125,4.910614013671875,3.3194580078125
3.40576171875,1.4477996826171875,1.8699493408203125
2.8988494873046875,-0.67138671875,1.5865478515625
1.9171905517578125,-2.6629638671875,0.129302978515625
1.4592437744140625,-2.6575927734375,0.9495391845703124
1.8502960205078125,-1.9833984375,1.0506134033203125
2.191650390625,-1.2456512451171875,1.27362060546875
3.96112060546875,0.2171478271484375,1.2222900390625
5.40020751953125,3.813385009765625,2.018905639648437
3.3994598388671875,3.0596466064453125,0.987030029296875
1.1765594482421875,1.773040771484375,0.5955352783203125
-0.636322021484375,1.5932769775390625,0.755157470703125
-2.063217163085937,0.7814178466796875,1.0655059814453125
-3.0229034423828125,0.2885284423828125,1.38800048828125
-2.518905639648437,0.8815155029296875,1.566192626953125
-0.7746429443359375,4.024459838867188,0.12396240234375
1.863372802734375,5.114532470703125,2.91986083984375
3.6540679931640634,3.7221832275390634,2.416610717773437
3.7754974365234375,0.9980621337890624,1.1178741455078125
1.9697113037109373,-2.4553680419921875,0.259002685546875
1.551116943359375,-2.953125,0.4675750732421875
2.049423217773437,-1.411529541015625,1.192413330078125
1.8524932861328125,-0.595916748046875,1.1524200439453125
3.376571655273437,1.0306396484375,0.8590240478515625
2.5011749267578125,4.066940307617188,2.43426513671875
2.905303955078125,4.318267822265625,2.1025543212890625
0.75408935546875,1.968963623046875,0.6015625
-1.24066162109375,1.1544342041015625,-0.12335205078125
-1.79693603515625,0.7163543701171875,-0.0683135986328125
-2.22222900390625,0.730712890625,0.43695068359375
-1.6985931396484375,1.0274505615234375,0.3901824951171875
-0.3763275146484375,2.7363739013671875,0.6548614501953125
0.69793701171875,2.9655303955078125,1.8404541015625
1.938079833984375,3.873138427734375,2.72149658203125
2.6232147216796875,1.9730987548828125,1.496917724609375
1.8859710693359373,-0.2449188232421875,0.7703399658203125
1.0912628173828125,-1.5749359130859375,0.46258544921875
1.6870574951171875,-2.336700439453125,0.121612548828125
1.676116943359375,-1.9405517578125,0.59918212890625
2.044921875,-0.5771942138671875,1.09832763671875
3.2406158447265625,0.8229827880859375,1.29150390625
2.9989471435546875,3.3542022705078125,2.5484771728515625
2.193206787109375,3.974929809570313,1.788238525390625
1.10198974609375,1.6137847900390625,0.2198638916015625
0.2646026611328125,0.71234130859375,0.4574737548828125
-0.743255615234375,0.4446563720703125,0.8995513916015625
-2.282806396484375,1.0969085693359375,1.1081085205078125
-1.9532928466796875,1.840545654296875,1.0218505859375
-1.0040283203125,2.46282958984375,0.1576080322265625
0.26287841796875,2.378524780273437,1.0656585693359375
2.62420654296875,4.4798736572265625,2.6856842041015625
3.23345947265625,2.4492340087890625,1.2017974853515625
1.698455810546875,0.1037139892578125,0.6757659912109375
1.199920654296875,-2.18438720703125,0.4773712158203125
1.380950927734375,-2.59405517578125,0.019500732421875
2.049652099609375,-2.16400146484375,1.0506744384765625
1.3548126220703125,-1.201507568359375,1.102996826171875
2.1668853759765625,-0.3896636962890625,0.951080322265625
5.065719604492188,2.193099975585937,1.5760345458984375
3.60626220703125,4.141448974609375,3.3531036376953125
1.7842254638671875,2.173065185546875,0.6689453125
0.6005859375,0.794769287109375,0.119140625
-0.4293212890625,0.5507049560546875,0.4312744140625
-2.4344024658203125,0.6904754638671875,0.7563018798828125
-2.0263214111328125,1.0013275146484375,1.4279022216796875
-1.5631256103515625,1.5838623046875,1.206695556640625
-0.0053253173828125,2.6693878173828125,1.595306396484375
2.03057861328125,2.5562896728515625,2.000839233398437
1.0073394775390625,4.0370941162109375,2.495269775390625
2.404296875,1.6090545654296875,2.1471710205078125
3.1490936279296875,0.0399627685546875,0.20538330078125
1.684906005859375,-1.23583984375,-0.215484619140625
1.7526397705078125,-1.8906097412109373,-0.3195343017578125
1.313446044921875,-1.4293365478515625,0.980560302734375
1.5205841064453125,-1.091552734375,0.884979248046875
2.067535400390625,-0.15399169921875,0.9674224853515624
5.9617462158203125,2.5221099853515625,1.793365478515625
2.396881103515625,5.1810150146484375,2.7913360595703125
1.4890899658203125,2.40789794921875,0.9810943603515624
0.0587921142578125,1.49310302734375,0.5644073486328125
-1.8516845703125,1.71136474609375,0.951995849609375
-1.9257659912109373,1.21197509765625,0.932769775390625
-1.351043701171875,1.3613433837890625,0.776580810546875
-0.2461395263671875,1.9994964599609373,0.5460662841796875
1.0794830322265625,3.0437469482421875,1.651397705078125
1.1208038330078125,3.947067260742188,2.745513916015625
2.120956420898437,1.594268798828125,1.2467498779296875
1.806549072265625,-0.4775238037109375,0.4706878662109375
0.9445648193359376,-2.169784545898437,0.0902557373046875
1.6769866943359375,-2.069793701171875,0.657073974609375
1.96112060546875,-1.5865325927734375,0.72503662109375
2.00286865234375,-1.22039794921875,1.1834716796875
2.334213256835937,-0.315216064453125,1.1568450927734375
3.8076171875,1.1461334228515625,1.1403961181640625
4.816329956054688,3.0393218994140625,1.961639404296875
2.503387451171875,2.8508758544921875,0.9783782958984376
1.15325927734375,1.529571533203125,0.21527099609375
0.2637939453125,0.9333038330078124,0.6241302490234375
-1.24542236328125,1.288299560546875,1.21966552734375
-2.427215576171875,1.0772247314453125,1.6739501953125
-1.9955291748046875,1.1284637451171875,0.8331451416015625
-0.356048583984375,1.5886688232421875,0.9284210205078124
1.200927734375,2.5992584228515625,1.7608184814453125
1.353485107421875,3.6896820068359375,2.4250030517578125
2.17864990234375,1.048675537109375,1.764373779296875
2.1182861328125,-0.2361297607421875,0.315948486328125
0.810882568359375,-2.6059112548828125,-0.307769775390625
1.2295989990234375,-2.338165283203125,0.3889923095703125
1.94036865234375,-1.4606170654296875,1.17669677734375
2.22052001953125,-0.66973876953125,0.7639617919921875
3.3865509033203125,0.9487762451171876,0.9012908935546876
3.1746368408203125,2.64337158203125,1.5006866455078125
3.821945190429688,2.97235107421875,1.712066650390625
0.9972686767578124,1.8169708251953125,1.1468963623046875
0.0143585205078125,1.0015869140625,0.7994232177734375
-1.3198089599609375,1.177215576171875,0.297119140625
-1.065673828125,0.8094482421875,0.1511383056640625
-1.7921905517578125,1.1362762451171875,0.4439697265625
-1.052764892578125,1.4670562744140625,0.1154632568359375
0.1493682861328125,2.2665252685546875,0.2252960205078125
1.147674560546875,2.380767822265625,1.7431640625
2.7797393798828125,3.333251953125,2.382720947265625
2.446075439453125,0.91473388671875,1.0420074462890625
1.251708984375,0.14593505859375,0.6811370849609375
1.0187835693359375,-0.6523284912109375,-0.0791015625
1.14813232421875,-1.0341796875,0.333709716796875
1.2919769287109375,-1.200347900390625,0.6802978515625
1.1614532470703125,-1.49188232421875,1.3531341552734375
1.062530517578125,-1.2110595703125,1.239532470703125
1.1409454345703125,-0.3841705322265625,0.7838287353515625
3.623260498046875,0.8426055908203125,1.49713134765625
4.4980010986328125,4.916961669921875,3.931243896484375
1.3921661376953125,3.105438232421875,0.5651397705078125
0.48193359375,1.22821044921875,0.1510772705078125
-0.621185302734375,1.0961456298828125,0.587677001953125
-1.3990631103515625,0.8336029052734375,0.5587005615234375
-1.9302978515625,0.899078369140625,0.77398681640625
-1.470855712890625,1.575775146484375,0.5346832275390625
-0.39398193359375,1.7574005126953125,0.42938232421875
0.7736053466796875,1.8510589599609373,1.7140655517578125
2.120513916015625,3.40484619140625,3.2212066650390625
3.3792266845703125,1.06298828125,1.85736083984375
1.3933868408203125,0.513885498046875,0.958587646484375
0.918701171875,-0.109466552734375,0.1983642578125
0.9602813720703124,-0.3125,0.275787353515625
1.2464599609375,-1.015472412109375,0.0097503662109375
1.3968963623046875,-0.79522705078125,0.2774810791015625
1.3227691650390625,-1.17510986328125,0.77044677734375
0.9204254150390624,-0.6203460693359375,0.670166015625
1.45947265625,0.5699615478515625,0.8033599853515625
3.38311767578125,2.53289794921875,2.538543701171875
0.6718292236328125,4.3126983642578125,2.230010986328125
0.963409423828125,2.108871459960937,0.61798095703125
0.04266357421875,1.1179351806640625,-0.0564422607421875
-0.248291015625,0.6556396484375,-0.138580322265625
-0.44622802734375,0.555938720703125,0.1284332275390625
-1.107147216796875,0.3639373779296875,0.381561279296875
-1.734375,0.1448974609375,0.3763885498046875
-1.378875732421875,0.4860992431640625,0.214996337890625
-0.4850311279296875,1.307037353515625,0.540191650390625
0.117401123046875,4.270065307617188,1.7544403076171875
4.068359375,2.951080322265625,3.2810211181640625
2.0560455322265625,1.6850738525390625,0.9282379150390624
1.1121673583984375,0.067047119140625,0.362152099609375
1.0176239013671875,-0.392547607421875,0.1081085205078125
0.85400390625,-0.3280181884765625,-0.3305511474609375
0.9038848876953124,-0.4422149658203125,-0.1474456787109375
0.96624755859375,-0.56085205078125,0.242889404296875
0.8032379150390625,-0.757537841796875,0.533172607421875
0.6669158935546875,-0.42138671875,0.3391571044921875
1.218658447265625,0.5579071044921875,0.2784881591796875
2.6156768798828125,3.6947021484375,2.35406494140625
0.1395721435546875,4.0475006103515625,2.1975555419921875
1.4264678955078125,-0.4756317138671875,0.4427490234375
0.020721435546875,0.6071014404296875,-0.3033905029296875
-1.2525482177734375,1.402618408203125,0.246673583984375
-0.39788818359375,0.16363525390625,0.0926055908203125
-0.9531707763671876,-0.08331298828125,0.1558380126953125
-0.8285980224609375,0.14263916015625,0.1928558349609375
-0.6826171875,0.31707763671875,0.040130615234375
-0.64910888671875,0.3590087890625,0.3377838134765625
-0.56280517578125,2.9730682373046875,1.2710723876953125
4.2364044189453125,2.237335205078125,2.282684326171875
1.7738800048828125,2.02008056640625,1.055908203125
1.385009765625,0.41253662109375,0.4730987548828125
0.7741851806640625,0.1365814208984375,-0.008087158203125
0.47332763671875,0.2949676513671875,-0.0257415771484375
0.2959136962890625,0.2465667724609375,0.1077117919921875
0.3441925048828125,0.0697174072265625,0.2777862548828125
0.6275482177734375,0.259185791015625,0.5242919921875
1.2445526123046875,0.2275238037109375,0.9697418212890624
0.9165802001953124,-0.6319580078125,0.8440093994140625
0.749725341796875,1.4918365478515625,1.2335662841796875
0.668212890625,2.069091796875,0.7181549072265625
1.188507080078125,1.0552520751953125,-0.20599365234375
0.241363525390625,1.3529205322265625,-0.0543365478515625
0.1953125,0.5606536865234375,0.041412353515625
-0.01483154296875,0.5344085693359375,0.1554718017578125
0.37255859375,0.9995574951171876,0.3831634521484375
1.375701904296875,0.8908538818359375,0.1106414794921875
1.169281005859375,0.7183380126953125,-0.0180816650390625
0.9087371826171876,0.689422607421875,-0.13525390625
1.0868988037109375,0.675262451171875,-0.6359405517578125
0.7655792236328125,0.6588134765625,-0.4197235107421875
0.4777679443359375,0.1077423095703125,0.716339111328125
1.4046478271484375,0.5728302001953125,-2.133453369140625
0.4237823486328125,-0.2053375244140625,-0.598846435546875
1.2425537109375,-0.34014892578125,0.332977294921875
0.8989410400390625,-0.0454559326171875,0.742950439453125
0.949005126953125,-0.1159820556640625,0.31036376953125
1.11669921875,-0.047088623046875,0.506378173828125
4.5137939453125,2.035873413085937,-1.113433837890625
0.5792999267578125,-1.5908050537109375,0.657501220703125
1.173248291015625,0.3203277587890625,-0.3162994384765625
1.1410369873046875,-0.641632080078125,0.1409454345703125
0.6823883056640625,0.095611572265625,-0.371337890625
1.04156494140625,-0.126220703125,-0.025726318359375
0.9576416015625,0.133392333984375,0.2492828369140625
2.2041473388671875,0.034942626953125,-0.6074676513671875
1.027984619140625,0.4113922119140625,-0.35992431640625
0.79864501953125,0.017425537109375,-0.123046875
0.7172393798828125,0.0233917236328125,-0.282196044921875
0.892852783203125,0.2691650390625,-0.26947021484375
1.227020263671875,0.06158447265625,-0.324127197265625
1.186065673828125,-0.065216064453125,-0.256378173828125
1.066009521484375,-0.109344482421875,-0.2888641357421875
0.9562530517578124,-0.1348876953125,-0.484283447265625
0.8462982177734375,-0.063323974609375,-0.44061279296875
0.927886962890625,0.0240020751953125,-0.501983642578125
0.9170379638671876,0.039520263671875,-0.5398712158203125
0.898834228515625,0.002410888671875,-0.435333251953125
0.7916412353515625,-0.1492919921875,-0.520599365234375
0.7949371337890625,0.0174102783203125,-0.6044921875
0.8108673095703125,-0.057037353515625,-0.592498779296875
0.6743011474609375,0.0386962890625,-0.65673828125
0.688568115234375,0.0588836669921875,-0.53521728515625
0.801910400390625,0.0740203857421875,-0.6214447021484375
0.6095123291015625,0.194671630859375,-0.497833251953125
0.6282806396484375,0.2158966064453125,-0.6691131591796875
0.6527862548828125,0.2036590576171875,-0.6657562255859375
0.719940185546875,0.1043243408203125,-0.652923583984375
0.7631988525390625,0.01141357421875,-0.6529541015625
0.8271331787109375,0.0533905029296875,-0.6346435546875
0.867431640625,0.1175079345703125,-0.650634765625
0.852996826171875,0.1361236572265625,-0.6152801513671875
0.8641357421875,0.09844970703125,-0.5950927734375
0.8810577392578125,0.0300140380859375,-0.571136474609375
0.837310791015625,-0.0185089111328125,-0.55255126953125
0.8409576416015625,-0.0507049560546875,-0.5421905517578125
0.808563232421875,0.0114593505859375,-0.5107269287109375
0.7433929443359375,0.077606201171875,-0.646453857421875
0.795074462890625,0.1099090576171875,-0.61578369140625
0.760498046875,0.1034393310546875,-0.590728759765625
0.754364013671875,0.1034698486328125,-0.593505859375
0.7079925537109375,0.1195068359375,-0.605072021484375
0.594512939453125,0.165924072265625,-0.508697509765625
0.6463623046875,0.1263885498046875,-0.747467041015625
0.649017333984375,0.1014251708984375,-0.72760009765625
0.7039337158203125,0.0852813720703125,-0.68829345703125
0.7119903564453125,0.12188720703125,-0.6911773681640625
0.6622314453125,0.1798858642578125,-0.635345458984375
1.034576416015625,0.18951416015625,-0.672332763671875
0.6709747314453125,0.0864715576171875,-0.6063385009765625
0.745635986328125,0.1106109619140625,-0.6399688720703125
0.7535400390625,0.137786865234375,-0.643768310546875
0.7449951171875,0.18426513671875,-0.6295928955078125
0.7777099609375,0.139495849609375,-0.603912353515625
0.805755615234375,0.16522216796875,-0.6023406982421875
0.768646240234375,0.1713714599609375,-0.61566162109375
0.7473907470703125,0.220245361328125,-0.62908935546875
0.735015869140625,0.2311859130859375,-0.641876220703125
0.7104644775390625,0.196563720703125,-0.6733551025390625
0.72161865234375,0.1715850830078125,-0.636688232421875
0.7145843505859375,0.1918182373046875,-0.648193359375
0.74285888671875,0.23199462890625,-0.638214111328125
0.755706787109375,0.2362823486328125,-0.6252899169921875
0.77166748046875,0.2177581787109375,-0.60400390625
0.7590179443359375,0.2110595703125,-0.6100006103515625
0.7376708984375,0.232025146484375,-0.615234375
0.751861572265625,0.2296142578125,-0.6284332275390625
0.761871337890625,0.24365234375,-0.6048736572265625
0.7515106201171875,0.256378173828125,-0.62005615234375
0.7360382080078125,0.254364013671875,-0.627288818359375
0.718017578125,0.2714996337890625,-0.641448974609375
0.7262725830078125,0.2620391845703125,-0.630035400390625
0.728973388671875,0.2414093017578125,-0.63494873046875
0.7204132080078125,0.2548065185546875,-0.64801025390625
0.7174530029296875,0.255615234375,-0.6415252685546875
0.7113800048828125,0.25286865234375,-0.6523284912109375
0.712249755859375,0.2526092529296875,-0.64337158203125
0.711761474609375,0.2683258056640625,-0.6419219970703125
0.709503173828125,0.2771759033203125,-0.6443939208984375
0.713104248046875,0.2596893310546875,-0.64276123046875
0.707672119140625,0.2700653076171875,-0.6526336669921875
0.7115478515625,0.270050048828125,-0.6483001708984375
0.712432861328125,0.268280029296875,-0.65020751953125
0.706146240234375,0.2730560302734375,-0.65484619140625
0.7103424072265625,0.2675933837890625,-0.6427764892578125
0.705352783203125,0.278350830078125,-0.6506195068359375
0.6956939697265625,0.248626708984375,-0.6558074951171875
0.6993255615234375,0.2624053955078125,-0.6475677490234375
0.7075347900390625,0.2766265869140625,-0.6484375
0.7057037353515625,0.27313232421875,-0.6536865234375
0.7017822265625,0.2612457275390625,-0.647674560546875
0.6991424560546875,0.2689056396484375,-0.6591644287109375
0.7065887451171875,0.259063720703125,-0.647674560546875
0.7204132080078125,0.3087005615234375,-0.6973876953125
0.709136962890625,0.2287750244140625,-0.6400146484375
0.7089691162109375,0.1428680419921875,-0.6168060302734375
