AccelerationX,AccelerationY,AccelerationZ
-0.329498291015625,0.72662353515625,-0.530364990234375
-0.3637542724609375,0.697662353515625,-0.509857177734375
-0.4005126953125,0.7365570068359375,-0.5907440185546875
-0.3895263671875,0.7432098388671875,-0.4969940185546875
-0.3330535888671875,0.7354278564453125,-0.529937744140625
-0.3470916748046875,0.7610626220703125,-0.533203125
-0.42828369140625,0.771453857421875,-0.74029541015625
-0.5211181640625,0.6855010986328125,-0.562744140625
-0.3943328857421875,0.7755279541015625,-0.169769287109375
-0.371734619140625,0.767578125,-0.8265228271484375
-0.4015045166015625,0.69091796875,-0.555938720703125
-0.475250244140625,0.7416534423828125,-0.34735107421875
-0.498504638671875,0.6962738037109375,-0.33984375
-0.595062255859375,0.6876373291015625,-0.44940185546875
-0.505523681640625,0.7050933837890625,-0.4834747314453125
-0.46343994140625,0.72088623046875,-0.50018310546875
-0.543487548828125,0.69757080078125,-0.4443511962890625
-0.5780181884765625,0.70074462890625,-0.4623870849609375
-0.58868408203125,0.69488525390625,-0.3379058837890625
-0.5471954345703125,0.705657958984375,-0.361602783203125
-0.6004638671875,0.6996307373046875,-0.3809356689453125
-0.6003875732421875,0.706573486328125,-0.39447021484375
-0.596282958984375,0.6772003173828125,-0.3642730712890625
-0.5648956298828125,0.714630126953125,-0.4134368896484375
-0.555572509765625,0.7084503173828125,-0.33673095703125
-0.5440826416015625,0.7403717041015625,-0.3932952880859375
-0.5605621337890625,0.7266082763671875,-0.4207916259765625
-0.5659942626953125,0.730255126953125,-0.3678741455078125
-0.5874176025390625,0.7248687744140625,-0.2945098876953125
-0.6005706787109375,0.7419891357421875,-0.25042724609375
-0.5015411376953125,0.712554931640625,-0.1806793212890625
-0.5209197998046875,0.7217864990234375,-0.1617279052734375
-0.5047149658203125,0.82928466796875,-0.24462890625
-0.673095703125,0.8145904541015625,-0.16546630859375
-0.70892333984375,0.753997802734375,-0.1067047119140625
-0.71063232421875,0.7356414794921875,-0.2537078857421875
-0.7204742431640625,0.6432037353515625,-0.1493377685546875
-0.697357177734375,0.635833740234375,-0.0286102294921875
-0.731353759765625,0.57904052734375,0.0095672607421875
-0.84002685546875,0.626251220703125,-0.0078125
-0.840240478515625,0.599639892578125,-0.05902099609375
-0.8184967041015625,0.6689910888671875,-0.159149169921875
-0.8182525634765625,0.7877044677734375,-0.1717071533203125
-0.85711669921875,0.7174224853515625,0.0068511962890625
-0.7874908447265625,0.7774505615234375,0.15203857421875
-0.7946624755859375,0.8393402099609375,-0.023040771484375
-0.7899322509765625,0.939727783203125,-0.0218048095703125
-0.833251953125,0.784881591796875,-0.17596435546875
-0.8101654052734375,0.5268096923828125,-0.1268310546875
-0.6760711669921875,0.630706787109375,-0.1461181640625
-0.7325286865234375,0.8665313720703125,-0.0496063232421875
-0.6389007568359375,0.893035888671875,-0.0684356689453125
-0.5706939697265625,0.8250579833984375,0.030670166015625
-0.5068206787109375,0.7274932861328125,0.0123443603515625
-0.3841552734375,0.6380462646484375,0.0269012451171875
-0.4743499755859375,0.6672821044921875,-0.01666259765625
-0.4577484130859375,0.72021484375,-0.0495758056640625
-0.446929931640625,0.7787628173828125,-0.027923583984375
-0.6251678466796875,0.8833465576171875,0.0398101806640625
-0.6853485107421875,0.9073028564453124,0.0250091552734375
-0.7249603271484375,0.956298828125,0.08221435546875
-0.7083892822265625,0.9594879150390624,0.0738067626953125
-0.6531524658203125,0.856903076171875,-0.00579833984375
-0.5956878662109375,0.746917724609375,-0.0610504150390625
-0.5862884521484375,0.8107757568359375,0.0048675537109375
-0.624053955078125,0.8533172607421875,-0.014007568359375
-0.606536865234375,0.7650909423828125,-0.04632568359375
-0.5954437255859375,0.60540771484375,0.024932861328125
-0.5962066650390625,0.5678253173828125,0.084747314453125
-0.6803436279296875,0.6284637451171875,0.0634307861328125
-0.661224365234375,0.636474609375,0.0049285888671875
-0.6366729736328125,0.675933837890625,0.0390167236328125
-0.7275543212890625,0.78363037109375,-0.0150299072265625
-0.814697265625,0.952728271484375,-0.0818939208984375
-0.736419677734375,0.9113616943359376,0.0003662109375
-0.66168212890625,0.867034912109375,0.0434722900390625
-0.738372802734375,1.04351806640625,-0.043121337890625
-0.72064208984375,0.982818603515625,-0.134521484375
-0.67926025390625,0.7886810302734375,-0.1654052734375
-0.66302490234375,0.823211669921875,-0.1571197509765625
-0.6070556640625,0.92974853515625,-0.10809326171875
-0.50775146484375,0.8502044677734375,-0.0693206787109375
-0.50830078125,0.7652130126953125,-0.0806884765625
-0.4725494384765625,0.7499542236328125,-0.06378173828125
-0.3620758056640625,0.712615966796875,-0.0457763671875
-0.37554931640625,0.6949005126953125,-0.0391693115234375
-0.4169158935546875,0.7249298095703125,-0.0254364013671875
-0.444610595703125,0.801025390625,0.0476837158203125
-0.5186614990234375,0.8913421630859375,0.0796051025390625
-0.6008148193359375,0.8724365234375,0.0828704833984375
-0.746185302734375,1.062408447265625,0.102996826171875
-0.6114501953125,0.938232421875,-0.0072479248046875
-0.6153411865234375,0.6693267822265625,-0.135345458984375
-0.740478515625,0.7220001220703125,-0.1373291015625
-0.673187255859375,0.8816680908203125,0.014129638671875
-0.6669769287109375,0.7814483642578125,0.1139678955078125
-0.7101593017578125,0.6170806884765625,0.050048828125
-0.6514892578125,0.6365509033203125,0.0095672607421875
-0.658294677734375,0.65228271484375,0.0237579345703125
-0.7201080322265625,0.65997314453125,0.006927490234375
-0.736358642578125,0.6944427490234375,-0.0369873046875
-0.78118896484375,0.7669525146484375,-0.0678253173828125
-0.83856201171875,0.8466796875,-0.073333740234375
-0.7933197021484375,0.8809051513671875,-0.1147613525390625
-0.6422271728515625,0.8835601806640625,-0.1869049072265625
-0.5470428466796875,1.0609893798828125,-0.2245025634765625
-0.606414794921875,0.9940032958984376,0.003448486328125
-0.653594970703125,0.8155670166015625,-0.054656982421875
-0.6911773681640625,0.820831298828125,-0.1852874755859375
-0.5442657470703125,0.8734893798828125,-0.2554473876953125
-0.4227752685546875,0.85125732421875,-0.120361328125
-0.391082763671875,0.6794586181640625,-0.0461883544921875
-0.4985809326171875,0.6132659912109375,-0.0550537109375
-0.554534912109375,0.6516876220703125,-0.0721282958984375
-0.516937255859375,0.7555694580078125,-0.0873565673828125
-0.4445343017578125,0.82427978515625,-0.0451202392578125
-0.4866943359375,0.886962890625,-0.0019989013671875
-0.5609283447265625,0.9470672607421876,0.0658721923828125
-0.585052490234375,0.9088134765625,0.096405029296875
-0.6942596435546875,0.9429168701171876,0.0794219970703125
-0.6318206787109375,1.0398712158203125,0.0233306884765625
-0.452972412109375,0.6903228759765625,-0.142333984375
-0.570831298828125,0.735992431640625,-0.1702880859375
-0.6330413818359375,0.8848724365234375,0.0600738525390625
-0.5683441162109375,0.84814453125,0.155364990234375
-0.5889892578125,0.646942138671875,-0.0148468017578125
-0.6030731201171875,0.6032257080078125,-0.12847900390625
-0.556427001953125,0.64813232421875,-0.0646820068359375
-0.591827392578125,0.6743316650390625,0.028411865234375
-0.723175048828125,0.731475830078125,0.0377044677734375
-0.808349609375,0.8314361572265625,0.0099029541015625
-0.78619384765625,0.89849853515625,-0.007171630859375
-0.7393646240234375,0.9351959228515624,-0.0792388916015625
-0.6457672119140625,0.87408447265625,-0.0959625244140625
-0.6959686279296875,1.0093231201171875,-0.0467376708984375
-0.609649658203125,1.0389556884765625,-0.0841064453125
-0.588623046875,0.8490753173828125,-0.0269622802734375
-0.67034912109375,0.88458251953125,-0.0559539794921875
-0.5971221923828125,0.9356536865234376,-0.109954833984375
-0.46295166015625,0.8304290771484375,-0.0834503173828125
-0.5309906005859375,0.7262725830078125,-0.09027099609375
-0.53076171875,0.7210693359375,-0.1506500244140625
-0.436309814453125,0.7659454345703125,-0.112457275390625
-0.40838623046875,0.7564849853515625,-0.0037994384765625
-0.4285430908203125,0.7874755859375,0.0834197998046875
-0.40521240234375,0.83062744140625,0.073394775390625
-0.487884521484375,0.8887786865234375,0.0347747802734375
-0.5340118408203125,0.826019287109375,-0.0321044921875
-0.737518310546875,0.930694580078125,0.037139892578125
-0.6339111328125,1.09423828125,0.1355438232421875
-0.4803314208984375,0.85174560546875,-0.0142974853515625
-0.6600341796875,0.817413330078125,-0.114410400390625
-0.5805816650390625,0.8654327392578125,-0.0368194580078125
-0.487396240234375,0.8409881591796875,-0.0018463134765625
-0.5053253173828125,0.67340087890625,-0.057525634765625
-0.5245819091796875,0.618743896484375,-0.036163330078125
-0.5800018310546875,0.6564788818359375,-0.008880615234375
-0.7217254638671875,0.68487548828125,-0.0066986083984375
-0.783905029296875,0.6773529052734375,0.0129852294921875
-0.79827880859375,0.7113800048828125,0.054779052734375
-0.830108642578125,0.845794677734375,-0.0200042724609375
-0.8345794677734375,0.8839111328125,-0.0916595458984375
-0.8711700439453125,0.8552093505859375,-0.063568115234375
-0.8227691650390625,0.993988037109375,-0.0338287353515625
-0.648834228515625,0.917236328125,-0.055572509765625
-0.6782989501953125,0.829833984375,-0.0251007080078125
-0.718902587890625,0.9354400634765624,-0.093902587890625
-0.6559600830078125,0.9817352294921876,-0.123504638671875
-0.5408782958984375,0.8538970947265625,-0.0699615478515625
-0.5298004150390625,0.71771240234375,0.00775146484375
-0.4463043212890625,0.7446746826171875,0.03961181640625
-0.34814453125,0.7414398193359375,0.0322723388671875
-0.37548828125,0.7052764892578125,0.03759765625
-0.4558258056640625,0.717041015625,-0.0049896240234375
-0.4881591796875,0.729949951171875,-0.0189208984375
-0.469146728515625,0.832000732421875,-0.0151519775390625
-0.4765167236328125,0.907440185546875,-0.0533905029296875
-0.67047119140625,1.029144287109375,-0.0624542236328125
-0.695037841796875,1.0693206787109375,-0.060272216796875
-0.643341064453125,0.7916259765625,-0.1476287841796875
-0.7864227294921875,0.6152191162109375,-0.128448486328125
-0.7935943603515625,0.747039794921875,0.0446929931640625
-0.6696014404296875,0.8732757568359375,0.035125732421875
-0.6909332275390625,0.7232818603515625,-0.0162200927734375
-0.62945556640625,0.6415557861328125,-0.0387115478515625
-0.48480224609375,0.64312744140625,0.004608154296875
-0.552947998046875,0.63641357421875,0.0340423583984375
-0.715545654296875,0.6445159912109375,0.0520782470703125
-0.7561187744140625,0.6861419677734375,0.01873779296875
-0.8246002197265625,0.7837371826171875,0.03350830078125
-0.890716552734375,0.8360748291015625,0.05328369140625
-0.8662261962890625,0.80926513671875,0.080810546875
-0.8907623291015625,0.9242706298828124,-0.02764892578125
-0.8282470703125,0.9858245849609376,-0.140625
-0.741851806640625,0.9302825927734376,-0.1572113037109375
-0.7066192626953125,0.767486572265625,-0.1210174560546875
-0.7143707275390625,0.8996429443359375,-0.1570892333984375
-0.583038330078125,0.9701995849609376,-0.181304931640625
-0.4680938720703125,0.8670196533203125,-0.171630859375
-0.4710845947265625,0.699493408203125,-0.107879638671875
-0.3870697021484375,0.6031646728515625,0.0265655517578125
-0.275054931640625,0.60601806640625,0.04315185546875
-0.333465576171875,0.653167724609375,-0.0350799560546875
-0.44403076171875,0.7323150634765625,0.017364501953125
-0.521881103515625,0.8449859619140625,0.110076904296875
-0.580841064453125,0.9128265380859376,0.1545562744140625
-0.6204376220703125,0.8700103759765625,0.012664794921875
-0.784393310546875,1.0347900390625,0.0104217529296875
-0.6728973388671875,0.970977783203125,0.020599365234375
-0.663604736328125,0.672515869140625,-0.0825347900390625
-0.809844970703125,0.7838134765625,-0.0613250732421875
-0.7584075927734375,0.8714447021484375,-0.0095672607421875
-0.71807861328125,0.7171630859375,-0.0145416259765625
-0.693115234375,0.574737548828125,-0.025848388671875
-0.6734619140625,0.6008758544921875,-0.0696868896484375
-0.5772705078125,0.6561279296875,-0.052825927734375
-0.59100341796875,0.673126220703125,-0.04254150390625
-0.6739654541015625,0.6699676513671875,0.0126800537109375
-0.7114715576171875,0.732330322265625,0.0172271728515625
-0.7476654052734375,0.850341796875,-0.054290771484375
-0.7512054443359375,0.8869171142578125,-0.125
-0.7963409423828125,0.8748779296875,-0.1329193115234375
-0.8409881591796875,1.00738525390625,-0.138702392578125
-0.703399658203125,1.028045654296875,-0.117095947265625
-0.5287017822265625,0.86395263671875,-0.0943603515625
-0.6053314208984375,0.931610107421875,-0.1380157470703125
-0.58074951171875,0.9962310791015624,-0.1415557861328125
-0.4241943359375,0.8668975830078125,-0.07891845703125
-0.359771728515625,0.729461669921875,-0.0278778076171875
-0.4668731689453125,0.717681884765625,-0.0858306884765625
-0.410400390625,0.723602294921875,-0.0077972412109375
-0.2761077880859375,0.7374114990234375,0.0562286376953125
-0.27886962890625,0.73870849609375,0.0766754150390625
-0.495025634765625,0.8483428955078125,-0.0230255126953125
-0.59649658203125,0.988525390625,-0.0744171142578125
-0.5297088623046875,0.9898223876953124,-0.0328369140625
-0.6802978515625,1.0614013671875,-0.061767578125
-0.638519287109375,1.0223846435546875,-0.1436004638671875
-0.556610107421875,0.8133697509765625,-0.2023468017578125
-0.6587066650390625,0.8044586181640625,-0.0296478271484375
-0.6277923583984375,0.830963134765625,0.03985595703125
-0.51324462890625,0.78955078125,-0.051025390625
-0.417083740234375,0.679718017578125,-0.079376220703125
-0.4810791015625,0.6588897705078125,-0.0286102294921875
-0.5531463623046875,0.6769561767578125,0.0288543701171875
-0.631103515625,0.703521728515625,0.040924072265625
-0.669342041015625,0.7493438720703125,-0.00616455078125
-0.7292022705078125,0.80078125,-0.060272216796875
-0.819793701171875,0.8423309326171875,-0.07373046875
-0.8190765380859375,0.8697509765625,-0.0638427734375
-0.7010345458984375,0.8585205078125,-0.05078125
-0.70263671875,0.972381591796875,-0.0405426025390625
-0.71197509765625,1.0034027099609375,-0.0604248046875
-0.7546844482421875,0.873870849609375,-0.0989837646484375
-0.753143310546875,0.8295440673828125,-0.0828094482421875
-0.644561767578125,0.8563995361328125,-0.18267822265625
-0.5891876220703125,0.91058349609375,-0.228607177734375
-0.51422119140625,0.862640380859375,-0.22088623046875
-0.4457550048828125,0.81707763671875,-0.1828155517578125
-0.396270751953125,0.78656005859375,-0.037200927734375
-0.3466949462890625,0.750335693359375,0.0319366455078125
-0.346954345703125,0.69500732421875,-0.052093505859375
-0.3803863525390625,0.7230377197265625,-0.0540008544921875
-0.4334716796875,0.8021697998046875,0.0066375732421875
-0.520538330078125,0.873809814453125,0.0733642578125
-0.5609588623046875,0.86297607421875,0.098663330078125
-0.6362152099609375,0.8054351806640625,0.0369415283203125
-0.7225799560546875,0.9624786376953124,0.006195068359375
-0.6416473388671875,1.044891357421875,-0.0954742431640625
-0.65887451171875,0.796051025390625,-0.074951171875
-0.715301513671875,0.60845947265625,0.0379486083984375
-0.7603912353515625,0.6949920654296875,0.071868896484375
-0.8078765869140625,0.793914794921875,0.0187225341796875
-0.8224029541015625,0.76141357421875,-0.0446014404296875
-0.8094940185546875,0.718505859375,-0.1153106689453125
-0.744964599609375,0.7222137451171875,-0.110565185546875
-0.649383544921875,0.73870849609375,0.0131988525390625
-0.6224365234375,0.7740631103515625,-0.0124969482421875
-0.6293182373046875,0.7659912109375,-0.0199432373046875
-0.6353607177734375,0.76092529296875,0.00885009765625
-0.638824462890625,0.78448486328125,-0.0147857666015625
-0.710693359375,0.7654266357421875,-0.0274810791015625
-0.7322845458984375,0.7512969970703125,-0.015228271484375
-0.651336669921875,0.7547454833984375,0.0028533935546875
-0.669342041015625,0.721038818359375,0.0635223388671875
-0.7810516357421875,0.7893218994140625,0.0240631103515625
-0.7456817626953125,0.8168182373046875,-0.0314788818359375
-0.616851806640625,0.72467041015625,-0.03460693359375
-0.5378875732421875,0.6235198974609375,-0.05072021484375
-0.6201629638671875,0.630462646484375,-0.056884765625
-0.5530548095703125,0.669036865234375,-0.0847930908203125
-0.527923583984375,0.778350830078125,-0.2153167724609375
-0.608001708984375,0.7719268798828125,-0.3632049560546875
-0.690277099609375,0.80291748046875,-0.2960968017578125
-0.6116943359375,0.8118438720703125,-0.2640838623046875
-0.677276611328125,0.822235107421875,-0.15234375
-0.75537109375,0.8472442626953125,-0.223785400390625
-0.730224609375,0.7803955078125,-0.2038726806640625
-0.7674407958984375,0.75335693359375,-0.16644287109375
-0.746673583984375,0.8027191162109375,-0.149169921875
-0.7102508544921875,0.862762451171875,-0.226715087890625
-0.7056732177734375,0.891204833984375,-0.2329864501953125
-0.6653594970703125,0.8875732421875,-0.3487548828125
-0.650634765625,0.8616180419921875,-0.359771728515625
-0.5950927734375,0.835601806640625,-0.2604827880859375
-0.539642333984375,0.832489013671875,-0.18951416015625
-0.5201873779296875,0.843109130859375,-0.186798095703125
-0.5443267822265625,0.8636932373046875,-0.165252685546875
-0.5119171142578125,0.8306427001953125,-0.1121978759765625
-0.4357757568359375,0.7936859130859375,-0.069915771484375
-0.36102294921875,0.7944183349609375,-0.0070037841796875
-0.3622894287109375,0.7375640869140625,0.06005859375
-0.369720458984375,0.8004302978515625,0.0550994873046875
-0.491119384765625,0.9528350830078124,-0.025115966796875
-0.5312042236328125,0.891387939453125,-0.0992889404296875
-0.5405731201171875,0.813720703125,-0.028778076171875
-0.5774688720703125,0.7913360595703125,0.028533935546875
-0.643341064453125,0.7822723388671875,0.0557098388671875
-0.6450958251953125,0.787200927734375,0.04736328125
-0.642486572265625,0.7734832763671875,0.0738525390625
-0.69268798828125,0.7993927001953125,0.031829833984375
-0.74896240234375,0.7943267822265625,-0.0638427734375
-0.7649078369140625,0.7554779052734375,-0.0321502685546875
-0.8383331298828125,0.770660400390625,0.00433349609375
-0.7888031005859375,0.7649078369140625,-0.027313232421875
-0.73101806640625,0.810577392578125,-0.05023193359375
-0.790435791015625,0.999969482421875,-0.1611480712890625
-0.7436065673828125,0.855255126953125,-0.1943817138671875
-0.7321624755859375,0.8636932373046875,-0.0997467041015625
-0.483154296875,0.9652252197265624,-0.1449737548828125
-0.361297607421875,0.9134979248046876,-0.1215972900390625
-0.5788421630859375,0.9043121337890624,-0.2197723388671875
-0.50506591796875,0.837005615234375,-0.1649627685546875
-0.347442626953125,0.8377227783203125,-0.118499755859375
-0.4356231689453125,0.76702880859375,-0.1800537109375
-0.529754638671875,0.75927734375,-0.038970947265625
-0.3851318359375,0.8654327392578125,0.0642852783203125
-0.362518310546875,0.85418701171875,0.09478759765625
-0.4571685791015625,0.9504852294921876,-0.0023193359375
-0.438323974609375,0.9998626708984376,-0.1038818359375
-0.579986572265625,1.0211334228515625,-0.0623016357421875
-0.6068267822265625,1.0383148193359375,-0.026611328125
-0.469879150390625,0.78741455078125,-0.0756683349609375
-0.560791015625,0.672698974609375,0.0341339111328125
-0.7151336669921875,0.8295135498046875,0.0871734619140625
-0.66021728515625,0.928924560546875,-0.0127410888671875
-0.563934326171875,0.7938079833984375,-0.1423187255859375
-0.5096435546875,0.6626129150390625,-0.1833648681640625
-0.50689697265625,0.6327972412109375,-0.1043243408203125
-0.5428924560546875,0.6448211669921875,0.045196533203125
-0.5771636962890625,0.694732666015625,0.060516357421875
-0.680389404296875,0.79058837890625,-0.0525665283203125
-0.8226470947265625,0.916046142578125,-0.07574462890625
-0.8571319580078125,0.9319305419921876,-0.0683135986328125
-0.74481201171875,0.8011474609375,-0.0306243896484375
-0.74371337890625,0.85498046875,-0.0271759033203125
-0.7847137451171875,1.020263671875,-0.01849365234375
-0.6776275634765625,0.8542327880859375,-0.004638671875
-0.749786376953125,0.862823486328125,-0.060455322265625
-0.626922607421875,0.9822540283203124,-0.0723724365234375
-0.5006103515625,0.977783203125,-0.13531494140625
-0.4500579833984375,0.8880767822265625,-0.138824462890625
-0.4024658203125,0.8269500732421875,-0.0917816162109375
-0.301513671875,0.7805633544921875,-0.0793609619140625
-0.408416748046875,0.72845458984375,-0.0768280029296875
-0.4449615478515625,0.774871826171875,-0.01763916015625
-0.3953399658203125,0.8440704345703125,-0.0087127685546875
-0.3909759521484375,0.8710784912109375,-0.0127716064453125
-0.45989990234375,0.8961181640625,-0.0585174560546875
-0.502044677734375,0.843902587890625,-0.1204986572265625
-0.6434326171875,1.0863494873046875,-0.0652923583984375
-0.6095733642578125,1.0766448974609375,-0.1223297119140625
-0.5930328369140625,0.8552398681640625,-0.296295166015625
-0.739959716796875,0.7696380615234375,-0.2142333984375
-0.6625518798828125,0.747283935546875,-0.0167083740234375
-0.5802001953125,0.71112060546875,0.1122283935546875
-0.565704345703125,0.646636962890625,0.090301513671875
-0.531158447265625,0.695220947265625,-0.06243896484375
-0.5360565185546875,0.7166900634765625,-0.057830810546875
-0.585174560546875,0.69830322265625,0.0138092041015625
-0.6563262939453125,0.747528076171875,0.037841796875
-0.7346954345703125,0.8111419677734375,-0.0392913818359375
-0.7863616943359375,0.8746490478515625,-0.0110321044921875
-0.7743377685546875,0.8542022705078125,0.0685272216796875
-0.7217864990234375,0.7631072998046875,0.0349273681640625
-0.6787261962890625,0.866790771484375,-0.085845947265625
-0.7183837890625,0.9592742919921876,-0.14068603515625
-0.773406982421875,0.8917083740234375,-0.1041717529296875
-0.75921630859375,0.873199462890625,-0.0534820556640625
-0.65582275390625,0.957000732421875,-0.1181182861328125
-0.6386871337890625,0.9534454345703124,-0.125701904296875
-0.5022735595703125,0.9020843505859376,0.014617919921875
-0.426605224609375,0.861358642578125,-0.0276031494140625
-0.329010009765625,0.8078765869140625,-0.08685302734375
-0.28521728515625,0.7355194091796875,-0.1527862548828125
-0.3290252685546875,0.75238037109375,-0.028076171875
-0.3530426025390625,0.759185791015625,0.024932861328125
-0.4604339599609375,0.857086181640625,-0.043701171875
-0.5310516357421875,0.95904541015625,-0.09942626953125
-0.7003021240234375,0.97052001953125,-0.0092620849609375
-0.7088165283203125,1.0802764892578125,0.0698089599609375
-0.5858612060546875,0.9001007080078125,-0.21722412109375
-0.6751708984375,0.69647216796875,-0.192291259765625
-0.716400146484375,0.7534637451171875,-0.0203094482421875
-0.6947784423828125,0.7830352783203125,0.075775146484375
-0.6494903564453125,0.671600341796875,0.0025787353515625
-0.6505889892578125,0.6237945556640625,-0.0679779052734375
-0.5918426513671875,0.65032958984375,-0.097076416015625
-0.594696044921875,0.6617584228515625,-0.0320587158203125
-0.6117401123046875,0.6837005615234375,-0.0780792236328125
-0.6728973388671875,0.7153167724609375,-0.1479644775390625
-0.7432403564453125,0.7860870361328125,-0.0702972412109375
-0.8071441650390625,0.8655548095703125,-0.0380096435546875
-0.80499267578125,0.861175537109375,-0.062255859375
-0.86798095703125,0.964874267578125,-0.0901641845703125
-0.8539581298828125,1.030181884765625,-0.067413330078125
-0.7923583984375,0.86077880859375,-0.136993408203125
-0.7860870361328125,0.8557586669921875,-0.1269683837890625
-0.6973724365234375,0.980682373046875,-0.1987762451171875
-0.5427093505859375,0.986480712890625,-0.1827392578125
-0.4619293212890625,0.8824462890625,-0.142547607421875
-0.4649505615234375,0.7481231689453125,-0.0874481201171875
-0.3927459716796875,0.6815338134765625,-0.0854949951171875
-0.3593292236328125,0.6380462646484375,-0.078125
-0.3642578125,0.6434326171875,-0.0316925048828125
-0.391998291015625,0.7448577880859375,-0.047454833984375
-0.4183807373046875,0.841888427734375,-0.05523681640625
-0.484161376953125,0.85888671875,-0.0392913818359375
-0.70782470703125,1.000823974609375,-0.0477752685546875
-0.6541900634765625,1.0705413818359375,-0.10595703125
-0.710601806640625,0.801483154296875,-0.1479034423828125
-0.8511505126953125,0.7879180908203125,-0.0452728271484375
-0.821929931640625,0.89764404296875,-0.029388427734375
-0.779022216796875,0.80303955078125,-0.109405517578125
-0.7259674072265625,0.6085357666015625,-0.1031646728515625
-0.673187255859375,0.578582763671875,-0.0906219482421875
-0.632415771484375,0.64459228515625,-0.04742431640625
-0.618896484375,0.68572998046875,-0.0564727783203125
-0.6280670166015625,0.6808624267578125,-0.0968170166015625
-0.6712493896484375,0.7269744873046875,-0.073211669921875
-0.75830078125,0.845947265625,-0.04278564453125
-0.7603607177734375,0.8270111083984375,-0.0611572265625
-0.748077392578125,0.8107757568359375,-0.137298583984375
-0.76483154296875,0.9390716552734376,-0.1430511474609375
-0.7483367919921875,0.9972076416015624,-0.105560302734375
-0.7401275634765625,0.767364501953125,-0.131103515625
-0.7718505859375,0.733734130859375,-0.107452392578125
-0.653900146484375,0.934417724609375,-0.160552978515625
-0.4654541015625,0.9552001953125,-0.2484283447265625
-0.5321502685546875,0.83111572265625,-0.061279296875
-0.4825897216796875,0.69598388671875,0.0297088623046875
-0.3738250732421875,0.713531494140625,-0.1576080322265625
-0.29498291015625,0.7038116455078125,-0.1734771728515625
-0.381683349609375,0.6984710693359375,-0.0562744140625
-0.419403076171875,0.71728515625,0.0455474853515625
-0.49359130859375,0.8878326416015625,-0.0142059326171875
-0.511322021484375,0.9329071044921876,-0.1102294921875
-0.5997467041015625,0.8603668212890625,-0.2134552001953125
-0.7523040771484375,1.0296630859375,-0.15435791015625
-0.6819305419921875,1.00909423828125,-0.135101318359375
-0.653656005859375,0.7639617919921875,-0.172515869140625
-0.737396240234375,0.730804443359375,-0.124603271484375
-0.7501983642578125,0.7330169677734375,-0.0855560302734375
-0.657684326171875,0.6992340087890625,-0.063690185546875
-0.5512847900390625,0.651580810546875,-0.1171875
-0.5205535888671875,0.6753997802734375,-0.1114501953125
-0.5358734130859375,0.727874755859375,-0.06671142578125
-0.5684967041015625,0.716888427734375,-0.0707550048828125
-0.615478515625,0.7183074951171875,-0.0609283447265625
-0.6782684326171875,0.8018035888671875,-0.082427978515625
-0.7562255859375,0.89013671875,-0.101287841796875
-0.7473907470703125,0.8325042724609375,-0.095184326171875
-0.85406494140625,0.812530517578125,-0.0519866943359375
-0.8845977783203125,1.0091094970703125,-0.018341064453125
-0.7764434814453125,0.9351043701171876,-0.0588836669921875
-0.814208984375,0.758514404296875,-0.1211090087890625
-0.7527923583984375,0.9222412109375,-0.1421356201171875
-0.61285400390625,1.009429931640625,-0.1425933837890625
-0.505615234375,0.903350830078125,-0.1285247802734375
-0.4604034423828125,0.753021240234375,-0.0697174072265625
-0.459747314453125,0.71502685546875,0.0420074462890625
-0.3654327392578125,0.6925201416015625,0.091033935546875
-0.302398681640625,0.6598358154296875,0.121551513671875
-0.3125,0.6735687255859375,-0.0030059814453125
-0.4776153564453125,0.7494964599609375,-0.14996337890625
-0.6547393798828125,0.825592041015625,-0.090545654296875
-0.7461700439453125,0.8182830810546875,-0.130767822265625
-0.823333740234375,0.889495849609375,-0.1884613037109375
-0.8093109130859375,0.9913330078125,-0.319976806640625
-0.7515106201171875,0.8272552490234375,-0.377960205078125
-0.72564697265625,0.647247314453125,-0.1099090576171875
-0.7129974365234375,0.6699981689453125,0.0124664306640625
-0.5935821533203125,0.794952392578125,-0.0523529052734375
-0.4638519287109375,0.702911376953125,-0.1204376220703125
-0.5290679931640625,0.6174774169921875,-0.127288818359375
-0.593719482421875,0.6517181396484375,-0.0771942138671875
-0.6573333740234375,0.7235870361328125,-0.0072021484375
-0.7437591552734375,0.718597412109375,0.0313873291015625
-0.864898681640625,0.7706146240234375,0.0452423095703125
-0.9450531005859376,0.9005126953125,-0.03143310546875
-0.8717193603515625,0.8602752685546875,-0.0795440673828125
-0.8276824951171875,0.8267822265625,-0.1136627197265625
-0.81231689453125,0.9547882080078124,-0.0824737548828125
-0.684326171875,0.87158203125,-0.099395751953125
-0.6888427734375,0.7442626953125,-0.128570556640625
-0.6674652099609375,0.8197479248046875,-0.225341796875
-0.6275634765625,0.9357757568359376,-0.292083740234375
-0.515869140625,0.9011383056640624,-0.2776031494140625
-0.4630584716796875,0.8183441162109375,-0.1715087890625
-0.4140167236328125,0.7846221923828125,-0.1128997802734375
-0.3840789794921875,0.7670745849609375,-0.1252899169921875
-0.35797119140625,0.7594146728515625,0.0068206787109375
-0.3252105712890625,0.7558746337890625,0.057525634765625
-0.4269561767578125,0.8172607421875,0.0093994140625
-0.4855804443359375,0.9174652099609376,-0.0217437744140625
-0.4850006103515625,0.8956146240234375,-0.0780181884765625
-0.6248931884765625,0.98876953125,-0.05181884765625
-0.622589111328125,1.0370635986328125,-0.077667236328125
-0.5395660400390625,0.88287353515625,-0.2046966552734375
-0.636016845703125,0.8943939208984375,-0.221405029296875
-0.6341705322265625,0.871551513671875,-0.0296630859375
-0.5710296630859375,0.77008056640625,0.111328125
-0.5200958251953125,0.6784210205078125,0.0970001220703125
-0.505279541015625,0.6865997314453125,0.0313720703125
-0.532989501953125,0.7527923583984375,-0.01727294921875
-0.5597991943359375,0.7804718017578125,-0.1202545166015625
-0.5817718505859375,0.80377197265625,-0.15850830078125
-0.6740570068359375,0.795166015625,-0.0847930908203125
-0.78369140625,0.8252716064453125,-0.005706787109375
-0.731109619140625,0.8874969482421875,-0.012908935546875
-0.6839599609375,0.882476806640625,-0.0863800048828125
-0.6793670654296875,0.9730377197265624,-0.117584228515625
-0.6140289306640625,1.050537109375,-0.0997161865234375
-0.6025390625,0.8754119873046875,-0.08392333984375
-0.6717376708984375,0.82861328125,-0.10443115234375
-0.634735107421875,0.952880859375,-0.136322021484375
-0.5665435791015625,0.9763641357421876,-0.1659088134765625
-0.529937744140625,0.8460693359375,-0.1702117919921875
-0.548370361328125,0.7857666015625,-0.162750244140625
-0.517669677734375,0.7932281494140625,-0.174835205078125
-0.4689483642578125,0.77740478515625,-0.12713623046875
-0.436370849609375,0.79241943359375,-0.1057281494140625
-0.4042816162109375,0.8333282470703125,-0.1074066162109375
-0.3853912353515625,0.8246307373046875,-0.0792999267578125
-0.43505859375,0.8054656982421875,-0.0157012939453125
-0.5076751708984375,0.7455596923828125,0.04937744140625
-0.570770263671875,0.8690948486328125,0.0596923828125
-0.5296478271484375,0.995330810546875,0.029083251953125
-0.567596435546875,0.8067779541015625,-0.0181121826171875
-0.6859893798828125,0.618316650390625,0.0355377197265625
-0.7441558837890625,0.65478515625,0.15618896484375
-0.7742462158203125,0.898345947265625,0.1337432861328125
-0.854248046875,0.919219970703125,-0.0047149658203125
-0.888671875,0.76226806640625,-0.0424957275390625
-0.864776611328125,0.6937408447265625,-0.0670928955078125
-0.7384033203125,0.6838226318359375,-0.0762939453125
-0.6913604736328125,0.708099365234375,-0.0852203369140625
-0.7628936767578125,0.744354248046875,-0.0505218505859375
-0.7147216796875,0.70159912109375,0.05963134765625
-0.620819091796875,0.6966705322265625,0.037200927734375
-0.5407867431640625,0.7523651123046875,0.0500030517578125
-0.5354156494140625,0.7252349853515625,0.08056640625
-0.6671600341796875,0.748931884765625,0.0997161865234375
-0.7206878662109375,0.849456787109375,-0.0110015869140625
-0.669525146484375,0.9813385009765624,-0.1033935546875
-0.599029541015625,0.8675689697265625,-0.0693359375
-0.484527587890625,0.7925262451171875,-0.1898345947265625
-0.3520660400390625,0.847808837890625,-0.2499237060546875
-0.3986053466796875,0.8447113037109375,-0.201690673828125
-0.4900360107421875,0.7895355224609375,-0.17584228515625
-0.49615478515625,0.7566680908203125,-0.16278076171875
-0.6324615478515625,0.7843475341796875,-0.1195526123046875
-0.699676513671875,0.8033599853515625,-0.13714599609375
-0.707000732421875,0.8024749755859375,-0.181884765625
-0.7297210693359375,0.8142547607421875,-0.245941162109375
-0.738067626953125,0.8338623046875,-0.2239227294921875
-0.75018310546875,0.827056884765625,-0.180023193359375
-0.7393341064453125,0.8225860595703125,-0.217071533203125
-0.6999359130859375,0.813751220703125,-0.2082672119140625
-0.660491943359375,0.840545654296875,-0.2114715576171875
-0.6212005615234375,0.8609466552734375,-0.2037811279296875
-0.6002044677734375,0.86126708984375,-0.2065582275390625
-0.5851898193359375,0.878448486328125,-0.2034759521484375
-0.4109039306640625,0.883514404296875,-0.1265106201171875
-0.326019287109375,0.9134063720703124,-0.1438751220703125
-0.3610076904296875,0.8392486572265625,-0.1756744384765625
-0.350006103515625,0.9180908203125,-0.20916748046875
-0.326385498046875,0.958953857421875,0.0191192626953125
-0.287750244140625,0.978302001953125,0.269317626953125
-0.2802734375,0.9102783203125,0.3197784423828125
-0.38555908203125,0.8824005126953125,0.1559600830078125
-0.4837799072265625,0.8929290771484375,0.0184326171875
-0.51141357421875,0.8859100341796875,-0.0075531005859375
-0.5320892333984375,0.865234375,0.0622406005859375
-0.6461639404296875,0.8421173095703125,0.0849761962890625
-0.679534912109375,0.80963134765625,0.1311798095703125
-0.710235595703125,0.778045654296875,0.1162567138671875
-0.7163238525390625,0.7822265625,0.0354461669921875
-0.776947021484375,0.7868804931640625,-0.0570068359375
-0.7601776123046875,0.7808380126953125,-0.117462158203125
-0.7760162353515625,0.8231201171875,-0.0611572265625
-0.836029052734375,0.9407806396484376,-0.086090087890625
-0.795440673828125,0.846466064453125,-0.1140289306640625
-0.75341796875,0.736846923828125,-0.148345947265625
-0.7054595947265625,0.91534423828125,-0.173248291015625
-0.56878662109375,1.1186065673828125,-0.10015869140625
-0.3790740966796875,1.0568695068359375,-0.087615966796875
-0.4031982421875,0.884033203125,-0.2108306884765625
-0.45745849609375,0.803558349609375,-0.214599609375
-0.3769073486328125,0.8060455322265625,-0.0405731201171875
-0.29034423828125,0.77239990234375,0.02789306640625
-0.30865478515625,0.74127197265625,0.0024871826171875
-0.457550048828125,0.8235015869140625,-0.003997802734375
-0.5496368408203125,1.0109405517578125,0.044830322265625
-0.4954986572265625,0.9536895751953124,0.0472259521484375
-0.662322998046875,0.9452362060546876,0.018890380859375
-0.5910491943359375,1.02618408203125,0.00860595703125
-0.4926605224609375,0.9264678955078124,-0.1260833740234375
-0.571044921875,0.796600341796875,-0.053192138671875
-0.6311492919921875,0.8130035400390625,0.068603515625
-0.6352386474609375,0.8363037109375,-0.0109405517578125
-0.6158447265625,0.7694549560546875,-0.1103973388671875
-0.6055450439453125,0.678436279296875,-0.100799560546875
-0.5220947265625,0.68609619140625,-0.04266357421875
-0.5006256103515625,0.723480224609375,-0.0058441162109375
-0.56689453125,0.7188568115234375,0.039764404296875
-0.597625732421875,0.725128173828125,0.0740966796875
-0.68048095703125,0.772430419921875,-0.024993896484375
-0.7667388916015625,0.80267333984375,-0.056488037109375
-0.7131805419921875,0.8401336669921875,0.0890350341796875
-0.651611328125,0.91455078125,0.059478759765625
-0.6755523681640625,1.06024169921875,-0.0735931396484375
-0.744720458984375,1.0158843994140625,-0.1631317138671875
-0.7947845458984375,0.7742919921875,0.01251220703125
-0.767913818359375,0.805450439453125,0.0339508056640625
-0.7075653076171875,0.9357147216796876,-0.1006622314453125
-0.6422576904296875,0.9499359130859376,-0.1652069091796875
-0.5533447265625,0.871856689453125,-0.13275146484375
-0.4683074951171875,0.809295654296875,-0.087677001953125
-0.4051513671875,0.7760162353515625,-0.0091552734375
-0.3592681884765625,0.73907470703125,0.0465087890625
-0.347900390625,0.7228851318359375,0.0138092041015625
-0.34442138671875,0.763092041015625,-0.0178375244140625
-0.401153564453125,0.831939697265625,0.010345458984375
-0.4505615234375,0.938934326171875,0.003265380859375
-0.5669097900390625,0.976837158203125,-0.0816192626953125
-0.6290740966796875,0.99566650390625,-0.0625762939453125
-0.540496826171875,0.915496826171875,-0.118377685546875
-0.5729827880859375,0.707000732421875,-0.1399993896484375
-0.7197265625,0.692596435546875,0.0255126953125
-0.6769256591796875,0.8214263916015625,-0.017852783203125
-0.7127532958984375,0.8507232666015625,-0.1295623779296875
-0.7404632568359375,0.7618408203125,-0.1246490478515625
-0.7717132568359375,0.722808837890625,-0.062286376953125
-0.7668304443359375,0.697479248046875,-0.1074371337890625
-0.72467041015625,0.6825408935546875,-0.15020751953125
-0.7160186767578125,0.694183349609375,-0.0781707763671875
-0.7741241455078125,0.721649169921875,0.0180511474609375
-0.7977294921875,0.7902984619140625,0.00543212890625
-0.774322509765625,0.870635986328125,-0.13018798828125
-0.727569580078125,0.875274658203125,-0.194244384765625
-0.73687744140625,0.9620361328125,-0.2110748291015625
-0.7101287841796875,1.078887939453125,-0.2804107666015625
-0.660369873046875,0.9622802734375,-0.237274169921875
-0.6750335693359375,0.9307403564453124,-0.246246337890625
-0.5913848876953125,0.979217529296875,-0.3582763671875
-0.4493408203125,0.910919189453125,-0.373199462890625
-0.3719329833984375,0.749969482421875,-0.215240478515625
-0.3056182861328125,0.7258148193359375,-0.1128692626953125
-0.1343994140625,0.7522430419921875,-0.2065887451171875
-0.194000244140625,0.772216796875,-0.1038360595703125
-0.353240966796875,0.8076171875,-0.0310516357421875
-0.4392242431640625,0.87481689453125,-0.0404052734375
-0.5428009033203125,1.0042877197265625,-0.1453094482421875
-0.5925140380859375,0.98138427734375,-0.0760498046875
-0.7976837158203125,1.08148193359375,0.05364990234375
-0.5711212158203125,1.0118255615234375,0.0316619873046875
-0.53033447265625,0.74224853515625,-0.153717041015625
-0.6540374755859375,0.8270721435546875,-0.090545654296875
-0.629058837890625,0.923370361328125,0.024017333984375
-0.5655670166015625,0.79052734375,0.05224609375
-0.496124267578125,0.64483642578125,0.0237274169921875
-0.4699249267578125,0.634979248046875,-0.044525146484375
-0.535400390625,0.65594482421875,-0.0464324951171875
-0.5964813232421875,0.6927032470703125,0.0048828125
-0.6413726806640625,0.73309326171875,-0.0214691162109375
-0.7387237548828125,0.817474365234375,-0.03021240234375
-0.8335418701171875,0.9056243896484376,-0.0005950927734375
-0.871246337890625,0.8653106689453125,0.0602874755859375
-0.856903076171875,0.8563690185546875,-0.0284576416015625
-0.7956085205078125,0.903076171875,-0.0364532470703125
-0.64385986328125,1.01263427734375,-0.104248046875
-0.5405731201171875,0.9452056884765624,-0.0909423828125
-0.596923828125,0.8169403076171875,-0.04705810546875
-0.6009368896484375,0.9050445556640624,-0.0811004638671875
-0.4949188232421875,1.016448974609375,-0.0563812255859375
-0.41973876953125,0.9759674072265624,-0.068450927734375
-0.3828887939453125,0.8551177978515625,-0.09564208984375
-0.3246002197265625,0.777374267578125,-0.1024169921875
-0.3102264404296875,0.7717742919921875,-0.0474090576171875
-0.3480682373046875,0.706756591796875,0.007720947265625
-0.3838958740234375,0.685821533203125,0.01031494140625
-0.40673828125,0.7574310302734375,-0.025054931640625
-0.454986572265625,0.8954925537109375,-0.0687713623046875
-0.497283935546875,0.9949188232421876,-0.129730224609375
-0.592926025390625,1.007354736328125,-0.236419677734375
-0.658416748046875,1.144927978515625,-0.2779541015625
-0.5700836181640625,1.0071563720703125,-0.3681182861328125
-0.5891876220703125,0.8390655517578125,-0.2773590087890625
-0.6833953857421875,0.7590179443359375,-0.1309356689453125
-0.7105865478515625,0.7888336181640625,-0.1213531494140625
-0.599334716796875,0.816680908203125,-0.115966796875
-0.5346832275390625,0.724456787109375,-0.1490020751953125
-0.51861572265625,0.71630859375,-0.0973052978515625
-0.547576904296875,0.72393798828125,0.005218505859375
-0.5450592041015625,0.71929931640625,0.058624267578125
-0.602935791015625,0.723785400390625,-0.003326416015625
-0.6546630859375,0.784088134765625,-0.046356201171875
-0.711090087890625,0.867889404296875,0.0064849853515625
-0.765228271484375,0.8534088134765625,0.0826416015625
-0.763885498046875,0.8043060302734375,0.0679779052734375
-0.7198333740234375,0.9565887451171876,0.056243896484375
-0.698822021484375,1.0044708251953125,-0.0048980712890625
-0.776214599609375,0.84588623046875,-0.0208740234375
-0.787445068359375,0.9244232177734376,-0.03924560546875
-0.7435302734375,1.08953857421875,-0.093353271484375
-0.661865234375,1.106353759765625,-0.0167999267578125
-0.5745697021484375,0.9321136474609376,-0.0048828125
-0.50238037109375,0.8333740234375,-0.0128936767578125
-0.37713623046875,0.7683258056640625,0.006317138671875
-0.2963409423828125,0.687347412109375,0.0196685791015625
-0.29150390625,0.6242523193359375,0.0169525146484375
-0.287567138671875,0.6395111083984375,0.0043792724609375
-0.3390655517578125,0.72027587890625,-0.0410919189453125
-0.43389892578125,0.89874267578125,-0.0868072509765625
-0.5300140380859375,0.9919586181640624,-0.12158203125
-0.6704864501953125,1.0594940185546875,-0.1629791259765625
-0.7251434326171875,1.27020263671875,-0.2231292724609375
-0.6287689208984375,1.0716094970703125,-0.365478515625
-0.6920013427734375,0.8075714111328125,-0.389495849609375
-0.820404052734375,0.8087158203125,-0.255584716796875
-0.82073974609375,0.8416900634765625,-0.137451171875
-0.7342071533203125,0.77081298828125,-0.1238861083984375
-0.6330108642578125,0.670867919921875,-0.14739990234375
-0.567291259765625,0.6359100341796875,-0.0606231689453125
-0.510528564453125,0.6570892333984375,-0.0244293212890625
-0.546875,0.721771240234375,0.0262908935546875
-0.588043212890625,0.7919769287109375,0.083831787109375
-0.7254486083984375,0.860748291015625,0.00518798828125
-0.8256072998046875,0.948150634765625,-0.066314697265625
-0.7976837158203125,0.932708740234375,-0.0689544677734375
-0.77783203125,0.969970703125,0.035675048828125
-0.7028350830078125,1.025665283203125,-0.0546417236328125
-0.6313018798828125,0.9261627197265624,-0.1802978515625
-0.668792724609375,0.8447723388671875,-0.0975189208984375
-0.64068603515625,0.9160308837890624,-0.1104278564453125
-0.513580322265625,1.0483856201171875,-0.172637939453125
-0.3755340576171875,0.9184417724609376,-0.227142333984375
-0.34228515625,0.760986328125,-0.1429901123046875
-0.3249359130859375,0.687896728515625,-0.076507568359375
-0.3119049072265625,0.6912689208984375,-0.0567169189453125
-0.280792236328125,0.685821533203125,-0.0194244384765625
-0.3341827392578125,0.714202880859375,0.022735595703125
-0.4009857177734375,0.8337860107421875,0.037750244140625
-0.4316253662109375,0.960479736328125,0.02630615234375
-0.48980712890625,1.0294342041015625,-0.1074981689453125
-0.6883087158203125,1.1899871826171875,-0.1276397705078125
-0.7177734375,1.205474853515625,-0.1611175537109375
-0.6650848388671875,0.905364990234375,-0.205902099609375
-0.800933837890625,0.754364013671875,-0.0048675537109375
-0.7575531005859375,0.7453155517578125,0.1522674560546875
-0.581390380859375,0.786834716796875,0.12261962890625
-0.4482574462890625,0.763214111328125,-0.017059326171875
-0.4516143798828125,0.7457427978515625,-0.140380859375
-0.474639892578125,0.775238037109375,-0.040771484375
-0.455780029296875,0.797607421875,-0.04534912109375
-0.5190582275390625,0.7645111083984375,-0.1122589111328125
-0.5681610107421875,0.7728729248046875,-0.076904296875
-0.6125335693359375,0.856597900390625,-0.072174072265625
-0.6055755615234375,0.909912109375,-0.0265350341796875
-0.642974853515625,0.9097900390625,-0.0499267578125
-0.6651611328125,0.965484619140625,-0.1584625244140625
-0.6706695556640625,1.016082763671875,-0.1339569091796875
-0.5628814697265625,0.93707275390625,-0.145111083984375
-0.54852294921875,0.893310546875,-0.1563568115234375
-0.59759521484375,0.9333648681640624,-0.157623291015625
-0.550262451171875,0.9040374755859376,-0.2324676513671875
-0.4808197021484375,0.8032989501953125,-0.2656097412109375
-0.4575958251953125,0.7837066650390625,-0.1891021728515625
-0.4398345947265625,0.755523681640625,-0.105804443359375
-0.42041015625,0.750823974609375,-0.0876312255859375
-0.4458770751953125,0.823577880859375,-0.049713134765625
-0.4477996826171875,0.85235595703125,-0.053070068359375
-0.477081298828125,0.8688201904296875,-0.1029052734375
-0.447174072265625,0.8707275390625,-0.0961761474609375
-0.4338836669921875,0.8856964111328125,-0.0883331298828125
-0.4354705810546875,0.9468536376953124,0.0009613037109375
-0.3848724365234375,0.910186767578125,0.021575927734375
-0.5122528076171875,0.829345703125,0.068817138671875
-0.6407623291015625,0.7423095703125,0.10479736328125
-0.723846435546875,0.808197021484375,0.006500244140625
-0.687774658203125,0.922088623046875,-0.091705322265625
-0.6645965576171875,0.888946533203125,-0.1360626220703125
-0.647796630859375,0.7697601318359375,-0.0826416015625
-0.639739990234375,0.70513916015625,0.01824951171875
-0.6254119873046875,0.737213134765625,-0.0285186767578125
-0.6180572509765625,0.7786712646484375,-0.0999603271484375
-0.613983154296875,0.7855682373046875,-0.06787109375
-0.5975189208984375,0.7820587158203125,-0.0938720703125
-0.5880279541015625,0.8223419189453125,-0.1012725830078125
-0.59417724609375,0.8533782958984375,-0.0504302978515625
-0.6036529541015625,0.885894775390625,-0.1103057861328125
-0.55828857421875,0.9242095947265624,-0.1514434814453125
-0.55731201171875,1.0100555419921875,-0.214141845703125
-0.6075897216796875,1.06317138671875,-0.1973876953125
-0.6083526611328125,0.934173583984375,-0.19744873046875
-0.62103271484375,0.8285369873046875,-0.172637939453125
-0.5165863037109375,0.8211517333984375,-0.1358489990234375
-0.4662933349609375,0.9354248046875,-0.2179412841796875
-0.3704071044921875,0.9495849609375,-0.2452850341796875
-0.3172454833984375,0.8516693115234375,-0.245849609375
-0.3275909423828125,0.8084716796875,-0.2160186767578125
-0.332489013671875,0.8305511474609375,-0.1320953369140625
-0.36541748046875,0.805816650390625,-0.0482025146484375
-0.4194183349609375,0.79986572265625,-0.0003662109375
-0.47119140625,0.82958984375,-0.042938232421875
-0.46929931640625,0.81195068359375,-0.0364837646484375
-0.4935455322265625,0.717437744140625,-0.0027313232421875
-0.501190185546875,0.6005859375,0.042877197265625
-0.440704345703125,0.5252838134765625,0.0467681884765625
-0.360565185546875,0.4471588134765625,0.016815185546875
-0.3157806396484375,0.394256591796875,0.014404296875
-0.3314361572265625,0.4473419189453125,0.02001953125
-0.5468902587890625,0.7033843994140625,0.0345458984375
-0.9013519287109376,1.447509765625,-0.0679473876953125
-1.2772369384765625,2.07501220703125,-0.168701171875
-1.35369873046875,1.3942413330078125,-0.16058349609375
-1.480224609375,1.0148162841796875,-0.2789459228515625
-0.57330322265625,1.2623291015625,0.0992431640625
0.107696533203125,0.9582977294921876,0.313507080078125
-0.14385986328125,0.6221466064453125,-0.0848846435546875
-0.1973114013671875,0.5257110595703125,-0.0041046142578125
-0.20379638671875,0.5080108642578125,0.08843994140625
-0.13421630859375,0.538543701171875,0.017547607421875
-0.028350830078125,0.5150909423828125,-0.0648651123046875
-0.102447509765625,0.5156707763671875,-0.103668212890625
-0.2056732177734375,0.5623016357421875,0.031280517578125
-0.31085205078125,0.852447509765625,0.1751861572265625
-0.5233154296875,1.717376708984375,0.074951171875
-0.53515625,2.3790283203125,-0.16015625
-0.805023193359375,2.004501342773437,-0.3723297119140625
-1.013031005859375,1.4521331787109375,-0.3052825927734375
-0.850738525390625,0.9546051025390624,-0.010040283203125
-0.7463836669921875,0.564605712890625,0.25531005859375
-0.5796661376953125,0.3499298095703125,0.2812957763671875
-0.4492034912109375,0.2387542724609375,0.117767333984375
-0.3793487548828125,0.1318817138671875,0.0518798828125
-0.3907470703125,0.1591339111328125,0.0582733154296875
-0.3948822021484375,0.360748291015625,-0.0347747802734375
-0.334320068359375,0.5347747802734375,-0.1230316162109375
-0.49560546875,0.8199310302734375,-0.1686553955078125
-0.936279296875,1.6738739013671875,-0.249237060546875
-0.744476318359375,1.902679443359375,-0.18280029296875
-0.5865020751953125,2.0789794921875,-0.1659088134765625
-0.265594482421875,1.5032958984375,-0.1114501953125
-0.3615570068359375,0.9869842529296876,0.459625244140625
-0.34661865234375,0.6202239990234375,0.5401458740234375
-0.35455322265625,0.4476165771484375,0.207061767578125
-0.329254150390625,0.3917694091796875,0.100250244140625
-0.268585205078125,0.451751708984375,0.026611328125
-0.3284759521484375,0.588714599609375,-0.052398681640625
-0.46429443359375,0.711822509765625,-0.108673095703125
-0.58770751953125,0.6643218994140625,-0.0443115234375
-0.626739501953125,0.469207763671875,0.208160400390625
-0.6964111328125,0.3384552001953125,0.277984619140625
-0.6939697265625,0.6416015625,0.1142578125
-0.913177490234375,1.6662445068359375,-0.106658935546875
-0.9266357421875,2.2460479736328125,-0.2787628173828125
-0.7122344970703125,1.672271728515625,-0.45343017578125
-0.8105010986328125,1.1462554931640625,-0.498626708984375
-0.730865478515625,0.878875732421875,-0.2647857666015625
-0.471710205078125,0.5767059326171875,0.0753173828125
-0.3309783935546875,0.379547119140625,0.1485443115234375
-0.2874298095703125,0.336212158203125,-0.0293121337890625
-0.218505859375,0.354583740234375,-0.0086669921875
-0.1577911376953125,0.3470611572265625,0.1774444580078125
-0.1367034912109375,0.4027099609375,0.2660064697265625
-0.2050933837890625,0.5698089599609375,0.03875732421875
-0.3616485595703125,1.0555572509765625,-0.0682220458984375
-0.475433349609375,1.7615203857421875,-0.1212005615234375
-0.8022613525390625,2.478271484375,-0.1616058349609375
-0.744476318359375,1.769622802734375,-0.4612884521484375
-1.0050811767578125,1.0087127685546875,0.123199462890625
-0.7031707763671875,0.66497802734375,0.678619384765625
-0.4693450927734375,0.5422821044921875,0.2873992919921875
-0.4653778076171875,0.5263824462890625,0.136260986328125
-0.4723968505859375,0.4703521728515625,0.02264404296875
-0.460723876953125,0.4374237060546875,-0.10992431640625
-0.594482421875,0.446990966796875,-0.119903564453125
-0.7255401611328125,0.454071044921875,0.0799560546875
-0.8015289306640625,0.4338836669921875,0.2042388916015625
-1.0375823974609375,0.9293975830078124,0.023406982421875
-1.3506011962890625,1.993377685546875,-0.155670166015625
-1.3659515380859375,2.6295166015625,-0.486358642578125
-0.823760986328125,2.124740600585937,-0.69122314453125
-0.4227752685546875,1.690277099609375,-0.6415557861328125
0.054962158203125,1.2378082275390625,-0.1771087646484375
0.22711181640625,0.831573486328125,0.104522705078125
0.0642547607421875,0.525604248046875,0.07879638671875
-0.09210205078125,0.4625701904296875,0.0727996826171875
-0.16656494140625,0.4102020263671875,0.1749725341796875
0.0346221923828125,0.424285888671875,0.3042449951171875
0.1524505615234375,0.5503082275390625,0.2474365234375
-0.0086669921875,0.81658935546875,0.0102081298828125
-0.23431396484375,1.374359130859375,0.2240142822265625
-0.6353759765625,1.9574127197265625,0.206085205078125
-0.986907958984375,2.628662109375,-0.137115478515625
-0.7424163818359375,1.6847686767578125,-0.3190460205078125
-0.88970947265625,1.11395263671875,0.1288909912109375
-0.763641357421875,0.8220977783203125,0.3003387451171875
-0.65130615234375,0.7464599609375,0.202178955078125
-0.658355712890625,0.6728668212890625,0.23480224609375
-0.712890625,0.5875244140625,-0.0414276123046875
-0.7884674072265625,0.520782470703125,-0.25250244140625
-0.837646484375,0.5350341796875,-0.273468017578125
-0.6864776611328125,0.6162567138671875,-0.2167816162109375
-0.668731689453125,0.5247955322265625,-0.1171417236328125
-0.7584991455078125,0.4748992919921875,0.0359649658203125
-0.83380126953125,0.783599853515625,0.021209716796875
-1.1662445068359375,1.4431304931640625,-0.256011962890625
-1.2254180908203125,2.12298583984375,-0.367645263671875
-0.863311767578125,1.8883056640625,-0.3595123291015625
-0.577667236328125,1.3983001708984375,-0.254425048828125
-0.5374298095703125,1.138946533203125,-0.10296630859375
-0.3392181396484375,0.7758941650390625,-0.1533355712890625
-0.3979644775390625,0.6101226806640625,-0.071502685546875
-0.4440460205078125,0.4940185546875,-0.0977020263671875
-0.3968658447265625,0.427154541015625,-0.1467132568359375
-0.4378662109375,0.4141693115234375,-0.3739013671875
-0.34490966796875,0.40106201171875,-0.597259521484375
-0.477020263671875,0.3408966064453125,-0.750335693359375
-0.4669952392578125,0.293182373046875,-0.9297637939453124
-0.2367095947265625,0.16412353515625,-0.706756591796875
-0.1746368408203125,-0.02191162109375,-0.79827880859375
-0.304931640625,0.0164794921875,-1.228057861328125
-0.147979736328125,0.032501220703125,-1.322845458984375
0.0342864990234375,-0.0564727783203125,-1.28497314453125
-0.3251190185546875,-0.1707000732421875,-1.363739013671875
-0.1886749267578125,-0.1851959228515625,-1.391021728515625
-0.0491180419921875,-0.263458251953125,-1.05126953125
0.10113525390625,-0.2087554931640625,-1.3191375732421875
0.0088348388671875,-0.2877960205078125,-1.2707977294921875
-0.109588623046875,-0.2798919677734375,-1.0366973876953125
0.2320098876953125,-0.208251953125,-1.0095367431640625
0.07666015625,-0.369171142578125,-0.9301300048828124
-0.0717926025390625,-0.4816131591796875,-0.8028106689453125
-0.1482086181640625,-0.4898223876953125,-0.801025390625
-0.2147216796875,-0.4036407470703125,-0.859161376953125
-0.086456298828125,-0.3760223388671875,-0.8879547119140625
-0.115142822265625,-0.423675537109375,-0.7726287841796875
