AccelerationX,AccelerationY,AccelerationZ
0.877197265625,0.1806640625,-0.430755615234375
0.86669921875,0.153961181640625,-0.427764892578125
0.8543243408203125,0.1542205810546875,-0.4550018310546875
0.830322265625,0.1549224853515625,-0.4915618896484375
0.8253631591796875,0.1216278076171875,-0.474212646484375
0.817962646484375,0.0586090087890625,-0.525421142578125
0.7736968994140625,0.0819091796875,-0.5688018798828125
0.793975830078125,0.0154266357421875,-0.613006591796875
0.768402099609375,0.002410888671875,-0.5781707763671875
0.7272796630859375,0.0114288330078125,-0.5165252685546875
0.79150390625,0.0474853515625,-0.5380096435546875
0.84918212890625,0.09295654296875,-0.551422119140625
0.859619140625,0.0791473388671875,-0.5256805419921875
0.8486480712890625,0.1381072998046875,-0.55596923828125
0.8274993896484375,0.1557464599609375,-0.5112457275390625
0.865936279296875,0.12091064453125,-0.447845458984375
0.9248504638671876,0.087493896484375,-0.3612823486328125
1.1275177001953125,0.027069091796875,-0.1714630126953125
1.521392822265625,-0.042877197265625,-0.0583038330078125
1.33941650390625,0.12432861328125,0.0352020263671875
1.3019561767578125,0.2009124755859375,-0.121246337890625
1.06072998046875,0.3735504150390625,-0.1407470703125
0.9670257568359376,0.241241455078125,-0.0601654052734375
0.9485626220703124,0.1550140380859375,-0.0828399658203125
0.8238677978515625,0.15478515625,-0.1390533447265625
0.7205657958984375,0.1462554931640625,-0.1353302001953125
0.6462554931640625,0.114837646484375,-0.122955322265625
0.6640472412109375,0.0864105224609375,-0.104766845703125
0.7072906494140625,0.0773773193359375,-0.0849761962890625
0.8013763427734375,0.0692291259765625,-0.059814453125
0.942840576171875,0.094482421875,-0.0816192626953125
0.987396240234375,0.1741180419921875,-0.16619873046875
0.9445037841796876,0.23199462890625,-0.1998443603515625
0.975189208984375,0.2281036376953125,-0.2256927490234375
1.08807373046875,0.216552734375,-0.2150115966796875
1.3174896240234375,0.182464599609375,-0.068603515625
1.70928955078125,0.14862060546875,-0.2528228759765625
1.4579010009765625,0.28607177734375,-0.254302978515625
1.245574951171875,0.267242431640625,-0.160125732421875
1.239898681640625,0.23712158203125,-0.08099365234375
1.3473968505859375,0.12249755859375,-0.0201263427734375
1.2634429931640625,0.02667236328125,0.0278778076171875
1.0955810546875,0.03277587890625,0.03125
1.009857177734375,0.0379486083984375,0.0175933837890625
0.9392242431640624,0.0845489501953125,0.02423095703125
0.8724365234375,0.116180419921875,0.0525665283203125
0.8492889404296875,0.1156768798828125,0.06134033203125
0.8855743408203125,0.090179443359375,0.0875396728515625
1.087066650390625,0.0401153564453125,0.1240692138671875
1.12255859375,0.013916015625,0.1256561279296875
1.31988525390625,0.007049560546875,0.1334686279296875
1.2017974853515625,-0.0019073486328125,0.0203094482421875
1.065460205078125,0.045196533203125,-0.14263916015625
1.097015380859375,0.160980224609375,-0.2218475341796875
1.2220458984375,0.175506591796875,-0.231292724609375
1.0183868408203125,0.1138916015625,-0.1343994140625
0.8259429931640625,0.1190338134765625,-0.1694793701171875
0.7610015869140625,0.1082611083984375,-0.1517791748046875
0.787933349609375,0.0474395751953125,-0.047607421875
1.035125732421875,0.040130615234375,-0.0278167724609375
1.3639373779296875,0.086822509765625,-0.1316070556640625
1.3227996826171875,0.201446533203125,-0.2031707763671875
1.1208038330078125,0.2880706787109375,-0.2559814453125
1.157379150390625,0.30419921875,-0.3571014404296875
1.4864959716796875,0.306182861328125,-0.30389404296875
1.4955291748046875,0.337432861328125,-0.3254547119140625
1.2352752685546875,0.29901123046875,-0.2245635986328125
1.29241943359375,0.2445831298828125,-0.193878173828125
1.3839569091796875,0.2138671875,-0.1118621826171875
1.3986663818359375,0.1187744140625,-0.04339599609375
1.2597503662109375,0.0605010986328125,0.0021209716796875
1.1483917236328125,0.0590972900390625,-0.0153350830078125
1.1192474365234375,0.08203125,0.00933837890625
1.1481475830078125,0.0771331787109375,0.0690765380859375
1.116241455078125,0.0725250244140625,0.105865478515625
1.052886962890625,0.033050537109375,0.13775634765625
1.083404541015625,0.00830078125,0.135009765625
1.1125335693359375,0.0190277099609375,0.146026611328125
1.1238861083984375,0.0089569091796875,0.096954345703125
1.268890380859375,0.00762939453125,0.062286376953125
1.0300750732421875,0.039581298828125,-0.0471649169921875
0.8626861572265625,0.1112213134765625,-0.1046142578125
1.010101318359375,0.1567230224609375,-0.1456451416015625
1.20611572265625,0.1772308349609375,-0.1906890869140625
1.10400390625,0.150604248046875,-0.1624603271484375
1.003173828125,0.161224365234375,-0.1545867919921875
0.885223388671875,0.177276611328125,-0.1157379150390625
0.930206298828125,0.0666656494140625,-0.02099609375
1.155975341796875,0.0207672119140625,0.0167694091796875
1.376739501953125,0.0846099853515625,-0.1609954833984375
1.34197998046875,0.1981048583984375,-0.2462158203125
1.122528076171875,0.263275146484375,-0.289276123046875
1.2020111083984375,0.286529541015625,-0.4053192138671875
1.2357025146484375,0.2752685546875,-0.28656005859375
1.424591064453125,0.322235107421875,-0.4111480712890625
1.199951171875,0.3065032958984375,-0.328033447265625
1.3448028564453125,0.2702789306640625,-0.310211181640625
1.448760986328125,0.28765869140625,-0.1832733154296875
1.627685546875,0.1317138671875,-0.025421142578125
1.4907379150390625,0.0189666748046875,0.0590362548828125
1.2187957763671875,0.01361083984375,0.09698486328125
1.183807373046875,0.0113372802734375,0.1372833251953125
1.1286163330078125,0.0440826416015625,0.1578521728515625
1.07342529296875,0.073333740234375,0.153594970703125
0.995513916015625,0.094970703125,0.1447906494140625
0.9940948486328124,0.0881195068359375,0.1363677978515625
1.012359619140625,0.078094482421875,0.084716796875
1.021820068359375,0.0679779052734375,0.0337677001953125
1.1553497314453125,0.0294647216796875,0.08197021484375
1.0425262451171875,0.042755126953125,0.014892578125
0.981231689453125,0.024444580078125,-0.10028076171875
1.1249542236328125,0.108795166015625,-0.1571044921875
1.3094329833984375,0.1741790771484375,-0.2071075439453125
1.0801239013671875,0.1392822265625,-0.144012451171875
0.9212799072265624,0.1391448974609375,-0.088043212890625
0.9472198486328124,0.159149169921875,-0.060638427734375
1.1767120361328125,0.1232147216796875,-0.0052032470703125
1.40313720703125,0.124786376953125,-0.0472869873046875
1.4492950439453125,0.2013397216796875,-0.155487060546875
1.250152587890625,0.2983856201171875,-0.2224884033203125
1.083770751953125,0.300933837890625,-0.274261474609375
1.1609649658203125,0.257965087890625,-0.3794403076171875
1.3030242919921875,0.328826904296875,-0.325408935546875
1.547393798828125,0.345855712890625,-0.4013671875
1.294677734375,0.34356689453125,-0.3906402587890625
1.112091064453125,0.1994171142578125,-0.2506256103515625
1.27093505859375,0.1884307861328125,-0.226837158203125
1.4451904296875,-0.145904541015625,-0.1354217529296875
1.42694091796875,0.1268310546875,-0.0752105712890625
1.3437652587890625,0.1028289794921875,-0.019287109375
1.23773193359375,0.086578369140625,0.0806121826171875
1.2482757568359375,0.0682373046875,0.12200927734375
1.1959075927734375,0.061553955078125,0.1402130126953125
1.1619720458984375,0.046661376953125,0.1873931884765625
0.973114013671875,0.0587615966796875,0.1908721923828125
0.8965606689453125,0.0632781982421875,0.1191558837890625
1.0518035888671875,0.0543212890625,0.070068359375
1.0413970947265625,0.0616302490234375,0.0456390380859375
1.1053924560546875,-0.0013580322265625,-0.0070343017578125
0.846343994140625,0.063323974609375,-0.1197052001953125
0.82281494140625,0.047943115234375,-0.1351470947265625
1.0554656982421875,0.095947265625,-0.1700897216796875
1.35430908203125,0.1312103271484375,-0.168853759765625
1.2297821044921875,0.17010498046875,-0.2049713134765625
1.02325439453125,0.20623779296875,-0.188201904296875
0.9730987548828124,0.1910552978515625,-0.09527587890625
1.12591552734375,0.1027069091796875,0.007049560546875
1.414520263671875,0.0551605224609375,-0.03076171875
1.4790496826171875,0.0948333740234375,-0.165069580078125
1.3161773681640625,0.1509552001953125,-0.2156524658203125
1.2010498046875,0.1861724853515625,-0.312103271484375
1.3304901123046875,0.25927734375,-0.4092559814453125
1.4814300537109375,0.3459625244140625,-0.395843505859375
1.307342529296875,0.3505401611328125,-0.4003753662109375
1.07427978515625,0.209991455078125,-0.2646331787109375
1.1412353515625,0.2147216796875,-0.1983489990234375
1.245574951171875,0.18316650390625,-0.115570068359375
1.3553009033203125,0.0822601318359375,-0.079742431640625
1.260833740234375,0.0556488037109375,-0.0648040771484375
1.214599609375,0.0552978515625,-0.014373779296875
1.2359771728515625,0.0523681640625,0.0846710205078125
1.231292724609375,0.045867919921875,0.111663818359375
1.143646240234375,0.0448150634765625,0.12054443359375
0.8940887451171875,0.06011962890625,0.1209716796875
0.9113006591796876,0.0587158203125,0.0556182861328125
1.05340576171875,0.0682830810546875,0.0587921142578125
1.18963623046875,0.047088623046875,0.1128692626953125
1.2601776123046875,-0.007537841796875,0.0806121826171875
0.92645263671875,0.061004638671875,-0.1068572998046875
0.870880126953125,0.09869384765625,-0.20318603515625
1.075592041015625,0.1783599853515625,-0.207794189453125
1.094818115234375,0.1337738037109375,-0.123687744140625
0.94317626953125,0.0563507080078125,-0.06683349609375
0.8602142333984375,0.054656982421875,-0.0717926025390625
0.897918701171875,0.0341949462890625,-0.0587310791015625
1.0717010498046875,0.04107666015625,-0.0505828857421875
1.29754638671875,0.112213134765625,-0.1037750244140625
1.4119110107421875,0.2169952392578125,-0.256317138671875
1.1972503662109375,0.2818603515625,-0.2712860107421875
1.1649017333984375,0.259368896484375,-0.41448974609375
1.2645416259765625,0.1690826416015625,-0.3132171630859375
1.426422119140625,0.1275634765625,-0.24993896484375
1.3949432373046875,0.18994140625,-0.3386077880859375
1.2088165283203125,0.1843109130859375,-0.1978607177734375
1.2959136962890625,0.2106475830078125,-0.1835174560546875
1.287261962890625,0.2339324951171875,-0.1652984619140625
1.17694091796875,0.1703338623046875,-0.115234375
1.1465301513671875,0.1345367431640625,-0.05950927734375
1.210357666015625,0.1160125732421875,0.0069732666015625
1.2736663818359375,0.07659912109375,0.073333740234375
1.232818603515625,0.069000244140625,0.10601806640625
1.055328369140625,0.0389404296875,0.1500396728515625
0.9406280517578124,0.03131103515625,0.1697235107421875
0.9552459716796876,0.0426025390625,0.1204376220703125
1.045623779296875,0.0579071044921875,0.0694580078125
1.2003631591796875,0.0687103271484375,0.044036865234375
1.0611572265625,0.053131103515625,-0.0300750732421875
0.9779205322265624,0.0434722900390625,-0.0985107421875
0.9788970947265624,0.09783935546875,-0.240753173828125
1.076934814453125,0.140838623046875,-0.288330078125
0.964996337890625,0.080596923828125,-0.142242431640625
0.814544677734375,0.0655517578125,-0.0392303466796875
0.80230712890625,0.106109619140625,-0.1178131103515625
0.959075927734375,0.132293701171875,-0.1342620849609375
1.1462249755859375,0.169097900390625,-0.06646728515625
1.3512420654296875,0.201263427734375,-0.1241912841796875
1.2618255615234375,0.2362213134765625,-0.20391845703125
1.0605621337890625,0.21826171875,-0.2042694091796875
1.25433349609375,0.119140625,-0.2439727783203125
1.424957275390625,0.1262664794921875,-0.17486572265625
1.5518341064453125,0.17205810546875,-0.327392578125
1.28594970703125,0.257171630859375,-0.4259185791015625
1.1364593505859375,0.2428741455078125,-0.45233154296875
1.224151611328125,0.28753662109375,-0.314056396484375
1.2587890625,-0.0091705322265625,-0.139617919921875
1.1054840087890625,0.20611572265625,-0.094268798828125
1.0737762451171875,-0.0335540771484375,-0.0384674072265625
1.08258056640625,-0.027496337890625,0.0150146484375
1.204742431640625,0.044891357421875,0.005615234375
1.203277587890625,0.133941650390625,0.03460693359375
1.1109771728515625,0.11871337890625,0.1102294921875
0.936370849609375,0.0750732421875,0.1428680419921875
0.9599609375,0.0586090087890625,0.1129302978515625
1.1454620361328125,0.03289794921875,0.10430908203125
1.0649261474609375,0.0370635986328125,0.103729248046875
1.138702392578125,-0.0071868896484375,-0.014678955078125
0.7816925048828125,0.0781402587890625,-0.122406005859375
0.8595428466796875,0.03912353515625,-0.112274169921875
0.944305419921875,0.098388671875,-0.2015380859375
1.0577392578125,0.11639404296875,-0.2172393798828125
0.9691619873046876,0.1182098388671875,-0.1409149169921875
0.874176025390625,0.1311798095703125,-0.1388092041015625
0.9529876708984376,0.1228485107421875,-0.2158355712890625
1.1256103515625,0.1300048828125,-0.0712738037109375
1.2960357666015625,0.130035400390625,-0.0727996826171875
1.279754638671875,0.1852264404296875,-0.24664306640625
1.096954345703125,0.2373046875,-0.2587432861328125
1.13812255859375,0.2079010009765625,-0.2945098876953125
1.324005126953125,0.202056884765625,-0.35382080078125
1.47314453125,0.19366455078125,-0.3394622802734375
1.308258056640625,0.234710693359375,-0.36669921875
1.0888671875,0.2036895751953125,-0.314788818359375
1.2262115478515625,0.208343505859375,-0.2599945068359375
1.2934722900390625,0.2498931884765625,-0.14984130859375
1.2888031005859375,0.1722259521484375,-0.103607177734375
1.1598052978515625,0.0918121337890625,-0.0858917236328125
1.09637451171875,0.0572509765625,-0.048095703125
1.11090087890625,0.0565948486328125,0.01007080078125
1.175506591796875,0.05108642578125,0.057647705078125
1.3058013916015625,0.0426177978515625,0.0588226318359375
1.040496826171875,0.0295867919921875,0.123077392578125
0.816986083984375,0.0125732421875,0.0985870361328125
0.93206787109375,0.012481689453125,0.06524658203125
1.04608154296875,0.0018157958984375,0.079193115234375
1.247467041015625,-0.016326904296875,0.0492401123046875
0.9394073486328124,0.0774993896484375,-0.0881805419921875
0.79827880859375,0.1037139892578125,-0.159454345703125
0.9887542724609376,0.1248016357421875,-0.17608642578125
1.192474365234375,0.1555023193359375,-0.18218994140625
1.1388702392578125,0.142333984375,-0.134063720703125
0.995452880859375,0.1540679931640625,-0.14459228515625
0.926544189453125,0.1427459716796875,-0.1004638671875
1.0646820068359375,0.0849151611328125,-0.0274200439453125
1.271728515625,0.0713653564453125,-0.057220458984375
1.29412841796875,0.0910186767578125,-0.1581268310546875
1.136505126953125,0.135284423828125,-0.190093994140625
1.0576019287109375,0.164093017578125,-0.270050048828125
1.2240447998046875,0.179931640625,-0.37261962890625
1.4816131591796875,0.2335662841796875,-0.3379058837890625
1.525787353515625,0.283721923828125,-0.36871337890625
1.111846923828125,0.2452850341796875,-0.329742431640625
0.89801025390625,0.1363983154296875,-0.2260894775390625
1.0764007568359375,0.16510009765625,-0.18463134765625
1.2894744873046875,0.1601104736328125,-0.12042236328125
1.2521209716796875,0.1058502197265625,-0.06903076171875
1.1159820556640625,0.07830810546875,-0.0580902099609375
1.1010589599609375,0.06793212890625,0.0018310546875
1.1615142822265625,0.0657196044921875,0.0714569091796875
1.220489501953125,0.0668792724609375,0.0969696044921875
1.0849456787109375,0.062286376953125,0.0945892333984375
0.87091064453125,0.06591796875,0.0742340087890625
0.8536376953125,0.057769775390625,0.0331268310546875
0.99322509765625,0.06146240234375,-0.004852294921875
1.0037078857421875,0.0885467529296875,0.0141754150390625
1.247222900390625,-0.0113983154296875,-0.0086669921875
1.0614776611328125,0.0229339599609375,-0.065582275390625
0.9097747802734376,0.0705108642578125,-0.1309814453125
1.110321044921875,0.1448516845703125,-0.2252960205078125
1.1842193603515625,0.150482177734375,-0.2132110595703125
1.0825653076171875,0.1087799072265625,-0.120849609375
0.8753509521484375,0.1183929443359375,-0.091888427734375
0.8343048095703125,0.0918731689453125,-0.0658721923828125
0.9629058837890624,0.0915374755859375,-0.0884246826171875
1.09259033203125,0.1280670166015625,-0.0841064453125
1.2017364501953125,0.1478729248046875,-0.1373138427734375
1.0675811767578125,0.168670654296875,-0.141448974609375
1.0518798828125,0.1768951416015625,-0.2355499267578125
1.1690826416015625,0.2007904052734375,-0.2942352294921875
1.44573974609375,0.223236083984375,-0.2574310302734375
1.433990478515625,0.2135162353515625,-0.237091064453125
1.140228271484375,0.1710052490234375,-0.263641357421875
0.8927154541015625,0.1665191650390625,-0.228515625
0.9864654541015624,0.18707275390625,-0.217559814453125
1.2071380615234375,0.1739349365234375,-0.169586181640625
1.2932586669921875,0.0982208251953125,-0.1219024658203125
1.19818115234375,0.060455322265625,-0.121917724609375
1.1958465576171875,0.028778076171875,-0.0827178955078125
1.172454833984375,0.04010009765625,-0.0193328857421875
1.1383209228515625,0.0407562255859375,-0.0478973388671875
0.967010498046875,0.032989501953125,-0.0479888916015625
0.784912109375,0.02777099609375,-0.04217529296875
0.7427215576171875,0.0260467529296875,-0.015777587890625
0.86456298828125,0.0193023681640625,-0.0387420654296875
0.8525390625,0.0360870361328125,-0.0407867431640625
1.240386962890625,-0.01739501953125,-0.0207672119140625
1.201873779296875,0.0429840087890625,-0.0118255615234375
1.094573974609375,0.1009063720703125,-0.08624267578125
1.074981689453125,0.1841888427734375,-0.258392333984375
1.1645660400390625,0.24176025390625,-0.3166961669921875
1.1201934814453125,0.1607818603515625,-0.1150054931640625
1.014862060546875,0.04290771484375,-0.0046234130859375
0.87567138671875,0.0109405517578125,-0.0002899169921875
0.8970489501953125,-0.002410888671875,-0.007293701171875
1.0266876220703125,0.077667236328125,-0.0149383544921875
1.10882568359375,0.1474151611328125,-0.0230712890625
1.06903076171875,0.203155517578125,-0.027862548828125
0.9571075439453124,0.2410125732421875,-0.0507965087890625
1.0215606689453125,0.2619476318359375,-0.12445068359375
1.31390380859375,0.2572174072265625,-0.1057891845703125
1.6378021240234375,0.219940185546875,-0.158843994140625
1.0618743896484375,0.2290496826171875,-0.161895751953125
0.6929168701171875,0.2164154052734375,-0.281219482421875
0.6451873779296875,0.2532806396484375,-0.3103790283203125
0.9256134033203124,0.2467041015625,-0.2852020263671875
1.21734619140625,0.1732635498046875,-0.1764984130859375
1.2996673583984375,0.0868377685546875,-0.1959228515625
1.0392913818359375,0.056304931640625,-0.1761932373046875
1.1158599853515625,0.0193939208984375,-0.14501953125
1.2611846923828125,0.0329437255859375,-0.125244140625
1.179107666015625,0.055755615234375,-0.13299560546875
1.045928955078125,0.065765380859375,-0.15069580078125
0.9068145751953124,0.060943603515625,-0.11676025390625
0.8345794677734375,0.0605316162109375,-0.0978851318359375
0.880523681640625,0.037506103515625,-0.1349945068359375
0.9873199462890624,0.021636962890625,-0.1262969970703125
1.0387420654296875,0.016510009765625,0.0070037841796875
1.3251800537109375,-0.0623931884765625,0.0975494384765625
1.218658447265625,0.00494384765625,0.019195556640625
1.014984130859375,0.1077423095703125,-0.1342620849609375
0.9501800537109376,0.1486053466796875,-0.13671875
0.9869384765625,0.0903472900390625,-0.00506591796875
1.0855865478515625,0.0504302978515625,0.08233642578125
1.15875244140625,0.0921173095703125,0.07257080078125
1.038360595703125,0.1496429443359375,0.0784454345703125
0.965606689453125,0.1793975830078125,0.056732177734375
0.975738525390625,0.21160888671875,0.0432891845703125
1.039306640625,0.2212982177734375,0.0518951416015625
1.0530242919921875,0.225494384765625,0.09967041015625
1.05096435546875,0.238555908203125,0.06768798828125
0.9978790283203124,0.25811767578125,0.0260009765625
1.144500732421875,0.2492218017578125,-0.01959228515625
1.2584686279296875,0.2812347412109375,-0.076904296875
1.4857635498046875,0.25146484375,-0.191009521484375
1.2418365478515625,0.2562408447265625,-0.199554443359375
1.0300140380859375,0.3205718994140625,-0.3902435302734375
0.7133636474609375,0.3663177490234375,-0.4759063720703125
0.8649444580078125,0.39093017578125,-0.4344635009765625
1.24530029296875,0.3253326416015625,-0.2608642578125
1.49493408203125,0.115509033203125,-0.1205902099609375
1.530303955078125,-0.0828094482421875,-0.1248626708984375
1.3361053466796875,-0.12310791015625,-0.0877838134765625
1.262115478515625,-0.0996856689453125,-0.037139892578125
1.25567626953125,-0.042816162109375,-0.0615081787109375
1.12274169921875,0.02978515625,-0.0733642578125
0.9261627197265624,0.0691680908203125,-0.0902252197265625
0.801605224609375,0.062591552734375,-0.075897216796875
0.8407440185546875,0.042816162109375,-0.079925537109375
0.9231719970703124,-0.00238037109375,-0.0231170654296875
0.9055633544921876,-0.0345306396484375,0.1071929931640625
1.0838165283203125,-0.0581512451171875,0.1064910888671875
1.0238800048828125,0.0786895751953125,0.0336151123046875
1.1650848388671875,0.1800384521484375,-0.0847625732421875
1.4355316162109375,0.2381744384765625,-0.1620330810546875
1.295166015625,0.210174560546875,-0.0497589111328125
1.05999755859375,0.1046905517578125,0.0153961181640625
0.951263427734375,0.0446014404296875,-0.0164031982421875
0.96380615234375,0.037750244140625,0.0438690185546875
1.059295654296875,0.094085693359375,0.0511016845703125
1.1857757568359375,0.1395721435546875,0.043914794921875
1.203338623046875,0.201507568359375,0.0265350341796875
1.11260986328125,0.270355224609375,-0.0293731689453125
1.1114654541015625,0.346099853515625,-0.103912353515625
1.221893310546875,0.5381317138671875,-0.361724853515625
1.2611083984375,0.7432708740234375,-0.4100494384765625
1.1899871826171875,0.53753662109375,-0.35198974609375
1.2329559326171875,0.3211517333984375,-0.1949920654296875
1.2581024169921875,0.2080078125,-0.0973968505859375
1.202789306640625,0.1019744873046875,-0.036865234375
1.3832550048828125,0.022491455078125,-0.0545806884765625
1.48760986328125,0.0297088623046875,-0.105438232421875
1.4028167724609375,0.0290985107421875,-0.0417327880859375
1.362091064453125,0.03997802734375,0.0419921875
1.3221282958984375,0.0555419921875,0.050018310546875
1.074462890625,0.058868408203125,0.0644378662109375
0.877105712890625,0.04730224609375,0.0471343994140625
0.810699462890625,0.028472900390625,0.0315399169921875
0.92596435546875,0.011199951171875,0.0123748779296875
0.912994384765625,0.01812744140625,0.0008544921875
1.127349853515625,-0.0367431640625,0.033111572265625
0.9736328125,-0.00347900390625,-0.053466796875
0.986602783203125,0.0274810791015625,-0.0390167236328125
1.2564697265625,0.097015380859375,-0.101287841796875
1.4976959228515625,0.18438720703125,-0.238677978515625
1.26812744140625,0.2129364013671875,-0.1895751953125
0.9372100830078124,0.2148590087890625,-0.060577392578125
0.9082489013671876,0.1719970703125,-0.0211944580078125
1.104705810546875,0.11700439453125,0.0389556884765625
1.242706298828125,0.1068572998046875,0.0689697265625
1.321502685546875,0.1546630859375,-0.0581207275390625
1.0507659912109375,0.2051544189453125,-0.0870819091796875
0.9230194091796876,0.1906890869140625,-0.1214447021484375
1.1706695556640625,0.2159423828125,-0.2204132080078125
1.2147369384765625,0.3380126953125,-0.1828155517578125
1.395416259765625,0.417633056640625,-0.3577423095703125
1.259124755859375,0.5082855224609375,-0.383026123046875
1.2328033447265625,0.3277435302734375,-0.310028076171875
1.20037841796875,0.3032684326171875,-0.181488037109375
1.3540191650390625,0.192138671875,-0.120208740234375
1.375732421875,0.0512542724609375,-0.05206298828125
1.31304931640625,-0.0067138671875,-0.0880279541015625
1.2526702880859375,-0.01812744140625,-0.0301361083984375
1.1952972412109375,0.002105712890625,0.0612335205078125
1.22125244140625,0.018585205078125,0.0725555419921875
1.065704345703125,0.025909423828125,0.098480224609375
0.9217987060546876,0.041473388671875,0.0994720458984375
0.8433380126953125,0.0422821044921875,0.080322265625
0.91510009765625,0.0386199951171875,0.0702362060546875
1.03033447265625,0.030364990234375,0.069427490234375
1.171142578125,-0.000579833984375,0.0856475830078125
0.89385986328125,0.0929412841796875,-0.0863800048828125
0.9755401611328124,0.1182708740234375,-0.1437225341796875
1.3963623046875,0.149139404296875,-0.1728668212890625
1.3355865478515625,0.13433837890625,-0.1237030029296875
0.994903564453125,0.071441650390625,-0.112152099609375
0.85174560546875,0.0610809326171875,-0.0711669921875
0.9320220947265624,0.0233154296875,-0.0384979248046875
1.175140380859375,0.026580810546875,-0.0248870849609375
1.3517913818359375,0.10076904296875,-0.07928466796875
1.35418701171875,0.2135009765625,-0.1589202880859375
1.12017822265625,0.3642120361328125,-0.1839141845703125
1.06219482421875,0.51165771484375,-0.37774658203125
1.1112213134765625,0.422607421875,-0.3193511962890625
1.24957275390625,0.300750732421875,-0.1916351318359375
1.3749847412109375,0.330474853515625,-0.1763763427734375
1.283935546875,0.2390899658203125,-0.1605224609375
1.24237060546875,0.2234039306640625,-0.1563262939453125
1.435577392578125,0.3399810791015625,-0.218414306640625
1.44122314453125,0.2839202880859375,-0.099456787109375
1.30908203125,0.142547607421875,-0.02618408203125
1.170928955078125,0.073699951171875,0.0583648681640625
1.1268157958984375,0.0036468505859375,0.093505859375
1.0938720703125,-0.0144195556640625,0.1082305908203125
1.05999755859375,0.0047607421875,0.1063385009765625
0.9625244140625,0.03277587890625,0.111785888671875
0.8351287841796875,0.0520172119140625,0.1126251220703125
0.8802490234375,0.0559539794921875,0.1061553955078125
0.917236328125,0.064208984375,0.061370849609375
1.186920166015625,0.0408782958984375,0.0993804931640625
1.1472015380859375,0.042816162109375,0.007110595703125
0.999176025390625,0.1029815673828125,-0.1491851806640625
1.1340179443359375,0.1446990966796875,-0.1832275390625
1.27484130859375,0.1359100341796875,-0.1174163818359375
1.2199554443359375,0.09515380859375,-0.0643463134765625
1.001220703125,0.0988922119140625,-0.1451263427734375
0.788116455078125,0.0946502685546875,-0.0981903076171875
0.865386962890625,0.0482635498046875,-0.031219482421875
1.10174560546875,0.0643463134765625,-0.012542724609375
1.35394287109375,0.1030426025390625,-0.02679443359375
1.2831573486328125,0.2106781005859375,-0.1189727783203125
1.18438720703125,0.3232574462890625,-0.26409912109375
1.0760498046875,0.4356689453125,-0.386627197265625
1.0633697509765625,0.453521728515625,-0.3567047119140625
1.3742523193359375,0.3698577880859375,-0.34747314453125
1.4881744384765625,0.306365966796875,-0.288665771484375
1.127288818359375,0.197052001953125,-0.13201904296875
1.2304229736328125,0.177825927734375,-0.186126708984375
1.3736724853515625,0.21875,-0.154815673828125
1.378082275390625,0.135589599609375,-0.05426025390625
1.190673828125,0.0972137451171875,-0.00048828125
1.1658935546875,0.072509765625,0.0418548583984375
1.1949462890625,0.045318603515625,0.0869293212890625
1.181610107421875,0.0283050537109375,0.1237640380859375
1.078155517578125,0.0239105224609375,0.157012939453125
0.9177703857421876,0.03118896484375,0.17218017578125
0.8615875244140625,0.0451812744140625,0.136962890625
0.9545745849609376,0.05877685546875,0.11651611328125
0.9783477783203124,0.061187744140625,0.0641632080078125
1.17169189453125,0.0339508056640625,0.03375244140625
0.892364501953125,0.1002655029296875,-0.07830810546875
0.935333251953125,0.086181640625,-0.1217041015625
1.204620361328125,0.1343841552734375,-0.1818695068359375
1.3108673095703125,0.169952392578125,-0.1617584228515625
1.13916015625,0.1511383056640625,-0.1454620361328125
0.9473724365234376,0.1707305908203125,-0.1550140380859375
0.9328765869140624,0.1534271240234375,-0.0718231201171875
1.0954742431640625,0.08953857421875,-0.0138397216796875
1.311981201171875,0.0858154296875,-0.0469512939453125
1.3154449462890625,0.1400909423828125,-0.1314239501953125
1.156829833984375,0.1938629150390625,-0.1641387939453125
1.088043212890625,0.2234039306640625,-0.3027801513671875
1.21063232421875,0.31878662109375,-0.465972900390625
1.192840576171875,0.324920654296875,-0.3756256103515625
1.3413238525390625,0.2829132080078125,-0.4097442626953125
1.2484588623046875,0.1609344482421875,-0.3448333740234375
1.3966064453125,0.1523284912109375,-0.2793426513671875
1.4542236328125,0.1888427734375,-0.154632568359375
1.4889068603515625,0.0848541259765625,-0.045562744140625
1.2798919677734375,0.0113067626953125,0.004730224609375
1.15740966796875,-0.0047760009765625,0.0295867919921875
1.1773834228515625,0.00982666015625,0.0651397705078125
1.19647216796875,0.0439910888671875,0.125885009765625
1.1590576171875,0.0635223388671875,0.1617584228515625
0.9830780029296876,0.066558837890625,0.1567535400390625
0.7980194091796875,0.07049560546875,0.1343994140625
0.925384521484375,0.0657958984375,0.10235595703125
0.9293975830078124,0.0671539306640625,0.0822296142578125
1.1629486083984375,0.0162506103515625,0.049041748046875
0.8676910400390625,0.0891571044921875,-0.0601806640625
0.8554534912109375,0.1000213623046875,-0.0760955810546875
1.038909912109375,0.12017822265625,-0.1846771240234375
1.25537109375,0.171142578125,-0.3627471923828125
1.18896484375,0.1295166015625,-0.2006072998046875
0.99237060546875,0.0906829833984375,-0.148162841796875
0.9821929931640624,-0.02447509765625,-0.0861968994140625
1.2110595703125,-0.065704345703125,-0.0184478759765625
1.4282073974609375,0.04559326171875,-0.05438232421875
1.4306640625,0.2170257568359375,-0.23101806640625
1.09796142578125,0.35430908203125,-0.2764434814453125
1.0053253173828125,0.3393402099609375,-0.3080902099609375
1.1789398193359375,0.3082122802734375,-0.339691162109375
1.3211517333984375,0.27099609375,-0.24102783203125
1.405364990234375,0.21710205078125,-0.2714691162109375
1.126129150390625,0.18731689453125,-0.2415313720703125
1.130279541015625,0.1663970947265625,-0.2084503173828125
1.2988433837890625,0.253143310546875,-0.1634063720703125
1.37884521484375,0.18145751953125,-0.0785980224609375
1.2012939453125,0.0953216552734375,-0.028656005859375
1.0647735595703125,0.0556488037109375,-0.008270263671875
1.0727996826171875,0.0429840087890625,0.0335693359375
1.17266845703125,0.033782958984375,0.078369140625
1.2148895263671875,0.0285797119140625,0.105743408203125
1.048095703125,0.0409393310546875,0.1172332763671875
0.8596649169921875,0.0496063232421875,0.10699462890625
0.9410247802734376,0.057769775390625,0.07476806640625
1.0361175537109375,0.05877685546875,0.0594024658203125
1.148529052734375,0.02764892578125,0.081329345703125
1.1540985107421875,-0.0137481689453125,0.0240936279296875
1.0164794921875,0.05364990234375,-0.0875244140625
0.9174957275390624,0.133636474609375,-0.1718292236328125
1.144287109375,0.1788482666015625,-0.242156982421875
1.18609619140625,0.15545654296875,-0.133392333984375
1.061431884765625,0.109466552734375,-0.06005859375
0.893524169921875,0.1188507080078125,-0.0953369140625
0.895477294921875,0.0882110595703125,-0.0806732177734375
1.026336669921875,0.0899200439453125,-0.0507354736328125
1.204376220703125,0.107208251953125,-0.1013946533203125
1.195068359375,0.146697998046875,-0.2104949951171875
1.027984619140625,0.164306640625,-0.2416534423828125
0.97979736328125,0.13702392578125,-0.2946319580078125
1.1689453125,0.10028076171875,-0.399505615234375
1.3492889404296875,0.1038665771484375,-0.3308563232421875
1.4344329833984375,0.1269073486328125,-0.2628173828125
1.2129364013671875,0.164154052734375,-0.2947998046875
0.9826202392578124,0.13812255859375,-0.1519317626953125
1.2581787109375,0.16497802734375,-0.16131591796875
1.4554595947265625,0.2015380859375,-0.13299560546875
1.3892822265625,0.148284912109375,-0.091461181640625
1.1371002197265625,0.1210784912109375,-0.0411529541015625
1.0193328857421875,0.0818023681640625,0.04150390625
0.98828125,0.047821044921875,0.0860443115234375
0.9640045166015624,0.036468505859375,0.1051483154296875
0.9394683837890624,0.0301361083984375,0.1030426025390625
0.8357086181640625,0.03521728515625,0.1012115478515625
0.8363037109375,0.0358734130859375,0.0805206298828125
0.966217041015625,0.0503997802734375,0.098602294921875
0.97998046875,0.04461669921875,0.05914306640625
1.232147216796875,0.0031280517578125,0.0548095703125
1.0564422607421875,0.0347442626953125,-0.03955078125
0.9692230224609376,0.1096038818359375,-0.1090087890625
1.078887939453125,0.1837921142578125,-0.220733642578125
1.3103485107421875,0.2247467041015625,-0.23944091796875
1.3875274658203125,0.2015838623046875,-0.1367950439453125
1.085296630859375,0.18310546875,-0.11016845703125
0.8095703125,0.1271514892578125,-0.099456787109375
0.8614044189453125,0.051666259765625,-0.0745697021484375
1.0422210693359375,0.0514068603515625,-0.0504150390625
1.226287841796875,0.084564208984375,-0.1371917724609375
1.143646240234375,0.1575927734375,-0.2679595947265625
0.9978179931640624,0.1762847900390625,-0.275115966796875
1.0909271240234375,0.191131591796875,-0.4019012451171875
1.196990966796875,0.285858154296875,-0.4053192138671875
1.3545074462890625,0.3007965087890625,-0.37762451171875
1.354217529296875,0.2353973388671875,-0.2647552490234375
1.2373809814453125,0.140899658203125,-0.1907196044921875
1.30767822265625,0.1328582763671875,-0.1356201171875
1.39166259765625,0.156585693359375,-0.110992431640625
1.396636962890625,0.1160888671875,-0.0246734619140625
1.2242889404296875,0.075958251953125,0.0154571533203125
1.0946502685546875,0.0551910400390625,0.04754638671875
1.0843658447265625,0.04156494140625,0.083099365234375
1.077178955078125,0.0445556640625,0.117706298828125
1.0318756103515625,0.0446929931640625,0.1401519775390625
0.880645751953125,0.0510711669921875,0.133819580078125
0.7476043701171875,0.0629425048828125,0.1038818359375
0.800537109375,0.067779541015625,0.060150146484375
0.9276275634765624,0.0596923828125,-0.023406982421875
1.0737457275390625,0.057403564453125,0.0105438232421875
1.152099609375,0.0028076171875,-0.050384521484375
1.0377044677734375,0.0371856689453125,-0.028411865234375
1.0895843505859375,0.078033447265625,-0.0975341796875
1.31103515625,0.177215576171875,-0.271087646484375
1.3466644287109375,0.2244415283203125,-0.2424163818359375
1.1255340576171875,0.2115478515625,-0.125335693359375
0.8820037841796875,0.1680755615234375,-0.0803375244140625
0.96087646484375,0.06097412109375,-0.0499420166015625
1.14202880859375,0.029632568359375,-0.045013427734375
1.292083740234375,0.063812255859375,-0.1545257568359375
1.1718902587890625,0.13848876953125,-0.28985595703125
0.9719696044921876,0.169281005859375,-0.2780609130859375
1.042449951171875,0.1497802734375,-0.3318328857421875
1.330322265625,0.203033447265625,-0.3871002197265625
1.4915008544921875,0.2779083251953125,-0.366363525390625
1.2368927001953125,0.2710418701171875,-0.3251953125
1.056060791015625,0.1501922607421875,-0.2249908447265625
1.2851104736328125,0.143402099609375,-0.123016357421875
1.47021484375,0.167877197265625,-0.1043701171875
1.4146881103515625,0.1271820068359375,-0.075775146484375
1.1504058837890625,0.102874755859375,-0.00762939453125
1.071685791015625,0.0617218017578125,0.050628662109375
1.102813720703125,0.0486297607421875,0.0857391357421875
1.1427001953125,0.0460662841796875,0.10687255859375
1.0290374755859375,0.04559326171875,0.129241943359375
0.8219146728515625,0.0537109375,0.147918701171875
0.718292236328125,0.0604705810546875,0.1348876953125
0.8123016357421875,0.0558013916015625,0.10015869140625
0.9777374267578124,0.068328857421875,0.0598602294921875
0.8856658935546875,0.118499755859375,-0.041046142578125
1.212738037109375,0.0419921875,-0.064361572265625
1.123199462890625,0.0158233642578125,0.04736328125
1.289886474609375,-0.0070037841796875,0.0068206787109375
1.159698486328125,0.1136474609375,-0.2409820556640625
1.183380126953125,0.200958251953125,-0.2772369384765625
1.169647216796875,0.2113800048828125,-0.1948089599609375
1.023773193359375,0.185699462890625,-0.124267578125
1.0127105712890625,0.15484619140625,-0.0842742919921875
1.1695098876953125,0.108245849609375,-0.0968017578125
1.3106536865234375,0.1326751708984375,-0.15643310546875
1.221099853515625,0.19171142578125,-0.2431640625
0.9203643798828124,0.190277099609375,-0.2466888427734375
0.7781982421875,0.156585693359375,-0.244903564453125
1.075103759765625,0.13653564453125,-0.310577392578125
1.2214202880859375,0.221527099609375,-0.212646484375
1.3178253173828125,0.23944091796875,-0.2825775146484375
1.1985931396484375,0.25140380859375,-0.28857421875
1.1987152099609375,0.2411346435546875,-0.2191619873046875
1.479248046875,0.280792236328125,-0.143798828125
1.60784912109375,0.210479736328125,-0.0235137939453125
1.4903564453125,0.096221923828125,0.0383758544921875
1.218658447265625,0.04400634765625,0.0677490234375
1.0480499267578125,0.013641357421875,0.0981903076171875
1.011749267578125,0.0210723876953125,0.1084136962890625
1.0032958984375,0.0413970947265625,0.11767578125
0.97314453125,0.0768280029296875,0.1255035400390625
0.8639373779296875,0.0792388916015625,0.1561279296875
0.718353271484375,0.0828094482421875,0.1840362548828125
0.7039642333984375,0.10009765625,0.179962158203125
0.8679962158203125,0.0905303955078125,0.158294677734375
1.3142547607421875,0.06927490234375,0.0524749755859375
1.1474151611328125,0.18548583984375,-0.0352325439453125
0.902099609375,0.19287109375,-0.4689788818359375
1.1539306640625,0.16583251953125,-0.5602569580078125
1.66094970703125,0.2961273193359375,-0.4570465087890625
1.3460235595703125,0.313323974609375,-0.362579345703125
0.9383392333984376,0.1110382080078125,-0.3698272705078125
0.7655029296875,0.0970611572265625,-0.521575927734375
0.781829833984375,0.16448974609375,-0.540985107421875
0.8369903564453125,0.222259521484375,-0.4999237060546875
0.91326904296875,0.2291259765625,-0.446807861328125
0.8823699951171875,0.249786376953125,-0.334259033203125
0.9196624755859376,0.289520263671875,-0.2204437255859375
1.0511932373046875,0.2763519287109375,0.0047760009765625
1.288848876953125,0.1652069091796875,0.231781005859375
1.1989288330078125,0.0062408447265625,0.4072113037109375
1.13116455078125,-0.03387451171875,0.432586669921875
1.1260528564453125,0.044189453125,0.4307403564453125
1.5064697265625,0.1269073486328125,0.43377685546875
1.4459991455078125,0.2449493408203125,0.6204071044921875
1.0587158203125,0.1236572265625,0.7200164794921875
0.7295989990234375,0.0508575439453125,0.5519866943359375
0.6664581298828125,-0.019317626953125,0.498565673828125
0.86700439453125,-0.0708465576171875,0.4571380615234375
0.82611083984375,-0.1400604248046875,0.295684814453125
0.842193603515625,-0.1492156982421875,0.1607666015625
0.740936279296875,-0.07177734375,0.107086181640625
0.57965087890625,-0.17486572265625,-0.0184783935546875
0.4692535400390625,-0.28466796875,-0.2444610595703125
0.802093505859375,-0.3992919921875,-0.2457427978515625
1.1044158935546875,-0.6627197265625,0.0541534423828125
1.168853759765625,-0.6015167236328125,0.0384674072265625
1.293853759765625,-0.4412841796875,0.0166778564453125
1.41259765625,-0.1623382568359375,0.081756591796875
1.28497314453125,-0.0158233642578125,0.03973388671875
1.22723388671875,0.0558624267578125,0.10491943359375
1.2855987548828125,0.0366363525390625,0.0640106201171875
1.0241851806640625,-0.0323638916015625,-0.0289459228515625
0.7266693115234375,-0.033355712890625,0.044219970703125
0.9436798095703124,-0.069793701171875,-0.0514373779296875
1.4225921630859375,-0.1908111572265625,-0.361114501953125
1.313385009765625,0.1637420654296875,0.1665802001953125
1.124755859375,0.6896820068359375,-0.2263946533203125
0.7577972412109375,0.271270751953125,-0.6524658203125
0.8342437744140625,-0.0385589599609375,-0.37884521484375
0.900787353515625,0.0551605224609375,-0.283477783203125
1.00067138671875,0.235687255859375,-0.27740478515625
0.8869781494140625,0.21734619140625,-0.3608245849609375
0.822509765625,0.174560546875,-0.4824371337890625
0.8031463623046875,0.2267303466796875,-0.5948638916015625
0.793426513671875,0.296600341796875,-0.5775146484375
0.779052734375,0.20770263671875,-0.5538177490234375
0.794891357421875,0.1742401123046875,-0.5341644287109375
0.7666015625,0.2464752197265625,-0.5718994140625
0.7580108642578125,0.274658203125,-0.58135986328125
0.7626800537109375,0.28314208984375,-0.60430908203125
0.7515716552734375,0.2911834716796875,-0.60791015625
0.74505615234375,0.2864532470703125,-0.596466064453125
0.747955322265625,0.28021240234375,-0.587005615234375
0.7419586181640625,0.278839111328125,-0.5884857177734375
0.7526702880859375,0.2636871337890625,-0.6083221435546875
0.738739013671875,0.3107757568359375,-0.6092987060546875
0.722686767578125,0.306640625,-0.6271820068359375
0.7169189453125,0.2423858642578125,-0.6158294677734375
0.70745849609375,0.2994537353515625,-0.6234588623046875
0.675994873046875,0.31494140625,-0.634429931640625
0.69970703125,0.339691162109375,-0.6382293701171875
0.68798828125,0.3467254638671875,-0.649078369140625
0.681610107421875,0.3301544189453125,-0.622039794921875
0.7066802978515625,0.3695220947265625,-0.6253662109375
0.7018585205078125,0.343017578125,-0.6231231689453125
0.692535400390625,0.34991455078125,-0.6250457763671875
0.6935882568359375,0.3684234619140625,-0.6298065185546875
0.6906890869140625,0.359954833984375,-0.633880615234375
0.685791015625,0.3643035888671875,-0.6295013427734375
0.678955078125,0.367034912109375,-0.607208251953125
0.671661376953125,0.3703155517578125,-0.61944580078125
0.6914825439453125,0.3641510009765625,-0.6248779296875
0.692352294921875,0.3543701171875,-0.623077392578125
0.688262939453125,0.3709869384765625,-0.627593994140625
0.6922760009765625,0.3641815185546875,-0.6209869384765625
0.671600341796875,0.36041259765625,-0.622528076171875
0.6840362548828125,0.3554534912109375,-0.6318206787109375
