AccelerationX,AccelerationY,AccelerationZ
0.14874267578125,-0.0352783203125,-0.9984130859375
0.10260009765625,0.023712158203125,-1.024200439453125
0.0760650634765625,-0.0076904296875,-0.98577880859375
0.0970458984375,-0.0255126953125,-0.982818603515625
0.1006622314453125,-0.00299072265625,-1.0000762939453125
0.0991668701171875,0.0113067626953125,-1.0041656494140625
0.104827880859375,0.0216827392578125,-1.0057220458984375
0.0995330810546875,0.0069427490234375,-0.994842529296875
0.093902587890625,0.03839111328125,-1.003265380859375
0.092132568359375,0.054229736328125,-1.006805419921875
0.083648681640625,0.0388641357421875,-0.966033935546875
0.0855712890625,0.10791015625,-0.99554443359375
0.0589447021484375,0.1342620849609375,-0.9724578857421876
0.06378173828125,0.1370697021484375,-0.9671173095703124
0.0791473388671875,0.1472930908203125,-0.9612274169921876
0.0739898681640625,0.132598876953125,-0.9338226318359376
0.0928192138671875,0.182342529296875,-0.9360809326171876
0.0766448974609375,0.0626068115234375,-0.877349853515625
0.060516357421875,0.1585693359375,-0.8035125732421875
0.1355133056640625,0.157073974609375,-0.7431793212890625
0.222747802734375,0.20281982421875,-0.5800933837890625
0.226837158203125,0.1963043212890625,-0.4159698486328125
0.351593017578125,0.3091888427734375,-0.3652496337890625
0.5541839599609375,0.3643951416015625,-0.3031768798828125
0.800872802734375,0.3485870361328125,-0.158355712890625
1.2122802734375,0.3328704833984375,-0.0547943115234375
1.677978515625,0.3653411865234375,0.125762939453125
1.98541259765625,0.356109619140625,0.3429107666015625
2.3453521728515625,0.4348907470703125,0.0794525146484375
2.253646850585937,0.4076385498046875,0.3779296875
1.5662078857421875,0.504791259765625,-0.0746917724609375
1.04620361328125,0.6669921875,0.093505859375
1.3719635009765625,0.34075927734375,0.02423095703125
1.54632568359375,0.4084014892578125,0.071075439453125
1.079315185546875,0.6086883544921875,-0.11346435546875
0.596954345703125,0.952545166015625,-0.2189788818359375
0.2918243408203125,0.71307373046875,-0.0975799560546875
0.0198211669921875,0.6630706787109375,-0.0970611572265625
-0.07550048828125,0.690765380859375,-0.20709228515625
0.133636474609375,0.6993255615234375,-0.204345703125
0.4366912841796875,0.8610687255859375,-0.178802490234375
1.1987457275390625,1.5806121826171875,0.0316162109375
2.343536376953125,2.23016357421875,0.019256591796875
2.38775634765625,2.1908111572265625,-0.0789031982421875
1.6299285888671875,0.8784332275390625,0.0875701904296875
1.0459442138671875,0.13323974609375,-0.0771026611328125
0.7328033447265625,-0.018218994140625,-0.2395172119140625
0.589263916015625,-0.022979736328125,-0.1333160400390625
0.5679168701171875,-0.1720123291015625,-0.00030517578125
0.570953369140625,-0.0770111083984375,-0.153045654296875
0.52984619140625,-0.08758544921875,-0.14813232421875
0.647796630859375,0.026763916015625,-0.17919921875
2.0205841064453125,0.9720458984375,0.1660003662109375
2.427337646484375,2.702667236328125,0.711395263671875
1.30377197265625,2.28216552734375,-0.1318206787109375
0.346832275390625,1.5635833740234375,-0.2176666259765625
-0.276641845703125,0.8141326904296875,-0.15655517578125
-0.968475341796875,0.5894622802734375,0.12945556640625
-1.17913818359375,0.109527587890625,-0.0108184814453125
-0.5628662109375,0.345855712890625,-0.24530029296875
-0.2799835205078125,0.5447998046875,-0.130523681640625
0.0872802734375,1.46380615234375,-0.2700653076171875
0.554412841796875,3.1698455810546875,-0.144775390625
0.9572906494140624,2.9127960205078125,-0.261016845703125
1.098846435546875,2.006500244140625,-0.2974395751953125
0.9815673828125,0.776336669921875,-0.081573486328125
0.57818603515625,0.2288818359375,-0.002685546875
0.5921783447265625,0.117034912109375,-0.0658416748046875
0.56048583984375,0.0745697021484375,0.0513458251953125
0.4748687744140625,0.0084381103515625,0.0589141845703125
0.30938720703125,0.106597900390625,-0.0775909423828125
0.554290771484375,0.332244873046875,-0.1580352783203125
1.1781768798828125,0.9092559814453124,0.07208251953125
2.202880859375,2.39990234375,0.827606201171875
1.524658203125,3.1788482666015625,0.3294830322265625
0.803619384765625,1.8908843994140625,0.064910888671875
0.2679595947265625,1.01043701171875,-0.02392578125
-0.288116455078125,0.5778045654296875,0.0721588134765625
-0.876953125,0.27789306640625,0.0914306640625
-1.16876220703125,-0.097747802734375,0.084075927734375
-0.548553466796875,0.0787506103515625,0.1204376220703125
-0.49237060546875,0.521209716796875,0.029541015625
-0.628936767578125,3.209686279296875,-0.0914459228515625
0.125152587890625,4.0136260986328125,0.453216552734375
1.397216796875,3.048431396484375,-0.0736541748046875
1.3374176025390625,0.947296142578125,0.20220947265625
0.6658935546875,0.095458984375,0.3116455078125
0.35467529296875,-0.4025421142578125,-0.1038818359375
0.7056427001953125,-0.247283935546875,0.1068267822265625
0.764190673828125,-0.2221832275390625,0.1407470703125
0.5483551025390625,-0.0174407958984375,0.120208740234375
0.5204010009765625,0.207611083984375,0.06170654296875
1.3062896728515625,1.8186187744140625,0.1802978515625
2.2377166748046875,2.406707763671875,1.1715240478515625
1.715972900390625,3.253997802734375,1.3217926025390625
0.611419677734375,1.8774261474609373,0.235931396484375
0.0301513671875,1.06549072265625,0.0440216064453125
-0.6470184326171875,0.611328125,0.2956085205078125
-1.6686248779296875,-0.086517333984375,-0.17138671875
-0.673797607421875,-0.0244140625,-0.298736572265625
-0.4666595458984375,0.202667236328125,-0.153472900390625
-0.062713623046875,0.13238525390625,-0.1806793212890625
0.1047210693359375,1.56060791015625,-0.04840087890625
0.1597747802734375,3.644073486328125,0.5571441650390625
0.92498779296875,3.93157958984375,0.7949676513671875
1.1449432373046875,1.5755157470703125,0.2025146484375
0.751617431640625,0.37481689453125,0.35528564453125
0.6021270751953125,-0.2137298583984375,0.24591064453125
0.6212005615234375,-0.296356201171875,0.0279693603515625
0.9256591796875,-0.218536376953125,-0.04083251953125
0.6761322021484375,-0.3330230712890625,-0.0980987548828125
0.4227142333984375,-0.010101318359375,-0.1062469482421875
0.634490966796875,0.11419677734375,-0.295684814453125
1.838226318359375,1.9386138916015625,0.07293701171875
2.068206787109375,4.366012573242188,0.5049896240234375
0.74853515625,2.658294677734375,0.0094146728515625
0.014434814453125,1.2184906005859375,-0.39093017578125
-0.1553192138671875,0.573883056640625,-0.0850372314453125
-0.479461669921875,0.1742095947265625,0.0334625244140625
-1.5772857666015625,-0.0640716552734375,0.1005706787109375
-0.990570068359375,0.313873291015625,0.0758819580078125
-0.837677001953125,0.6340179443359375,0.218109130859375
-0.4229278564453125,2.058135986328125,0.1669158935546875
0.09161376953125,3.7398834228515625,0.4093170166015625
1.4062042236328125,4.3340606689453125,1.049285888671875
1.449127197265625,1.9661712646484373,0.4814453125
0.7316741943359375,0.7357177734375,-0.097991943359375
0.58056640625,0.22760009765625,-0.1011199951171875
0.603759765625,-0.148284912109375,-0.0699920654296875
0.6566009521484375,-0.46380615234375,-0.038848876953125
0.6044769287109375,-0.6108551025390625,0.1414794921875
0.7622222900390625,-0.49774169921875,0.095428466796875
1.1255035400390625,0.0711212158203125,0.0219268798828125
2.56243896484375,2.470199584960937,0.6943206787109375
1.4331512451171875,4.5814056396484375,0.984375
0.153533935546875,3.074325561523437,0.211212158203125
-0.049530029296875,1.67156982421875,0.0588226318359375
-0.3988494873046875,0.8069915771484375,0.261016845703125
-0.7033538818359375,0.1569366455078125,-0.165496826171875
-1.2577667236328125,-0.040618896484375,-0.0793914794921875
-0.8795928955078125,0.1077728271484375,0.1634521484375
-0.84613037109375,0.2504119873046875,0.4422760009765625
-0.5242919921875,1.3436431884765625,0.1411590576171875
-0.3175506591796875,3.4828033447265625,0.3874969482421875
1.02789306640625,4.423141479492188,1.3045806884765625
1.0651092529296875,2.22808837890625,0.4266510009765625
0.6540374755859375,0.822509765625,0.063812255859375
0.5833892822265625,0.1441802978515625,0.117279052734375
0.61798095703125,-0.299102783203125,0.02081298828125
0.8252716064453125,-0.4735870361328125,0.0593414306640625
0.690887451171875,-0.42822265625,0.131256103515625
0.6903533935546875,-0.2716217041015625,0.0348968505859375
0.995513916015625,0.2216644287109375,0.081390380859375
1.667816162109375,1.3569793701171875,0.294586181640625
1.9966583251953125,4.8334808349609375,0.9953155517578124
0.3724517822265625,3.3418731689453125,0.2305450439453125
0.0933685302734375,1.69677734375,-0.2371673583984375
-0.3806304931640625,0.9604949951171876,0.023712158203125
-0.6637420654296875,0.399078369140625,0.135345458984375
-1.3608856201171875,0.002227783203125,0.211334228515625
-0.817352294921875,0.03302001953125,0.062774658203125
-0.7712554931640625,0.2464599609375,0.080352783203125
-0.341522216796875,0.593719482421875,0.0282135009765625
-0.138519287109375,2.538543701171875,0.250091552734375
0.088836669921875,3.975128173828125,0.2691650390625
1.2829437255859375,3.541961669921875,0.3241729736328125
0.8666839599609375,1.3365325927734375,0.246856689453125
0.809295654296875,0.333831787109375,-0.0460357666015625
0.64642333984375,-0.0521240234375,-0.104827880859375
0.7334442138671875,-0.2404022216796875,-0.0801849365234375
0.7208404541015625,-0.3146514892578125,-0.0353851318359375
0.618316650390625,-0.5051422119140625,-0.03436279296875
0.862060546875,-0.1454925537109375,0.0259857177734375
1.43170166015625,0.746246337890625,0.1921844482421875
2.0085601806640625,3.2761383056640625,0.9933624267578124
0.7682647705078125,3.93316650390625,0.5008697509765625
0.261627197265625,2.275421142578125,0.131072998046875
-0.1110076904296875,1.2787933349609375,0.0263214111328125
-0.2880401611328125,0.6961517333984375,0.1046600341796875
-0.6633453369140625,0.32867431640625,0.145782470703125
-1.017822265625,-0.04052734375,0.0149078369140625
-1.0418853759765625,0.026336669921875,-0.029632568359375
-0.8615264892578125,0.2881927490234375,0.2219085693359375
-0.586517333984375,0.8255615234375,0.381378173828125
-1.087432861328125,4.3725433349609375,0.8325042724609375
1.2237701416015625,4.7790374755859375,1.1298065185546875
1.26263427734375,2.343292236328125,0.4969635009765625
1.068603515625,0.8531036376953125,-0.0459747314453125
1.05072021484375,0.1870880126953125,-0.044677734375
1.1124267578125,-0.2744903564453125,0.06475830078125
0.9744720458984376,-0.5222015380859375,0.0196685791015625
0.80731201171875,-0.5257720947265625,0.1226348876953125
0.8433837890625,-0.420318603515625,0.145751953125
0.92083740234375,0.2592620849609375,-0.08721923828125
1.278472900390625,2.6496734619140625,0.1988067626953125
0.6886138916015625,4.3719329833984375,0.1342620849609375
0.53607177734375,2.622833251953125,0.035186767578125
-0.2140655517578125,1.4944610595703125,-0.0015869140625
-0.1519622802734375,0.9634552001953124,-0.0792236328125
-0.4055633544921875,0.4797210693359375,0.049774169921875
-0.62982177734375,0.118011474609375,0.110137939453125
-0.8450469970703125,-0.022613525390625,0.0670318603515625
-0.7886505126953125,0.104461669921875,0.1986541748046875
-0.4456787109375,0.3573455810546875,0.1401519775390625
-0.617218017578125,1.7342071533203125,0.25762939453125
0.2620086669921875,4.754684448242188,0.4195098876953125
1.6156768798828125,3.52215576171875,0.373931884765625
0.67218017578125,1.2375030517578125,0.15057373046875
0.4119873046875,0.2911834716796875,-0.1520843505859375
0.418365478515625,0.0507965087890625,-0.229156494140625
0.58917236328125,-0.0389862060546875,-0.13616943359375
0.907440185546875,-0.331329345703125,0.1855316162109375
0.8631134033203125,-0.339752197265625,0.3948974609375
0.81536865234375,-0.344024658203125,0.2283477783203125
0.968292236328125,0.330413818359375,0.1631011962890625
2.234710693359375,2.402313232421875,0.5330047607421875
1.03997802734375,4.8554229736328125,0.9873504638671876
0.4980621337890625,2.78204345703125,-0.39666748046875
-0.08050537109375,1.55975341796875,-0.0460968017578125
-0.3863372802734375,0.84857177734375,0.2558746337890625
-0.6618804931640625,0.33172607421875,-0.0259552001953125
-1.1018218994140625,0.0068206787109375,-0.0205230712890625
-0.5601348876953125,-0.1172943115234375,-0.1933746337890625
-0.580841064453125,-0.0457305908203125,-0.1611785888671875
-0.556854248046875,0.4105377197265625,-0.184478759765625
-0.961395263671875,2.84429931640625,-0.038055419921875
0.98785400390625,4.933883666992188,0.3504486083984375
1.5993194580078125,3.044281005859375,0.1314697265625
0.8580169677734375,1.190704345703125,0.033966064453125
0.6659698486328125,0.3524932861328125,-0.09344482421875
0.4981231689453125,-0.1725311279296875,-0.0509033203125
0.593231201171875,-0.33563232421875,0.0323638916015625
0.6630401611328125,-0.4419403076171875,0.14520263671875
0.7012786865234375,-0.499725341796875,0.0713958740234375
0.690521240234375,-0.1503143310546875,0.001953125
1.1821746826171875,0.4612579345703125,-0.2225494384765625
1.954315185546875,2.1313629150390625,-0.018768310546875
1.69317626953125,4.2542877197265625,-0.1756439208984375
0.394287109375,2.84075927734375,-0.0823211669921875
0.011505126953125,1.4665069580078125,-0.3384857177734375
-0.0771942138671875,0.773712158203125,-0.1876068115234375
-0.36474609375,0.327301025390625,-0.003387451171875
-0.7895660400390625,0.013824462890625,0.1049346923828125
-1.055816650390625,-0.037567138671875,0.1045989990234375
-0.57421875,0.2256622314453125,-0.0192718505859375
-0.3848114013671875,0.643768310546875,-0.30584716796875
-0.310791015625,2.9696502685546875,-0.1801300048828125
0.50286865234375,3.781524658203125,-0.4799041748046875
1.350738525390625,3.017059326171875,-0.3916473388671875
0.69677734375,1.2766265869140625,-0.2295684814453125
0.43798828125,0.3927001953125,-0.1962127685546875
0.5477752685546875,-0.14483642578125,-0.0994720458984375
0.643798828125,-0.1836395263671875,-0.0036468505859375
0.6973876953125,-0.2489166259765625,-0.0278167724609375
0.6920623779296875,-0.284576416015625,0.0115966796875
0.710479736328125,-0.199981689453125,0.096435546875
0.7597503662109375,0.1867828369140625,0.1024627685546875
1.4565582275390625,1.76904296875,0.3360137939453125
1.49969482421875,4.6075286865234375,0.290618896484375
0.218536376953125,3.276519775390625,-0.013092041015625
-0.03790283203125,1.615447998046875,-0.1634063720703125
-0.1904144287109375,0.88397216796875,-0.061431884765625
-0.2898712158203125,0.500244140625,-0.032470703125
-0.39794921875,0.2740936279296875,-0.11236572265625
-0.490570068359375,0.20965576171875,-0.1243438720703125
-0.4775543212890625,0.193511962890625,-0.17364501953125
-0.5042266845703125,0.16217041015625,-0.1394195556640625
-0.3426513671875,0.2966461181640625,-0.0240020751953125
-1.5203704833984375,2.30242919921875,0.5698699951171875
1.8541412353515625,5.405792236328125,0.569793701171875
1.1474456787109375,2.900115966796875,0.3831939697265625
0.8975372314453125,1.040802001953125,0.0500946044921875
0.7156524658203125,0.2696685791015625,-0.0374298095703125
0.3874664306640625,0.03094482421875,-0.128204345703125
0.756103515625,0.0470428466796875,-0.1468963623046875
1.149627685546875,-0.13653564453125,-0.0966033935546875
1.070465087890625,-0.1740570068359375,-0.0107269287109375
0.8550262451171875,-0.0340576171875,0.04217529296875
1.046539306640625,0.519500732421875,-0.01336669921875
1.422027587890625,1.7173614501953125,0.767974853515625
0.8455352783203125,4.17657470703125,0.9004364013671875
0.310577392578125,2.869232177734375,0.4716949462890625
0.1382598876953125,1.670166015625,0.394012451171875
-0.15130615234375,0.8204193115234375,0.4246826171875
-0.4362335205078125,0.4572296142578125,0.2928314208984375
-0.725311279296875,0.39556884765625,0.032257080078125
-0.596435546875,0.468109130859375,-0.0479278564453125
-0.45257568359375,0.5409698486328125,-0.1182861328125
-0.3182373046875,0.8306732177734375,-0.0293121337890625
-0.3831787109375,1.5399322509765625,0.4051971435546875
0.3693695068359375,3.251983642578125,0.5995635986328125
1.523040771484375,3.216415405273437,0.942962646484375
0.6972503662109375,1.716033935546875,0.317596435546875
0.66497802734375,0.852752685546875,-0.0009613037109375
0.510101318359375,0.21392822265625,-0.114471435546875
0.39697265625,-0.119598388671875,-0.2431488037109375
0.57977294921875,-0.2892608642578125,-0.135589599609375
0.8344879150390625,-0.363067626953125,0.0589599609375
1.052581787109375,-0.258941650390625,0.14111328125
1.594818115234375,0.4920654296875,0.7167816162109375
1.9619140625,1.619873046875,1.4993743896484375
1.5728759765625,4.256393432617188,1.524871826171875
0.5589141845703125,2.488616943359375,1.058502197265625
0.0882415771484375,1.5105743408203125,0.662384033203125
-0.792266845703125,1.274810791015625,0.5177764892578125
-0.8487396240234375,0.8623809814453125,0.1831207275390625
-0.938751220703125,0.601470947265625,0.0984649658203125
-0.7554168701171875,0.2721710205078125,-0.0153350830078125
-0.4589996337890625,0.268890380859375,-0.03466796875
-0.2108154296875,0.473724365234375,0.015228271484375
0.039764404296875,1.052703857421875,0.2767333984375
0.707977294921875,3.26959228515625,0.814544677734375
1.775787353515625,4.221771240234375,1.01519775390625
1.197021484375,2.283538818359375,0.764862060546875
0.99066162109375,0.884796142578125,0.3417510986328125
0.7429962158203125,0.152069091796875,0.023162841796875
0.578582763671875,-0.0511932373046875,-0.107452392578125
0.6273956298828125,-0.2054595947265625,-0.1106414794921875
0.7745513916015625,-0.3128509521484375,0.025054931640625
0.6812896728515625,-0.2145843505859375,0.0901947021484375
0.720306396484375,0.096466064453125,0.1827850341796875
1.292022705078125,1.4306793212890625,0.2209320068359375
1.1105804443359375,1.99005126953125,0.62957763671875
0.7054595947265625,2.8225860595703125,0.8332672119140625
0.144317626953125,2.146575927734375,0.8059234619140625
-0.2075653076171875,1.575408935546875,0.535125732421875
-0.59381103515625,1.0122833251953125,0.409881591796875
-0.904571533203125,0.5939788818359375,0.3034820556640625
-1.1122589111328125,0.3129425048828125,-0.0903167724609375
-0.8061676025390625,0.32965087890625,-0.13818359375
-0.5820159912109375,0.4705657958984375,-0.0817718505859375
-0.15789794921875,1.1824798583984375,-0.0481109619140625
0.0201568603515625,2.5935211181640625,0.3647613525390625
-0.2198333740234375,3.5801239013671875,0.3568115234375
0.6094512939453125,2.5019683837890625,0.4108734130859375
0.6918182373046875,1.04840087890625,0.2782745361328125
0.85498046875,-0.1172943115234375,0.07135009765625
0.8245849609375,-0.692108154296875,0.047027587890625
1.1010589599609375,-0.48004150390625,-0.044158935546875
1.4114532470703125,-0.420318603515625,0.026702880859375
1.551971435546875,-0.2603912353515625,-0.032745361328125
2.2991180419921875,0.3037109375,-0.0105133056640625
3.7485504150390634,2.5601959228515625,0.496978759765625
2.2093048095703125,4.3087158203125,-0.0272674560546875
0.320770263671875,2.5203094482421875,0.12481689453125
-1.13653564453125,2.1897125244140625,0.218719482421875
-1.0118560791015625,1.329193115234375,0.450408935546875
-1.0850677490234375,0.8206634521484375,0.578125
-0.76708984375,0.654541015625,0.3639678955078125
0.0303497314453125,1.814239501953125,-0.5476837158203125
0.5474090576171875,3.291778564453125,-0.7220306396484375
1.239654541015625,3.4937286376953125,-0.4330902099609375
2.3871612548828125,2.397186279296875,-0.4831695556640625
2.508773803710937,-0.0555572509765625,-0.2232513427734375
0.8251953125,-0.7043914794921875,0.44732666015625
0.745697021484375,-0.91436767578125,0.3965911865234375
1.95452880859375,-0.5781707763671875,0.571014404296875
2.252899169921875,-0.0582275390625,0.4080963134765625
3.8713226318359375,2.841156005859375,-0.119476318359375
2.350341796875,3.4834747314453125,0.1882476806640625
0.58203125,3.4643096923828125,-0.063018798828125
-0.545867919921875,1.696075439453125,0.03289794921875
-0.82843017578125,1.2581329345703125,0.0255126953125
-0.9564361572265624,0.9160308837890624,0.5386962890625
-0.948638916015625,1.2329559326171875,0.5156402587890625
-0.42120361328125,3.446258544921875,-0.0685272216796875
1.00726318359375,3.598388671875,-0.227783203125
2.0358123779296875,2.714752197265625,-0.3103790283203125
2.264511108398437,1.618072509765625,-0.5789947509765625
1.285369873046875,0.6441802978515625,-0.124420166015625
0.83355712890625,-0.050079345703125,0.3216094970703125
0.8951416015625,-0.3718109130859375,0.081207275390625
1.438507080078125,-0.440032958984375,0.351959228515625
1.2112274169921875,-0.1598358154296875,0.53692626953125
1.4388885498046875,0.027069091796875,0.302337646484375
2.716949462890625,0.77227783203125,0.0896148681640625
4.1764984130859375,3.782791137695313,0.5167694091796875
1.762786865234375,4.572418212890625,-0.149566650390625
0.5224151611328125,1.7739105224609375,-0.1699676513671875
-0.1552886962890625,0.559661865234375,-0.1515655517578125
-0.315338134765625,0.0671844482421875,0.0184326171875
-1.00262451171875,-0.0679473876953125,0.1703948974609375
-1.89080810546875,0.5072784423828125,0.679168701171875
-1.9717254638671875,1.580352783203125,0.38427734375
-0.6840362548828125,3.5725555419921875,0.43310546875
1.003570556640625,5.602218627929688,0.8368377685546875
3.1830291748046875,4.4033050537109375,0.6447601318359375
2.261383056640625,1.385589599609375,0.0225067138671875
1.29205322265625,-0.031951904296875,0.1792755126953125
0.9590301513671876,-0.858154296875,0.1332855224609375
1.5359039306640625,-1.358428955078125,0.7216339111328125
1.962158203125,-1.021331787109375,1.1063232421875
1.8731842041015625,-0.3292236328125,0.5702667236328125
3.06549072265625,1.0984649658203125,0.23760986328125
2.985260009765625,4.4716339111328125,1.153411865234375
0.7613525390625,5.1330108642578125,1.1210479736328125
-0.0080718994140625,2.306365966796875,0.0505218505859375
-1.3845977783203125,1.36041259765625,0.2727813720703125
-2.682861328125,0.6079864501953125,0.066131591796875
-2.218536376953125,0.6353607177734375,0.5464019775390625
-1.1036529541015625,1.4099273681640625,0.577392578125
0.4377899169921875,5.264694213867188,0.8599395751953125
1.3272552490234375,5.1500091552734375,1.15606689453125
2.49395751953125,3.556915283203125,0.1562652587890625
2.416839599609375,0.6181640625,0.0651397705078125
1.5805816650390625,-0.9849700927734376,0.7730712890625
0.6696929931640625,-1.370819091796875,-0.01458740234375
1.7312164306640625,-1.8636016845703125,0.9958648681640624
1.589569091796875,-0.8991241455078125,0.4942779541015625
1.9691162109375,-0.075531005859375,0.4453887939453125
3.547470092773437,0.2487335205078125,0.5322113037109375
6.458892822265625,6.42626953125,0.4774627685546875
2.9312286376953125,5.1822662353515625,0.4398345947265625
0.3906097412109375,2.2415008544921875,0.119598388671875
-0.64886474609375,1.35516357421875,-0.2734375
-2.2130889892578125,1.0080108642578125,-0.0868072509765625
-1.9706573486328125,0.7842254638671875,0.0856475830078125
-1.3712921142578125,1.5948486328125,0.6474609375
0.0198974609375,4.486846923828125,0.900421142578125
0.856048583984375,4.0679931640625,1.255950927734375
1.62249755859375,3.9752197265625,0.7402801513671875
2.21722412109375,2.143905639648437,0.265045166015625
1.686737060546875,0.362640380859375,0.15673828125
1.2437286376953125,-0.500213623046875,-0.2476959228515625
1.2299346923828125,-0.548004150390625,0.390838623046875
1.67218017578125,-1.3040618896484375,0.6166534423828125
1.5104827880859375,-0.49072265625,0.253448486328125
2.0407867431640625,0.298095703125,0.337005615234375
3.60302734375,1.8632049560546875,0.3611602783203125
3.9662017822265625,5.6859130859375,1.4305877685546875
1.22125244140625,4.391632080078125,0.8153228759765625
-0.1958465576171875,1.8740081787109373,0.348052978515625
-0.0594482421875,1.1776885986328125,0.2308349609375
-0.604766845703125,0.6325836181640625,0.79052734375
-2.4542694091796875,0.4561614990234375,0.4172210693359375
-1.910736083984375,0.5493621826171875,0.5818328857421875
-1.5849456787109375,1.8387603759765625,0.38995361328125
0.1326141357421875,3.5499420166015625,0.4247894287109375
0.4750823974609375,5.011978149414063,0.166595458984375
2.912567138671875,3.611724853515625,0.09344482421875
1.7757568359375,1.2400665283203125,-0.0279541015625
1.51837158203125,-0.147613525390625,0.105987548828125
0.9830780029296876,-0.633087158203125,0.145050048828125
1.5709686279296875,-1.0547027587890625,0.7994232177734375
1.46014404296875,-1.0124053955078125,0.730712890625
1.625457763671875,-0.297393798828125,0.64794921875
2.250213623046875,-0.020599365234375,0.46759033203125
4.5691986083984375,3.57708740234375,1.485504150390625
1.7115936279296875,6.63958740234375,1.5652618408203125
0.428497314453125,2.97796630859375,0.0774993896484375
-0.29034423828125,1.16485595703125,-0.290618896484375
-0.761871337890625,0.510406494140625,-0.0818328857421875
-2.399169921875,0.05218505859375,-0.16314697265625
-1.559417724609375,0.4451904296875,0.1150360107421875
-1.212738037109375,0.9696197509765624,0.2449951171875
-0.6191253662109375,2.409164428710937,0.86956787109375
-0.1181182861328125,4.507492065429688,1.45849609375
1.708465576171875,5.35711669921875,0.675750732421875
2.563812255859375,2.5136871337890625,0.38238525390625
1.6740264892578125,0.6421051025390625,0.0339508056640625
1.296234130859375,-0.60491943359375,-0.47747802734375
1.236328125,-0.5868988037109375,-0.1888885498046875
1.365966796875,-1.1480712890625,0.7704620361328125
1.013916015625,-1.15069580078125,0.6979522705078125
1.3307342529296875,-0.31793212890625,0.6852569580078125
1.527679443359375,-0.017730712890625,0.548583984375
4.378829956054688,2.1316070556640625,0.1561737060546875
3.720458984375,6.101409912109375,0.607818603515625
1.203277587890625,3.143524169921875,0.0570220947265625
0.0966796875,1.3753509521484375,-0.1318817138671875
-0.0575714111328125,0.833831787109375,-0.117462158203125
-0.354644775390625,0.655517578125,0.5718536376953125
-1.2627410888671875,0.438201904296875,0.734619140625
-3.2315216064453125,0.6973114013671875,0.527679443359375
-1.577667236328125,0.8300323486328125,0.5327911376953125
-1.3727569580078125,1.869171142578125,1.256591796875
3.508819580078125,5.7423858642578125,1.476287841796875
2.2975311279296875,3.2653045654296875,0.9318084716796876
2.5667724609375,0.62762451171875,0.123565673828125
1.7314300537109375,0.30145263671875,-0.1220855712890625
2.053375244140625,0.033935546875,-0.5019683837890625
1.9184722900390625,-0.7914581298828125,0.85772705078125
0.8500518798828125,-2.20758056640625,1.5251312255859375
0.7484893798828125,-0.8837738037109375,1.040252685546875
1.5937042236328125,1.4963836669921875,0.624420166015625
2.7442779541015625,0.7681884765625,-0.48583984375
1.9774932861328125,0.7396392822265625,0.0991668701171875
2.754135131835937,0.6560211181640625,0.615631103515625
1.571685791015625,1.141326904296875,0.57818603515625
0.87567138671875,1.4831390380859375,0.052032470703125
2.2030181884765625,1.0789794921875,0.168212890625
1.362579345703125,0.71661376953125,0.7032470703125
1.1729278564453125,0.2584075927734375,0.2418975830078125
0.9095458984375,0.2769622802734375,0.0863189697265625
0.5396728515625,0.3696136474609375,-0.2984161376953125
0.3634490966796875,0.5684051513671875,-0.20489501953125
1.62408447265625,0.316802978515625,0.072418212890625
2.5404815673828125,-0.6078948974609375,-0.23638916015625
1.488128662109375,-0.5761871337890625,-0.37213134765625
1.089874267578125,-0.36688232421875,-0.4264984130859375
0.954071044921875,-0.4661407470703125,-0.2597503662109375
0.909912109375,-0.2725372314453125,-0.3079986572265625
1.941558837890625,0.673492431640625,-1.2486419677734375
0.473419189453125,0.9337158203125,-0.88995361328125
0.3497314453125,0.66473388671875,-0.3337860107421875
0.4473876953125,0.47796630859375,0.0914154052734375
0.5371246337890625,0.63311767578125,-0.2027587890625
0.91290283203125,0.7481842041015625,-0.954437255859375
0.5484619140625,1.0894012451171875,-0.61505126953125
0.466278076171875,0.583587646484375,-0.82135009765625
0.4429779052734375,0.410491943359375,-1.3424530029296875
0.4574737548828125,0.240753173828125,-0.831695556640625
0.3963623046875,0.4925994873046875,-0.6343994140625
0.2600860595703125,0.548431396484375,-0.560516357421875
0.1206207275390625,0.4231109619140625,-0.8354644775390625
0.258636474609375,0.249114990234375,-0.9411773681640624
0.3264923095703125,0.0738677978515625,-0.911956787109375
0.411834716796875,0.1552276611328125,-0.9212188720703124
0.5006866455078125,0.3649139404296875,-0.919647216796875
0.327484130859375,0.4069366455078125,-0.7789306640625
0.40380859375,0.2633209228515625,-0.8564605712890625
0.4212188720703125,0.211822509765625,-0.914947509765625
0.44134521484375,0.3063812255859375,-0.84942626953125
0.379302978515625,0.361083984375,-0.7970733642578125
0.3239898681640625,0.461151123046875,-0.834625244140625
0.32354736328125,0.5102386474609375,-0.8762664794921875
0.2994232177734375,0.5480194091796875,-0.8549041748046875
0.359527587890625,0.43829345703125,-0.8929595947265625
0.3405609130859375,0.3960418701171875,-0.8560028076171875
0.34088134765625,0.336517333984375,-0.8631134033203125
0.33447265625,0.3443450927734375,-0.888397216796875
0.3111114501953125,0.3347320556640625,-0.902679443359375
0.341827392578125,0.3961639404296875,-0.882537841796875
0.3429718017578125,0.381591796875,-0.87200927734375
0.3409576416015625,0.3127593994140625,-0.87139892578125
0.35693359375,0.2703094482421875,-0.8906402587890625
0.3582305908203125,0.31427001953125,-0.8845672607421875
0.3472900390625,0.3242340087890625,-0.874847412109375
0.3152923583984375,0.3188629150390625,-0.889984130859375
0.302001953125,0.2955780029296875,-0.9099884033203124
0.29779052734375,0.3118438720703125,-0.8969573974609375
0.3241729736328125,0.3243560791015625,-0.89581298828125
0.3417816162109375,0.32916259765625,-0.90313720703125
0.3296051025390625,0.3190155029296875,-0.882476806640625
0.31903076171875,0.299835205078125,-0.909332275390625
0.326324462890625,0.3058319091796875,-0.903961181640625
0.3209686279296875,0.3275909423828125,-0.8920440673828125
0.3294219970703125,0.3159332275390625,-0.89898681640625
0.323455810546875,0.3125457763671875,-0.911102294921875
0.321014404296875,0.307373046875,-0.8881072998046875
0.32135009765625,0.2809600830078125,-0.8991851806640625
0.3257598876953125,0.304290771484375,-0.905609130859375
0.3363800048828125,0.3056182861328125,-0.90338134765625
0.318572998046875,0.3008270263671875,-0.9057159423828124
0.3311767578125,0.2733154296875,-0.913543701171875
0.3320770263671875,0.2641143798828125,-0.89801025390625
0.3430633544921875,0.2582550048828125,-0.9141387939453124
0.3392791748046875,0.25823974609375,-0.902801513671875
0.3373260498046875,0.248931884765625,-0.9172515869140624
0.335479736328125,0.248046875,-0.9036865234375
0.3358001708984375,0.24542236328125,-0.9170074462890624
0.34130859375,0.251861572265625,-0.9079742431640624
0.343414306640625,0.24652099609375,-0.90765380859375
0.3384552001953125,0.2375946044921875,-0.910400390625
0.3457183837890625,0.257110595703125,-0.9068603515625
0.3399505615234375,0.2554168701171875,-0.9093170166015624
0.339141845703125,0.2378692626953125,-0.913330078125
0.338470458984375,0.225006103515625,-0.9172210693359376
0.336273193359375,0.2291259765625,-0.9088897705078124
0.332550048828125,0.2381439208984375,-0.9328460693359376
0.331634521484375,0.2406005859375,-0.9187164306640624
0.3500823974609375,0.3000335693359375,-0.963287353515625
0.303314208984375,0.1033172607421875,-0.91583251953125
