AccelerationX,AccelerationY,AccelerationZ
-0.5145111083984375,0.7027435302734375,-0.46453857421875
-0.52276611328125,0.70758056640625,-0.490631103515625
-0.50250244140625,0.6847686767578125,-0.4349365234375
-0.5048065185546875,0.718963623046875,-0.4926605224609375
-0.509124755859375,0.69891357421875,-0.4772491455078125
-0.509735107421875,0.702423095703125,-0.480743408203125
-0.50592041015625,0.7007293701171875,-0.4953765869140625
-0.507598876953125,0.6954193115234375,-0.435089111328125
-0.5034637451171875,0.7130889892578125,-0.4868011474609375
-0.477203369140625,0.6973724365234375,-0.4959716796875
-0.5078277587890625,0.70989990234375,-0.470611572265625
-0.5077972412109375,0.718902587890625,-0.4829864501953125
-0.4816131591796875,0.70098876953125,-0.5537872314453125
-0.504791259765625,0.7080841064453125,-0.4132232666015625
-0.5335235595703125,0.7085723876953125,-0.4407196044921875
-0.525054931640625,0.693695068359375,-0.555816650390625
-0.5312957763671875,0.6842193603515625,-0.472259521484375
-0.5211181640625,0.6765899658203125,-0.5423736572265625
-0.4955291748046875,0.7266693115234375,-0.55316162109375
-0.5535736083984375,0.613250732421875,-0.30499267578125
-0.7498779296875,0.64306640625,-0.3329925537109375
-0.6863250732421875,0.682464599609375,-0.2698822021484375
-0.61700439453125,0.6464996337890625,-0.1589508056640625
-0.6330718994140625,0.7147674560546875,-0.13983154296875
-0.7932281494140625,0.6918182373046875,-0.266571044921875
-0.7490234375,0.6965179443359375,-0.2171783447265625
-0.700927734375,0.655517578125,-0.1769561767578125
-0.7185516357421875,0.6395111083984375,-0.09539794921875
-0.729400634765625,0.6508331298828125,-0.0792694091796875
-0.69439697265625,0.656280517578125,-0.11187744140625
-0.700775146484375,0.7120208740234375,-0.0591583251953125
-0.647491455078125,0.7475738525390625,-0.03515625
-0.6345672607421875,0.761810302734375,-0.1332855224609375
-0.6925811767578125,0.7517852783203125,-0.1691131591796875
-0.734832763671875,0.7618560791015625,-0.0936737060546875
-0.6422576904296875,0.6754150390625,-0.0561676025390625
-0.613250732421875,0.6299896240234375,-0.02899169921875
-0.7083587646484375,0.6389617919921875,-0.0676116943359375
-0.7649078369140625,0.6503143310546875,-0.0925445556640625
-0.8003692626953125,0.6561431884765625,-0.112548828125
-0.82843017578125,0.6425323486328125,-0.1297454833984375
-0.8652191162109375,0.6511383056640625,-0.1079864501953125
-0.849090576171875,0.7067413330078125,-0.160797119140625
-0.766448974609375,0.713104248046875,-0.2266693115234375
-0.6721649169921875,0.682769775390625,-0.2099761962890625
-0.633758544921875,0.7550048828125,-0.1612701416015625
-0.6855926513671875,0.84912109375,-0.155792236328125
-0.714263916015625,0.8611297607421875,-0.2118682861328125
-0.6353607177734375,0.7299346923828125,-0.2787628173828125
-0.5967254638671875,0.7082061767578125,-0.28717041015625
-0.608551025390625,0.80517578125,-0.2234039306640625
-0.59967041015625,0.871551513671875,-0.15277099609375
-0.525726318359375,0.8187713623046875,-0.137603759765625
-0.5411224365234375,0.7406005859375,-0.158721923828125
-0.5791473388671875,0.755279541015625,-0.1614837646484375
-0.5184783935546875,0.750213623046875,-0.1045074462890625
-0.507904052734375,0.7205657958984375,-0.07904052734375
-0.5625152587890625,0.70703125,-0.129638671875
-0.608673095703125,0.7205657958984375,-0.12249755859375
-0.5983734130859375,0.7642669677734375,-0.0880279541015625
-0.642730712890625,0.8178253173828125,-0.0985870361328125
-0.6899566650390625,0.845672607421875,-0.14453125
-0.6754913330078125,0.8246002197265625,-0.1732177734375
-0.698638916015625,0.85797119140625,-0.1896820068359375
-0.74505615234375,0.924957275390625,-0.2086639404296875
-0.6843719482421875,0.7863311767578125,-0.193817138671875
-0.6490020751953125,0.5326995849609375,-0.09490966796875
-0.69976806640625,0.6161346435546875,-0.1052093505859375
-0.675872802734375,0.778717041015625,-0.1768646240234375
-0.616455078125,0.7650604248046875,-0.238861083984375
-0.6088714599609375,0.651763916015625,-0.252227783203125
-0.6651153564453125,0.6317901611328125,-0.155120849609375
-0.652679443359375,0.6240692138671875,-0.0580902099609375
-0.635009765625,0.6277313232421875,-0.072357177734375
-0.65167236328125,0.65374755859375,-0.150634765625
-0.6916961669921875,0.6916351318359375,-0.160125732421875
-0.75482177734375,0.7630767822265625,-0.1530914306640625
-0.773651123046875,0.797119140625,-0.155914306640625
-0.741424560546875,0.78375244140625,-0.16796875
-0.7198333740234375,0.8199920654296875,-0.17706298828125
-0.70343017578125,0.9452972412109376,-0.192535400390625
-0.6840667724609375,0.962799072265625,-0.2108306884765625
-0.566986083984375,0.6497802734375,-0.2110748291015625
-0.513275146484375,0.6775360107421875,-0.1408233642578125
-0.5285491943359375,0.8974456787109375,-0.097869873046875
-0.4766845703125,0.8736572265625,-0.086669921875
-0.482025146484375,0.757110595703125,-0.1193695068359375
-0.4923858642578125,0.757232666015625,-0.187225341796875
-0.462432861328125,0.7412261962890625,-0.113494873046875
-0.4853973388671875,0.6960296630859375,-0.02337646484375
-0.500213623046875,0.718780517578125,-0.084442138671875
-0.49432373046875,0.7838134765625,-0.12481689453125
-0.63677978515625,0.8449249267578125,-0.060760498046875
-0.7639923095703125,0.92962646484375,-0.112762451171875
-0.7362823486328125,0.89910888671875,-0.111663818359375
-0.8128662109375,1.0100555419921875,-0.1752777099609375
-0.810089111328125,0.8837127685546875,-0.1777191162109375
-0.7897491455078125,0.6947174072265625,-0.043548583984375
-0.72119140625,0.4935455322265625,0.092315673828125
-0.7341461181640625,0.52655029296875,0.0301361083984375
-0.7782440185546875,0.7057342529296875,-0.089202880859375
-0.7124176025390625,0.7425689697265625,-0.114288330078125
-0.59423828125,0.6862030029296875,0.01287841796875
-0.5606536865234375,0.66253662109375,0.0557708740234375
-0.580047607421875,0.6721954345703125,-0.0280303955078125
-0.6215667724609375,0.700592041015625,0.0008544921875
-0.6514739990234375,0.7318115234375,-0.04559326171875
-0.6828460693359375,0.7589263916015625,-0.056427001953125
-0.701812744140625,0.8152313232421875,-0.0179595947265625
-0.6444854736328125,0.8707427978515625,-0.014434814453125
-0.636962890625,0.8413238525390625,-0.001129150390625
-0.68133544921875,0.8656158447265625,-0.0652923583984375
-0.646240234375,0.9861297607421876,-0.1197357177734375
-0.5874176025390625,0.9116668701171876,-0.1768646240234375
-0.499359130859375,0.7050323486328125,-0.13507080078125
-0.4155426025390625,0.7581634521484375,-0.024017333984375
-0.535186767578125,0.822296142578125,-0.0435028076171875
-0.6222381591796875,0.78570556640625,-0.13385009765625
-0.6028289794921875,0.72113037109375,-0.181884765625
-0.5757598876953125,0.696014404296875,-0.2469940185546875
-0.5474090576171875,0.674591064453125,-0.170684814453125
-0.5119476318359375,0.690338134765625,-0.0450592041015625
-0.4925994873046875,0.726470947265625,-0.02587890625
-0.575408935546875,0.7954864501953125,-0.096893310546875
-0.658782958984375,0.8477020263671875,-0.126617431640625
-0.736175537109375,0.899932861328125,-0.1595916748046875
-0.7867431640625,0.891265869140625,-0.19781494140625
-0.8106536865234375,0.824310302734375,-0.1915740966796875
-0.81689453125,0.8604278564453125,-0.189208984375
-0.75469970703125,0.8002777099609375,-0.1725921630859375
-0.64306640625,0.5079803466796875,-0.12939453125
-0.6553955078125,0.4977569580078125,-0.11383056640625
-0.7230377197265625,0.7872161865234375,-0.1587677001953125
-0.6478271484375,0.8071136474609375,-0.1634368896484375
-0.615997314453125,0.7142486572265625,-0.18121337890625
-0.643280029296875,0.6830596923828125,-0.171630859375
-0.623382568359375,0.7038726806640625,-0.102325439453125
-0.5320281982421875,0.746002197265625,-0.0819091796875
-0.4439697265625,0.7628631591796875,-0.1119842529296875
-0.5076904296875,0.7694244384765625,-0.181304931640625
-0.6371612548828125,0.7990570068359375,-0.1748504638671875
-0.696319580078125,0.8572845458984375,-0.16180419921875
-0.7054595947265625,0.846923828125,-0.18707275390625
-0.7126922607421875,0.8068695068359375,-0.1995697021484375
-0.714813232421875,0.897491455078125,-0.2201385498046875
-0.7291107177734375,1.00640869140625,-0.2732696533203125
-0.57220458984375,0.7479095458984375,-0.180938720703125
-0.559539794921875,0.6609649658203125,-0.09185791015625
-0.55133056640625,0.79071044921875,-0.1484832763671875
-0.516693115234375,0.803466796875,-0.1746673583984375
-0.524932861328125,0.6484222412109375,-0.137939453125
-0.5474853515625,0.6055755615234375,-0.164031982421875
-0.526458740234375,0.64678955078125,-0.177398681640625
-0.50537109375,0.68145751953125,-0.1240997314453125
-0.555389404296875,0.6923065185546875,-0.1339569091796875
-0.6074981689453125,0.7142486572265625,-0.1392059326171875
-0.6947479248046875,0.81036376953125,-0.1231231689453125
-0.742889404296875,0.932159423828125,-0.085174560546875
-0.7068023681640625,0.896240234375,-0.108245849609375
-0.667388916015625,0.8287200927734375,-0.1440582275390625
-0.7555999755859375,0.9344940185546876,-0.1319427490234375
-0.6879425048828125,0.884490966796875,-0.170257568359375
-0.5833740234375,0.63665771484375,-0.175384521484375
-0.6348876953125,0.5666656494140625,-0.1432647705078125
-0.7386932373046875,0.6305694580078125,-0.1042633056640625
-0.7441253662109375,0.680206298828125,-0.0827789306640625
-0.695587158203125,0.637359619140625,-0.0498809814453125
-0.6790008544921875,0.6770477294921875,-0.1085052490234375
-0.61688232421875,0.71124267578125,-0.12225341796875
-0.591949462890625,0.698760986328125,-0.0626678466796875
-0.5954742431640625,0.702423095703125,0.0034027099609375
-0.6714324951171875,0.7339324951171875,-0.0718994140625
-0.7172393798828125,0.803955078125,-0.1251678466796875
-0.755889892578125,0.8832550048828125,-0.06231689453125
-0.6688232421875,0.8385772705078125,-0.0374298095703125
-0.70001220703125,0.9978790283203124,-0.096588134765625
-0.7390594482421875,0.9884796142578124,-0.208404541015625
-0.6309814453125,0.726043701171875,-0.11676025390625
-0.6342010498046875,0.7315216064453125,-0.0575714111328125
-0.6252899169921875,0.8691558837890625,-0.133697509765625
-0.5428924560546875,0.807342529296875,-0.1375274658203125
-0.524444580078125,0.695220947265625,-0.1233673095703125
-0.4683990478515625,0.6537933349609375,-0.130584716796875
-0.4454193115234375,0.6466217041015625,-0.113037109375
-0.486663818359375,0.6355438232421875,-0.0675048828125
-0.5528411865234375,0.673309326171875,-0.0409698486328125
-0.5998077392578125,0.7407684326171875,-0.096588134765625
-0.6517791748046875,0.80255126953125,-0.140533447265625
-0.7120513916015625,0.8900604248046875,-0.2122650146484375
-0.8023223876953125,0.919189453125,-0.248199462890625
-0.7126617431640625,1.1049041748046875,-0.04180908203125
-0.5664520263671875,1.00201416015625,-0.131622314453125
-0.6624755859375,0.7457122802734375,-0.31146240234375
-0.707916259765625,0.6122589111328125,-0.180084228515625
-0.7144775390625,0.68450927734375,-0.0849151611328125
-0.662628173828125,0.7451934814453125,-0.10443115234375
-0.5708770751953125,0.657073974609375,-0.081390380859375
-0.5307769775390625,0.6269378662109375,-0.0305938720703125
-0.5752716064453125,0.63641357421875,-0.0458526611328125
-0.61444091796875,0.6813201904296875,-0.1407012939453125
-0.6136322021484375,0.7236480712890625,-0.1526031494140625
-0.6755218505859375,0.7652587890625,-0.1245880126953125
-0.6707763671875,0.795196533203125,-0.0372161865234375
-0.6735382080078125,0.841461181640625,-0.02349853515625
-0.70025634765625,0.87396240234375,-0.1026611328125
-0.731048583984375,1.002349853515625,-0.1302032470703125
-0.71575927734375,1.0377044677734375,-0.150482177734375
-0.6241912841796875,0.817138671875,-0.1635894775390625
-0.551422119140625,0.7676544189453125,-0.0720367431640625
-0.50604248046875,0.875396728515625,-0.1159210205078125
-0.4597015380859375,0.872772216796875,-0.138946533203125
-0.478057861328125,0.761932373046875,-0.139312744140625
-0.4946136474609375,0.71112060546875,-0.07073974609375
-0.506927490234375,0.716827392578125,-0.062347412109375
-0.5231475830078125,0.69683837890625,-0.0801849365234375
-0.5233917236328125,0.6929931640625,-0.102325439453125
-0.5352020263671875,0.6796875,-0.12744140625
-0.6233673095703125,0.7269134521484375,-0.12890625
-0.69677734375,0.8444671630859375,-0.109039306640625
-0.6344451904296875,0.8574066162109375,-0.1152801513671875
-0.67022705078125,0.857147216796875,-0.183380126953125
-0.730743408203125,0.9864349365234376,-0.202667236328125
-0.6753082275390625,0.850341796875,-0.2313079833984375
-0.61041259765625,0.6003265380859375,-0.178619384765625
-0.6653289794921875,0.6345977783203125,-0.0411224365234375
-0.6677398681640625,0.8094635009765625,-0.0417022705078125
-0.664825439453125,0.8165740966796875,-0.1602630615234375
-0.6044921875,0.6561737060546875,-0.1871795654296875
-0.601654052734375,0.5996246337890625,-0.058929443359375
-0.649261474609375,0.648223876953125,0.036895751953125
-0.6609039306640625,0.7018585205078125,0.0367279052734375
-0.6468658447265625,0.702545166015625,-0.0937347412109375
-0.7149505615234375,0.7316436767578125,-0.2096405029296875
-0.7996368408203125,0.8341522216796875,-0.1983489990234375
-0.73223876953125,0.8703460693359375,-0.1199493408203125
-0.6358489990234375,0.8384246826171875,-0.131103515625
-0.619842529296875,0.8773040771484375,-0.14361572265625
-0.674407958984375,0.8924102783203125,-0.2328643798828125
-0.595672607421875,0.8127288818359375,-0.20574951171875
-0.5760650634765625,0.7633209228515625,-0.127685546875
-0.598236083984375,0.8441619873046875,-0.096466064453125
-0.59307861328125,0.831024169921875,-0.130279541015625
-0.47906494140625,0.7245025634765625,-0.1713714599609375
-0.39361572265625,0.7002410888671875,-0.170623779296875
-0.4035491943359375,0.7297515869140625,-0.134185791015625
-0.428924560546875,0.7627410888671875,-0.0478363037109375
-0.493560791015625,0.8016357421875,-0.003570556640625
-0.579742431640625,0.8347320556640625,-0.003082275390625
-0.66802978515625,0.9537506103515624,-0.06219482421875
-0.615966796875,0.9341278076171876,-0.1294097900390625
-0.650421142578125,0.980255126953125,-0.1353759765625
-0.6481475830078125,0.9301300048828124,-0.1556854248046875
-0.620330810546875,0.8126678466796875,-0.13519287109375
-0.59625244140625,0.6434173583984375,-0.1114959716796875
-0.6681060791015625,0.6690216064453125,-0.0246734619140625
-0.7055206298828125,0.7209930419921875,-0.0349578857421875
-0.6328582763671875,0.7025299072265625,-0.08123779296875
-0.530914306640625,0.6711578369140625,-0.0754547119140625
-0.537139892578125,0.6811370849609375,-0.0676422119140625
-0.641510009765625,0.7200164794921875,-0.0075836181640625
-0.5764617919921875,0.806427001953125,-0.03076171875
-0.515838623046875,0.7764739990234375,-0.1434326171875
-0.566070556640625,0.7659454345703125,-0.166595458984375
-0.6175079345703125,0.7833404541015625,-0.0641937255859375
-0.652008056640625,0.81573486328125,-0.0173797607421875
-0.700408935546875,0.78955078125,-0.0763092041015625
-0.8151397705078125,0.9050750732421876,-0.1241302490234375
-0.7989654541015625,0.978424072265625,-0.1365509033203125
-0.739166259765625,0.8454742431640625,-0.1579437255859375
-0.7037811279296875,0.76263427734375,-0.1351318359375
-0.600677490234375,0.83880615234375,-0.148223876953125
-0.5055084228515625,0.8598480224609375,-0.1798095703125
-0.423980712890625,0.742645263671875,-0.112884521484375
-0.42120361328125,0.6678009033203125,-0.0861053466796875
-0.47442626953125,0.68231201171875,-0.1443023681640625
-0.5404205322265625,0.68890380859375,-0.1090240478515625
-0.566131591796875,0.7105560302734375,-0.114166259765625
-0.5577239990234375,0.7228240966796875,-0.1617431640625
-0.6365203857421875,0.7575225830078125,-0.1128387451171875
-0.7195587158203125,0.8910980224609375,-0.0461273193359375
-0.71392822265625,0.80755615234375,-0.1204833984375
-0.759185791015625,0.92987060546875,-0.1108856201171875
-0.620025634765625,0.9000396728515625,-0.1865081787109375
-0.53411865234375,0.7179718017578125,-0.2044677734375
-0.6024322509765625,0.6406707763671875,-0.0619049072265625
-0.676605224609375,0.724639892578125,0.0208587646484375
-0.667724609375,0.74114990234375,-0.060577392578125
-0.553955078125,0.6778717041015625,-0.10235595703125
-0.5326995849609375,0.6682586669921875,-0.072265625
-0.5837249755859375,0.6558837890625,-0.0566864013671875
-0.6366119384765625,0.654571533203125,-0.0251007080078125
-0.6801910400390625,0.6596832275390625,-0.0586395263671875
-0.7411346435546875,0.662017822265625,-0.0927581787109375
-0.7884674072265625,0.7111053466796875,-0.0987091064453125
-0.791961669921875,0.7933807373046875,-0.0919036865234375
-0.8243408203125,0.7847442626953125,-0.11749267578125
-0.8893890380859375,0.854522705078125,-0.106048583984375
-0.86151123046875,0.9125213623046876,-0.1925048828125
-0.754974365234375,0.8788604736328125,-0.2452850341796875
-0.6686859130859375,0.6992950439453125,-0.1865081787109375
-0.6590728759765625,0.755340576171875,-0.177093505859375
-0.6507720947265625,0.882537841796875,-0.2139739990234375
-0.5686492919921875,0.8084716796875,-0.19415283203125
-0.535064697265625,0.734039306640625,-0.1212005615234375
-0.4711761474609375,0.7099151611328125,-0.1550750732421875
-0.4195098876953125,0.720428466796875,-0.1197967529296875
-0.366455078125,0.687744140625,-0.001312255859375
-0.442138671875,0.6871490478515625,-0.002685546875
-0.5174560546875,0.76263427734375,-0.063262939453125
-0.586822509765625,0.84368896484375,-0.0987548828125
-0.6312408447265625,0.8454742431640625,-0.103240966796875
-0.7429656982421875,0.875518798828125,-0.10467529296875
-0.787261962890625,0.924957275390625,-0.140899658203125
-0.7380218505859375,0.7812347412109375,-0.179962158203125
-0.7454376220703125,0.6215972900390625,-0.112091064453125
-0.7775115966796875,0.512451171875,-0.0153350830078125
-0.8464202880859375,0.6266326904296875,-0.026519775390625
-0.9649505615234376,0.8117828369140625,-0.1609344482421875
-0.9249420166015624,0.7971038818359375,-0.1822967529296875
-0.8639678955078125,0.6889495849609375,-0.1967620849609375
-0.76611328125,0.66461181640625,-0.2104949951171875
-0.6569976806640625,0.6959686279296875,-0.199737548828125
-0.6637725830078125,0.7820281982421875,-0.1498565673828125
-0.5523834228515625,0.763671875,-0.042236328125
-0.4863128662109375,0.744232177734375,-0.18701171875
-0.5610198974609375,0.8230743408203125,-0.3854217529296875
-0.493621826171875,0.8126983642578125,-0.3160247802734375
-0.51666259765625,0.7968292236328125,-0.13922119140625
-0.587493896484375,0.77618408203125,-0.0914459228515625
-0.5982208251953125,0.7287139892578125,-0.047882080078125
-0.669769287109375,0.7118682861328125,-0.082794189453125
-0.72918701171875,0.7752685546875,-0.1452484130859375
-0.693115234375,0.7972412109375,-0.2264556884765625
-0.532196044921875,0.67950439453125,-0.1959228515625
-0.52532958984375,0.6811370849609375,-0.2320098876953125
-0.59185791015625,0.7014007568359375,-0.2926788330078125
-0.664337158203125,0.69580078125,-0.281005859375
-0.749725341796875,0.6644134521484375,-0.2712249755859375
-0.7626190185546875,0.6557464599609375,-0.36138916015625
-0.75238037109375,0.6399383544921875,-0.5009613037109375
-0.695098876953125,0.659393310546875,-0.5272064208984375
-0.8018035888671875,0.6443023681640625,-0.2678680419921875
-0.881988525390625,0.623382568359375,-0.20989990234375
-0.8204803466796875,0.6443328857421875,-0.344573974609375
-0.734100341796875,0.65777587890625,-0.401824951171875
-0.74481201171875,0.688079833984375,-0.340606689453125
-0.740325927734375,0.6927642822265625,-0.285308837890625
-0.7083740234375,0.712310791015625,-0.2530059814453125
-0.714324951171875,0.755950927734375,-0.285614013671875
-0.6367340087890625,0.785430908203125,-0.217010498046875
-0.5683441162109375,0.77545166015625,-0.2397918701171875
-0.5157928466796875,0.7370758056640625,-0.22735595703125
-0.4761810302734375,0.7740936279296875,-0.1353912353515625
-0.5152740478515625,0.733978271484375,0.0200042724609375
-0.6278228759765625,0.7681884765625,0.1179351806640625
-0.655975341796875,0.8636932373046875,-0.01202392578125
-0.5995330810546875,0.8082275390625,-0.089080810546875
-0.5798187255859375,0.725860595703125,-0.107208251953125
-0.627716064453125,0.71661376953125,-0.067779541015625
-0.6826171875,0.7165374755859375,-0.0204925537109375
-0.700775146484375,0.7052459716796875,-0.0452117919921875
-0.671234130859375,0.6805572509765625,-0.0717010498046875
-0.6626739501953125,0.6499786376953125,-0.064056396484375
-0.6925048828125,0.6283416748046875,-0.0863800048828125
-0.7594451904296875,0.6332855224609375,-0.12115478515625
-0.8319091796875,0.67578125,-0.124053955078125
-0.872161865234375,0.69842529296875,-0.116607666015625
-0.8938751220703125,0.676910400390625,-0.1151275634765625
-0.950286865234375,0.7733917236328125,-0.1434783935546875
-0.9351043701171876,0.8182830810546875,-0.2489471435546875
-0.7416839599609375,0.72991943359375,-0.1961822509765625
-0.5628204345703125,0.8356475830078125,-0.1529998779296875
-0.5403594970703125,0.8817291259765625,-0.237945556640625
-0.696014404296875,0.898040771484375,-0.3064727783203125
-0.6254425048828125,0.8033294677734375,-0.2473907470703125
-0.4406890869140625,0.7134246826171875,-0.1282806396484375
-0.4488372802734375,0.6637725830078125,-0.1486968994140625
-0.541259765625,0.66015625,-0.1273956298828125
-0.5094146728515625,0.74957275390625,-0.1326904296875
-0.45062255859375,0.7795562744140625,-0.1403350830078125
-0.4941253662109375,0.7980804443359375,-0.09490966796875
-0.60980224609375,0.906707763671875,-0.1016998291015625
-0.623779296875,0.9127044677734376,-0.1515350341796875
-0.59783935546875,0.829620361328125,-0.17718505859375
-0.687408447265625,0.9508209228515624,-0.125335693359375
-0.668731689453125,0.957183837890625,-0.146575927734375
-0.6501922607421875,0.689971923828125,-0.1668243408203125
-0.6760711669921875,0.586456298828125,-0.0404052734375
-0.6342010498046875,0.6805267333984375,0.013397216796875
-0.5703887939453125,0.745086669921875,-0.048309326171875
-0.552276611328125,0.73077392578125,-0.1229705810546875
-0.545257568359375,0.699493408203125,-0.176910400390625
-0.5593414306640625,0.66387939453125,-0.21405029296875
-0.594146728515625,0.645294189453125,-0.1326904296875
-0.6309051513671875,0.668304443359375,-0.0644378662109375
-0.696014404296875,0.683197021484375,-0.0930938720703125
-0.7566680908203125,0.731658935546875,-0.0767059326171875
-0.7916259765625,0.8071136474609375,-0.063629150390625
-0.8087005615234375,0.8169097900390625,-0.0975799560546875
-0.81982421875,0.8238372802734375,-0.1293182373046875
-0.742095947265625,0.92987060546875,-0.1587982177734375
-0.66259765625,0.94293212890625,-0.174041748046875
-0.6114654541015625,0.6961669921875,-0.1441650390625
-0.601898193359375,0.771240234375,-0.1490325927734375
-0.63671875,0.8856353759765625,-0.216766357421875
-0.669830322265625,0.8163299560546875,-0.2076416015625
-0.640045166015625,0.6900787353515625,-0.0937042236328125
-0.575042724609375,0.6538238525390625,-0.044647216796875
-0.530670166015625,0.67633056640625,-0.0892486572265625
-0.5305633544921875,0.672149658203125,-0.06231689453125
-0.5274810791015625,0.6772308349609375,-0.0461883544921875
-0.5343017578125,0.7087554931640625,-0.0872650146484375
-0.602203369140625,0.7806243896484375,-0.065093994140625
-0.670654296875,0.8748626708984375,-0.0622711181640625
-0.7089691162109375,0.905731201171875,-0.1234588623046875
-0.64703369140625,1.00909423828125,-0.1900787353515625
-0.6324615478515625,0.919769287109375,-0.2889556884765625
-0.55908203125,0.7137603759765625,-0.2748870849609375
-0.6202850341796875,0.6111602783203125,-0.1425628662109375
-0.6566162109375,0.6962127685546875,-0.040283203125
-0.568115234375,0.748748779296875,-0.0695648193359375
-0.535797119140625,0.6763458251953125,-0.0580902099609375
-0.5692596435546875,0.642120361328125,-0.0711212158203125
-0.6251068115234375,0.6428680419921875,-0.0345611572265625
-0.67828369140625,0.619842529296875,-0.002685546875
-0.768402099609375,0.6310272216796875,-0.0106353759765625
-0.84149169921875,0.6881866455078125,0.0242462158203125
-0.837738037109375,0.747222900390625,-0.006195068359375
-0.8319091796875,0.7645721435546875,-0.1092681884765625
-0.844573974609375,0.7372283935546875,-0.10443115234375
-0.792449951171875,0.6873779296875,-0.0697479248046875
-0.8378448486328125,0.872802734375,-0.1008453369140625
-0.8138580322265625,0.867431640625,-0.1303253173828125
-0.7590789794921875,0.7034759521484375,-0.1225128173828125
-0.717498779296875,0.7368011474609375,-0.127044677734375
-0.6790313720703125,0.8234100341796875,-0.1171417236328125
-0.699127197265625,0.8734130859375,-0.1503753662109375
-0.6276092529296875,0.7708740234375,-0.14892578125
-0.515350341796875,0.6942901611328125,-0.0937042236328125
-0.46368408203125,0.67962646484375,-0.0876922607421875
-0.4908905029296875,0.6811981201171875,-0.0872039794921875
-0.5298309326171875,0.6928558349609375,-0.0980072021484375
-0.5577239990234375,0.694549560546875,-0.1085357666015625
-0.5776214599609375,0.6851043701171875,-0.075042724609375
-0.6512298583984375,0.7954864501953125,-0.0675201416015625
-0.6480712890625,0.8259124755859375,-0.1443634033203125
-0.7174224853515625,0.858062744140625,-0.17132568359375
-0.71826171875,0.952728271484375,-0.1669158935546875
-0.6453399658203125,0.8218231201171875,-0.2794189453125
-0.662322998046875,0.5702362060546875,-0.2404327392578125
-0.6951446533203125,0.5948486328125,0.01715087890625
-0.655975341796875,0.7037506103515625,0.003662109375
-0.6424407958984375,0.7334747314453125,-0.1517181396484375
-0.6119232177734375,0.686798095703125,-0.2249755859375
-0.621063232421875,0.6380462646484375,-0.2368927001953125
-0.6844635009765625,0.63348388671875,-0.133209228515625
-0.7382965087890625,0.645904541015625,-0.039642333984375
-0.7534332275390625,0.6546630859375,-0.01593017578125
-0.791748046875,0.6834564208984375,-0.047454833984375
-0.785919189453125,0.704437255859375,-0.08575439453125
-0.803863525390625,0.8003387451171875,-0.142974853515625
-0.7628021240234375,0.8678741455078125,-0.0836029052734375
-0.6645965576171875,1.000823974609375,-0.142242431640625
-0.720001220703125,0.95513916015625,-0.273406982421875
-0.71856689453125,0.76556396484375,-0.2638397216796875
-0.6794891357421875,0.713104248046875,-0.12158203125
-0.4402923583984375,0.84112548828125,-0.0496978759765625
-0.360504150390625,0.8741912841796875,-0.12481689453125
-0.4654541015625,0.7633209228515625,-0.3155517578125
-0.5364532470703125,0.7170562744140625,-0.271697998046875
-0.467193603515625,0.71356201171875,-0.0765228271484375
-0.4611968994140625,0.673736572265625,0.005584716796875
-0.502532958984375,0.6873321533203125,-0.05279541015625
-0.4997100830078125,0.749114990234375,-0.1236572265625
-0.53863525390625,0.773773193359375,-0.1044158935546875
-0.64434814453125,0.8912353515625,-0.0796966552734375
-0.7103729248046875,0.9833984375,-0.1290740966796875
-0.7275238037109375,0.9535675048828124,-0.1874847412109375
-0.7467041015625,0.9795379638671876,-0.2122802734375
-0.645599365234375,0.8239288330078125,-0.186798095703125
-0.6047515869140625,0.5463714599609375,-0.07891845703125
-0.67596435546875,0.5928192138671875,-0.0079345703125
-0.704498291015625,0.7580718994140625,-0.1163177490234375
-0.64251708984375,0.771514892578125,-0.18475341796875
-0.5647430419921875,0.6923828125,-0.1934814453125
-0.532135009765625,0.6827545166015625,-0.12603759765625
-0.5441436767578125,0.6616668701171875,-0.04107666015625
-0.5337066650390625,0.6560211181640625,0.003082275390625
-0.6112823486328125,0.6518402099609375,-0.1045684814453125
-0.7274932861328125,0.7081298828125,-0.1468505859375
-0.7715606689453125,0.835174560546875,-0.125640869140625
-0.8097686767578125,0.8566436767578125,-0.11663818359375
-0.86004638671875,0.8531036376953125,-0.071197509765625
-0.7648162841796875,0.8855743408203125,-0.143463134765625
-0.63433837890625,0.8715362548828125,-0.2030029296875
-0.5330810546875,0.7609405517578125,-0.2418365478515625
-0.5658721923828125,0.8887481689453125,-0.1760711669921875
-0.503204345703125,0.94940185546875,-0.096282958984375
-0.4957427978515625,0.7698974609375,-0.1107635498046875
-0.51409912109375,0.6628875732421875,-0.1690826416015625
-0.5312347412109375,0.6478271484375,-0.1651153564453125
-0.535736083984375,0.6527557373046875,-0.058807373046875
-0.5149383544921875,0.6674652099609375,-0.002685546875
-0.55816650390625,0.713775634765625,-0.0149688720703125
-0.65863037109375,0.857269287109375,-0.121307373046875
-0.676910400390625,0.945770263671875,-0.183563232421875
-0.614959716796875,0.885223388671875,-0.2159423828125
-0.6622467041015625,0.9795379638671876,-0.2112579345703125
-0.640777587890625,0.967437744140625,-0.2586669921875
-0.540679931640625,0.7016143798828125,-0.205810546875
-0.6046295166015625,0.6650238037109375,0.00592041015625
-0.6085205078125,0.750457763671875,0.075103759765625
-0.497344970703125,0.795013427734375,-0.0290069580078125
-0.365081787109375,0.7666778564453125,-0.116180419921875
-0.404510498046875,0.759735107421875,-0.137420654296875
-0.4964447021484375,0.7333526611328125,-0.058624267578125
-0.5220947265625,0.6964111328125,0.012451171875
-0.5974273681640625,0.6964263916015625,-0.062591552734375
-0.6912384033203125,0.7207183837890625,-0.096221923828125
-0.7747955322265625,0.78839111328125,-0.1112518310546875
-0.7974395751953125,0.81365966796875,-0.0461883544921875
-0.8085479736328125,0.726287841796875,-0.01885986328125
-0.79443359375,0.78662109375,-0.082550048828125
-0.809783935546875,0.976318359375,-0.1899566650390625
-0.7949371337890625,0.89862060546875,-0.2139129638671875
-0.6917877197265625,0.828369140625,-0.1590576171875
-0.5954132080078125,0.8628997802734375,-0.167877197265625
-0.5167694091796875,0.85406494140625,-0.1341400146484375
-0.3823699951171875,0.8166046142578125,-0.1093292236328125
-0.3269805908203125,0.8106689453125,-0.144134521484375
-0.4412689208984375,0.799560546875,-0.104217529296875
-0.4360809326171875,0.7455291748046875,-0.0159149169921875
-0.4322357177734375,0.7357635498046875,-0.106658935546875
-0.4717864990234375,0.799041748046875,-0.1623687744140625
-0.47076416015625,0.883392333984375,-0.116546630859375
-0.58856201171875,0.9396820068359376,-0.19781494140625
-0.6317291259765625,0.896575927734375,-0.2728729248046875
-0.6293182373046875,0.9749298095703124,-0.1848602294921875
-0.558380126953125,0.9027862548828124,-0.149017333984375
-0.6339569091796875,0.77398681640625,-0.19439697265625
-0.655609130859375,0.6408538818359375,-0.1425628662109375
-0.6350860595703125,0.6789703369140625,-0.12744140625
-0.655303955078125,0.748199462890625,-0.1728973388671875
-0.60595703125,0.7196044921875,-0.14178466796875
-0.6188201904296875,0.6595611572265625,-0.096832275390625
-0.6939239501953125,0.627044677734375,-0.009246826171875
-0.8005828857421875,0.650970458984375,0.1005401611328125
-0.6652069091796875,0.676483154296875,0.0698394775390625
-0.6692657470703125,0.7253265380859375,-0.170562744140625
-0.8102569580078125,0.7775115966796875,-0.1170654296875
-0.838531494140625,0.7896270751953125,0.0864105224609375
-0.7393341064453125,0.773468017578125,0.0181884765625
-0.6691741943359375,0.807525634765625,-0.1747894287109375
-0.7826385498046875,0.9087371826171876,-0.1763763427734375
-0.8246307373046875,0.932861328125,-0.156402587890625
-0.72967529296875,0.7778472900390625,-0.211212158203125
-0.6468353271484375,0.6248016357421875,-0.226318359375
-0.5984039306640625,0.724609375,-0.1155548095703125
-0.5185394287109375,0.8875274658203125,-0.0975189208984375
-0.466796875,0.8247833251953125,-0.164703369140625
-0.4721527099609375,0.756378173828125,-0.221923828125
-0.44378662109375,0.73663330078125,-0.2318115234375
-0.41424560546875,0.72491455078125,-0.1451568603515625
-0.4195098876953125,0.7502593994140625,-0.1004486083984375
-0.4453582763671875,0.773406982421875,-0.151580810546875
-0.5516815185546875,0.7944488525390625,-0.1515045166015625
-0.722900390625,0.9177093505859376,-0.094085693359375
-0.67034912109375,0.9349822998046876,-0.0938262939453125
-0.695556640625,0.9217376708984376,-0.1515045166015625
-0.743621826171875,0.98797607421875,-0.186920166015625
-0.6858673095703125,0.80780029296875,-0.2174835205078125
-0.6845855712890625,0.5198822021484375,-0.1077117919921875
-0.7449798583984375,0.586669921875,0.0685272216796875
-0.6999969482421875,0.7127532958984375,0.0279083251953125
-0.5836181640625,0.7375946044921875,-0.18707275390625
-0.51507568359375,0.672119140625,-0.2568206787109375
-0.4990386962890625,0.6522979736328125,-0.1771240234375
-0.56341552734375,0.6544952392578125,-0.096771240234375
-0.602386474609375,0.6982879638671875,-0.029296875
-0.6278076171875,0.7192535400390625,-0.0701141357421875
-0.71075439453125,0.721527099609375,-0.1904754638671875
-0.8023681640625,0.778594970703125,-0.1195831298828125
-0.8321990966796875,0.835693359375,-0.034759521484375
-0.772369384765625,0.7969207763671875,-0.042816162109375
-0.74957275390625,0.89923095703125,-0.179779052734375
-0.7343292236328125,1.010650634765625,-0.282684326171875
-0.6631011962890625,0.7514801025390625,-0.2364959716796875
-0.6451568603515625,0.6631317138671875,-0.0918121337890625
-0.700408935546875,0.7944488525390625,-0.1306915283203125
-0.6720428466796875,0.90032958984375,-0.16729736328125
-0.567657470703125,0.8331146240234375,-0.193450927734375
-0.4708709716796875,0.7064361572265625,-0.2310791015625
-0.4360809326171875,0.6744232177734375,-0.1712646484375
-0.4284515380859375,0.6757965087890625,-0.0732421875
-0.432891845703125,0.6757965087890625,0.0053253173828125
-0.4738616943359375,0.69525146484375,-0.0756683349609375
-0.576904296875,0.7886962890625,-0.1435394287109375
-0.645843505859375,0.88555908203125,-0.1343536376953125
-0.7192840576171875,0.881256103515625,-0.133453369140625
-0.837677001953125,1.024139404296875,-0.119659423828125
-0.7726898193359375,0.919464111328125,-0.196197509765625
-0.72796630859375,0.7154998779296875,-0.2842254638671875
-0.738372802734375,0.531524658203125,-0.1648712158203125
-0.7514495849609375,0.604827880859375,-0.0196533203125
-0.744720458984375,0.703369140625,-0.066650390625
-0.68035888671875,0.6746673583984375,-0.16265869140625
-0.629486083984375,0.6111907958984375,-0.08251953125
-0.572601318359375,0.6277923583984375,-0.072509765625
-0.581573486328125,0.6603240966796875,-0.175018310546875
-0.587066650390625,0.66387939453125,-0.1942291259765625
-0.65643310546875,0.6587982177734375,-0.1443328857421875
-0.756805419921875,0.6874237060546875,-0.1442413330078125
-0.7948455810546875,0.7381591796875,-0.1099395751953125
-0.8116607666015625,0.7902984619140625,-0.120819091796875
-0.83123779296875,0.879547119140625,-0.166412353515625
-0.8386077880859375,0.916717529296875,-0.206817626953125
-0.7418060302734375,0.7574310302734375,-0.2015838623046875
-0.6769561767578125,0.58148193359375,-0.115447998046875
-0.6541595458984375,0.656524658203125,-0.152130126953125
-0.591827392578125,0.868743896484375,-0.246826171875
-0.572723388671875,0.9852142333984376,-0.2782135009765625
-0.56884765625,0.8119659423828125,-0.23968505859375
-0.528594970703125,0.6762237548828125,-0.2794952392578125
-0.5203399658203125,0.660919189453125,-0.2521209716796875
-0.5147552490234375,0.6877593994140625,-0.1737213134765625
-0.543975830078125,0.7541046142578125,-0.143310546875
-0.544281005859375,0.759002685546875,-0.0995635986328125
-0.5693359375,0.74560546875,-0.1064910888671875
-0.6449737548828125,0.7946319580078125,-0.10400390625
-0.7412872314453125,0.9165191650390624,-0.032562255859375
-0.663665771484375,0.7473602294921875,-0.093505859375
-0.730865478515625,0.5766448974609375,-0.099853515625
-0.772674560546875,0.56341552734375,0.00054931640625
-0.8093719482421875,0.72283935546875,0.0248260498046875
-0.866363525390625,0.811248779296875,-0.1057891845703125
-0.8424224853515625,0.73785400390625,-0.15087890625
-0.7606048583984375,0.676483154296875,-0.218231201171875
-0.666473388671875,0.62164306640625,-0.2340545654296875
-0.65032958984375,0.6596221923828125,-0.1517486572265625
-0.61187744140625,0.7017059326171875,-0.1596832275390625
-0.6042327880859375,0.7465972900390625,-0.1942291259765625
-0.5437164306640625,0.722259521484375,-0.21502685546875
-0.4902801513671875,0.745635986328125,-0.2309112548828125
-0.5285186767578125,0.8466033935546875,-0.257568359375
-0.5684814453125,0.919219970703125,-0.23284912109375
-0.61224365234375,0.98736572265625,-0.2714385986328125
-0.5608673095703125,0.8495941162109375,-0.3520965576171875
-0.5763092041015625,0.802886962890625,-0.236785888671875
-0.5583648681640625,0.819610595703125,-0.189483642578125
-0.489044189453125,0.7519989013671875,-0.2115936279296875
-0.4673309326171875,0.729217529296875,-0.238983154296875
-0.526123046875,0.787841796875,-0.254791259765625
-0.5610504150390625,0.790069580078125,-0.244598388671875
-0.6409759521484375,0.7513275146484375,-0.2181243896484375
-0.7632293701171875,0.7358856201171875,-0.1951141357421875
-0.8316497802734375,0.7441253662109375,-0.1656494140625
-0.7855072021484375,0.8070526123046875,-0.23583984375
-0.604736328125,0.779266357421875,-0.2291717529296875
-0.5584259033203125,0.846466064453125,-0.1479339599609375
-0.5345001220703125,0.9558258056640624,-0.188140869140625
-0.3358306884765625,0.8414306640625,-0.19744873046875
-0.3832855224609375,0.704925537109375,-0.0039215087890625
-0.57415771484375,0.74542236328125,0.0124664306640625
-0.5702056884765625,0.8763275146484375,-0.01885986328125
-0.5055084228515625,0.876068115234375,-0.0110321044921875
-0.59869384765625,0.8109130859375,-0.069305419921875
-0.6126708984375,0.826263427734375,0.03814697265625
-0.536346435546875,0.8571014404296875,0.117462158203125
-0.5072479248046875,0.7955322265625,0.0641937255859375
-0.4896087646484375,0.7967681884765625,-0.0223541259765625
-0.516082763671875,0.763214111328125,-0.04632568359375
-0.5780181884765625,0.7140655517578125,-0.040924072265625
-0.6420135498046875,0.6801300048828125,0.0195465087890625
-0.72265625,0.67742919921875,0.0184478759765625
-0.7797088623046875,0.6842803955078125,-0.0506744384765625
-0.8065032958984375,0.6848297119140625,-0.0598602294921875
-0.8154449462890625,0.701812744140625,0.0140228271484375
-0.8378143310546875,0.7455596923828125,0.0204925537109375
-0.8741302490234375,0.7641448974609375,-0.036956787109375
-0.803985595703125,0.7972412109375,-0.121673583984375
-0.777374267578125,0.8439178466796875,-0.190582275390625
-0.78369140625,0.854278564453125,-0.1075897216796875
-0.7592010498046875,0.7605743408203125,-0.108734130859375
-0.6885528564453125,0.64630126953125,-0.1117706298828125
-0.6791839599609375,0.7924957275390625,-0.150115966796875
-0.677154541015625,0.941650390625,-0.1802825927734375
-0.62030029296875,0.946044921875,-0.1891937255859375
-0.592010498046875,0.824127197265625,-0.205841064453125
-0.5936737060546875,0.7280120849609375,-0.1816558837890625
-0.5261383056640625,0.6983795166015625,-0.135986328125
-0.4107513427734375,0.7058258056640625,-0.100372314453125
-0.4203033447265625,0.7281951904296875,-0.1033782958984375
-0.485076904296875,0.706024169921875,-0.0789947509765625
-0.52313232421875,0.7031707763671875,-0.0516204833984375
-0.52984619140625,0.7796173095703125,-0.056610107421875
-0.5698699951171875,0.8623199462890625,-0.1111297607421875
-0.693878173828125,0.89642333984375,-0.1118621826171875
-0.77557373046875,0.9792938232421876,-0.12646484375
-0.7411956787109375,0.9334869384765624,-0.2033538818359375
-0.6766510009765625,0.73681640625,-0.2285614013671875
-0.6916656494140625,0.58978271484375,-0.0420684814453125
-0.693603515625,0.703857421875,0.0817108154296875
-0.663421630859375,0.7975311279296875,-0.0334930419921875
-0.6502838134765625,0.726776123046875,-0.1580810546875
-0.6200714111328125,0.6544189453125,-0.234893798828125
-0.5986328125,0.646270751953125,-0.209869384765625
-0.6417694091796875,0.6427001953125,-0.0573272705078125
-0.6910552978515625,0.653289794921875,0.0379486083984375
-0.7619476318359375,0.6860809326171875,-0.0467681884765625
-0.797149658203125,0.7009735107421875,-0.0724639892578125
-0.790069580078125,0.772308349609375,-0.070709228515625
-0.8102569580078125,0.837005615234375,-0.080108642578125
-0.78106689453125,0.8197784423828125,-0.0225372314453125
-0.789520263671875,0.987274169921875,-0.1133270263671875
-0.743255615234375,0.97796630859375,-0.245361328125
-0.659637451171875,0.761962890625,-0.1698150634765625
-0.630218505859375,0.7511749267578125,-0.129364013671875
-0.538970947265625,0.8883819580078125,-0.190155029296875
-0.44287109375,0.8616180419921875,-0.2042236328125
-0.497467041015625,0.735931396484375,-0.1677093505859375
-0.502197265625,0.6951446533203125,-0.1455841064453125
-0.3903350830078125,0.705596923828125,-0.1346282958984375
-0.4060821533203125,0.6607208251953125,-0.10394287109375
-0.4667816162109375,0.639678955078125,-0.046356201171875
-0.528076171875,0.7216033935546875,-0.0302581787109375
-0.5861358642578125,0.820220947265625,-0.0855865478515625
-0.7076263427734375,0.9276885986328124,-0.0862579345703125
-0.806488037109375,0.88427734375,-0.1020355224609375
-0.901641845703125,0.87530517578125,-0.1065521240234375
-0.838775634765625,0.9145965576171876,-0.184600830078125
-0.7495574951171875,0.7738800048828125,-0.2175445556640625
-0.6858062744140625,0.549774169921875,-0.0996551513671875
-0.7308807373046875,0.594329833984375,-0.05572509765625
-0.7947540283203125,0.70184326171875,-0.128662109375
-0.805816650390625,0.650115966796875,-0.1253204345703125
-0.78509521484375,0.6046600341796875,-0.1212615966796875
-0.7458038330078125,0.64923095703125,-0.10443115234375
-0.706634521484375,0.6832427978515625,-0.0697784423828125
-0.6024627685546875,0.689361572265625,-0.068359375
-0.5754852294921875,0.6981658935546875,-0.11907958984375
-0.5927276611328125,0.735809326171875,-0.16741943359375
-0.663848876953125,0.7472076416015625,-0.1165618896484375
-0.757568359375,0.783233642578125,-0.03717041015625
-0.7398681640625,0.816070556640625,0.0025482177734375
-0.7604217529296875,0.926361083984375,-0.0705108642578125
-0.745635986328125,0.951324462890625,-0.18597412109375
-0.6968231201171875,0.774688720703125,-0.14605712890625
-0.660125732421875,0.60589599609375,-0.0375518798828125
-0.57415771484375,0.6658172607421875,-0.0057830810546875
-0.5148468017578125,0.7762908935546875,-0.0417938232421875
-0.493255615234375,0.7422637939453125,-0.087677001953125
-0.55413818359375,0.6469879150390625,-0.1728515625
-0.619598388671875,0.626678466796875,-0.235809326171875
-0.65869140625,0.612274169921875,-0.1518096923828125
-0.656982421875,0.6824798583984375,-0.049102783203125
-0.64013671875,0.785064697265625,-0.099639892578125
-0.671234130859375,0.8171844482421875,-0.1486663818359375
-0.7554931640625,0.8254241943359375,-0.0135498046875
-0.6746063232421875,0.8322296142578125,-0.0236968994140625
-0.6462860107421875,0.818878173828125,-0.2259063720703125
-0.74200439453125,0.927642822265625,-0.254150390625
-0.7541351318359375,0.8396453857421875,-0.1962738037109375
-0.69720458984375,0.4884185791015625,-0.0633392333984375
-0.720703125,0.4581146240234375,-0.0110015869140625
-0.7387237548828125,0.594879150390625,-0.0154571533203125
-0.6817474365234375,0.6904296875,-0.0966796875
-0.6943817138671875,0.739166259765625,-0.133209228515625
-0.640350341796875,0.7467803955078125,-0.21124267578125
-0.61822509765625,0.7518157958984375,-0.363494873046875
-0.5970306396484375,0.7286224365234375,-0.3087005615234375
-0.610382080078125,0.74676513671875,-0.1455841064453125
-0.655364990234375,0.7852020263671875,-0.041351318359375
-0.65557861328125,0.77691650390625,-0.0055084228515625
-0.627532958984375,0.81182861328125,-0.0686798095703125
-0.6322479248046875,0.856475830078125,-0.15765380859375
-0.746917724609375,1.01385498046875,-0.1436920166015625
-0.7285308837890625,0.961517333984375,-0.1655731201171875
-0.6752777099609375,0.7238006591796875,-0.1389312744140625
-0.729644775390625,0.636810302734375,-0.07000732421875
-0.705535888671875,0.751251220703125,-0.081085205078125
-0.664642333984375,0.8157196044921875,-0.1065673828125
-0.665191650390625,0.70404052734375,-0.1524200439453125
-0.623291015625,0.629638671875,-0.161865234375
-0.5460968017578125,0.65789794921875,-0.18267822265625
-0.5098876953125,0.6380615234375,-0.109466552734375
-0.4834442138671875,0.64190673828125,-0.0586700439453125
-0.481048583984375,0.699493408203125,-0.13470458984375
-0.5190277099609375,0.7541046142578125,-0.106170654296875
-0.6313018798828125,0.9038848876953124,-0.10174560546875
-0.7021636962890625,0.9122161865234376,-0.123443603515625
-0.7555999755859375,0.8448944091796875,-0.15740966796875
-0.8716278076171875,1.0723419189453125,-0.178985595703125
-0.6126556396484375,0.9654388427734376,-0.3401641845703125
-0.506103515625,0.714202880859375,-0.2340545654296875
-0.564208984375,0.6399688720703125,-0.086395263671875
-0.696746826171875,0.6397552490234375,-0.041107177734375
-0.6619873046875,0.6681060791015625,-0.0609130859375
-0.5573272705078125,0.65618896484375,-0.1276397705078125
-0.5645904541015625,0.6703338623046875,-0.1359710693359375
-0.5866851806640625,0.682037353515625,-0.1013946533203125
-0.6099853515625,0.6502838134765625,-0.0610809326171875
-0.6847381591796875,0.64202880859375,-0.10137939453125
-0.7362060546875,0.682708740234375,-0.0770263671875
-0.7547454833984375,0.7558135986328125,-0.06390380859375
-0.808258056640625,0.820159912109375,-0.074188232421875
-0.82403564453125,0.837738037109375,-0.0720977783203125
-0.7754364013671875,0.786376953125,-0.04486083984375
-0.7428436279296875,0.98760986328125,-0.0767364501953125
-0.663604736328125,0.91864013671875,-0.096588134765625
-0.6678009033203125,0.7698974609375,-0.0888214111328125
-0.6080322265625,0.837554931640625,-0.1240997314453125
-0.6587066650390625,0.865631103515625,-0.1584320068359375
-0.6812591552734375,0.805755615234375,-0.10980224609375
-0.6600799560546875,0.73516845703125,-0.073272705078125
-0.5841522216796875,0.6947021484375,-0.0572509765625
-0.5089263916015625,0.675994873046875,-0.0202484130859375
-0.4707794189453125,0.6819000244140625,-0.0469970703125
-0.4766845703125,0.665374755859375,-0.0831451416015625
-0.490692138671875,0.7166748046875,-0.095306396484375
-0.5668792724609375,0.813446044921875,-0.157928466796875
-0.599700927734375,0.8311004638671875,-0.212066650390625
-0.612823486328125,0.76080322265625,-0.2376556396484375
-0.707855224609375,0.916168212890625,-0.2137298583984375
-0.6380157470703125,1.06304931640625,-0.281524658203125
-0.5650787353515625,0.857147216796875,-0.3983917236328125
-0.6309051513671875,0.6458587646484375,-0.3826141357421875
-0.8105316162109375,0.6641998291015625,-0.3426971435546875
-0.7713165283203125,0.6627044677734375,-0.0829315185546875
-0.6258697509765625,0.62969970703125,0.0919647216796875
-0.5623321533203125,0.67303466796875,0.1078643798828125
-0.6551971435546875,0.72760009765625,-0.1202545166015625
-0.675018310546875,0.6901092529296875,-0.199981689453125
-0.68731689453125,0.662017822265625,-0.0300750732421875
-0.6921539306640625,0.674285888671875,0.066070556640625
-0.7431640625,0.738067626953125,-0.059600830078125
-0.7935028076171875,0.7858428955078125,-0.1435699462890625
-0.766326904296875,0.751129150390625,-0.14373779296875
-0.794219970703125,0.842193603515625,-0.1263275146484375
-0.8461151123046875,0.8945770263671875,-0.1484527587890625
-0.8737945556640625,0.7080841064453125,-0.0525665283203125
-0.894561767578125,0.6875762939453125,-0.035858154296875
-0.7934722900390625,0.852996826171875,-0.181884765625
-0.6365509033203125,0.9144744873046876,-0.2552642822265625
-0.523895263671875,0.8383636474609375,-0.1777801513671875
-0.4371185302734375,0.7334747314453125,-0.1390533447265625
-0.4068603515625,0.704010009765625,-0.1496124267578125
-0.385894775390625,0.6761627197265625,-0.09747314453125
-0.4331817626953125,0.64794921875,-0.10223388671875
-0.4530792236328125,0.6604766845703125,-0.1017608642578125
-0.51434326171875,0.7529144287109375,-0.0898284912109375
-0.61846923828125,0.900238037109375,-0.0955047607421875
-0.7267303466796875,0.9029388427734376,-0.1058502197265625
-0.8656005859375,1.08935546875,-0.0753936767578125
-0.7626953125,0.9403228759765624,-0.175384521484375
-0.712432861328125,0.69342041015625,-0.2980194091796875
-0.8126678466796875,0.5936737060546875,-0.125335693359375
-0.7669677734375,0.6407928466796875,0.02935791015625
-0.6789398193359375,0.679901123046875,-0.0088043212890625
-0.607421875,0.64190673828125,-0.129638671875
-0.5316314697265625,0.6406097412109375,-0.141143798828125
-0.5229034423828125,0.618499755859375,-0.140380859375
-0.624725341796875,0.590606689453125,-0.048980712890625
-0.7733001708984375,0.62274169921875,-0.0291290283203125
-0.8456878662109375,0.6669921875,-0.0107574462890625
-0.9195098876953124,0.7003631591796875,-0.0157012939453125
-0.8891448974609375,0.7238006591796875,-0.0862274169921875
-0.786895751953125,0.727294921875,-0.15032958984375
-0.7954559326171875,0.9436798095703124,-0.1370391845703125
-0.7104034423828125,0.9799652099609376,-0.2163848876953125
-0.6534271240234375,0.77825927734375,-0.203277587890625
-0.668548583984375,0.6933441162109375,-0.1640625
-0.58245849609375,0.807281494140625,-0.1874542236328125
-0.460784912109375,0.7399749755859375,-0.212860107421875
-0.51019287109375,0.616607666015625,-0.1578521728515625
-0.5577545166015625,0.616119384765625,-0.12249755859375
-0.55517578125,0.6415557861328125,-0.099151611328125
-0.5597076416015625,0.6258544921875,-0.058258056640625
-0.57098388671875,0.6766510009765625,-0.0402679443359375
-0.60772705078125,0.7555084228515625,-0.0659637451171875
-0.654052734375,0.778472900390625,-0.0628814697265625
-0.693328857421875,0.8152923583984375,-0.05096435546875
-0.7232513427734375,0.8458099365234375,-0.0729827880859375
-0.815704345703125,1.0282440185546875,-0.0777130126953125
-0.7889862060546875,0.91265869140625,-0.2113494873046875
-0.7696380615234375,0.6206817626953125,-0.1459197998046875
-0.8175811767578125,0.4968414306640625,0.046966552734375
-0.813201904296875,0.61199951171875,0.070404052734375
-0.8122406005859375,0.75457763671875,-0.1043243408203125
-0.70233154296875,0.7174072265625,-0.20941162109375
-0.6909332275390625,0.671112060546875,-0.22576904296875
-0.6334228515625,0.6695709228515625,-0.1340179443359375
-0.5961761474609375,0.658050537109375,-0.1422882080078125
-0.578460693359375,0.6527099609375,-0.1276397705078125
-0.6236724853515625,0.6972503662109375,-0.1166229248046875
-0.6765594482421875,0.722930908203125,-0.11077880859375
-0.6875762939453125,0.766448974609375,-0.107452392578125
-0.6949310302734375,0.7859344482421875,-0.18060302734375
-0.7353668212890625,0.8498992919921875,-0.1916351318359375
-0.7321319580078125,0.901519775390625,-0.2242431640625
-0.7027130126953125,0.925262451171875,-0.2536468505859375
-0.64056396484375,0.7798919677734375,-0.174530029296875
-0.6177215576171875,0.7330780029296875,-0.1124420166015625
-0.6459808349609375,0.8347320556640625,-0.13177490234375
-0.5572509765625,0.808319091796875,-0.139495849609375
-0.51361083984375,0.672515869140625,-0.1855010986328125
-0.5308990478515625,0.70001220703125,-0.202392578125
-0.5162353515625,0.7859039306640625,-0.1912841796875
-0.5452728271484375,0.8086090087890625,-0.1639251708984375
-0.5493927001953125,0.7641143798828125,-0.11932373046875
-0.54278564453125,0.755279541015625,-0.1119842529296875
-0.5439453125,0.7629852294921875,-0.0687713623046875
-0.5638580322265625,0.819091796875,0.0063934326171875
-0.538482666015625,0.951507568359375,0.0434112548828125
-0.545196533203125,0.9459075927734376,-0.0814666748046875
-0.5974578857421875,0.8445587158203125,-0.1486968994140625
-0.575042724609375,0.7042236328125,0.0031585693359375
-0.6226959228515625,0.70916748046875,0.1049041748046875
-0.6982574462890625,0.8378448486328125,0.068634033203125
-0.70904541015625,0.8281402587890625,-0.0254364013671875
-0.692535400390625,0.71563720703125,-0.0956878662109375
-0.7099761962890625,0.67218017578125,-0.1428070068359375
-0.7211761474609375,0.6673126220703125,-0.0780029296875
-0.713531494140625,0.65863037109375,-0.001678466796875
-0.6854248046875,0.63818359375,-0.0456085205078125
-0.6492156982421875,0.595947265625,-0.1100311279296875
-0.6170501708984375,0.5981597900390625,-0.0541229248046875
-0.5393218994140625,0.632537841796875,-0.0178375244140625
-0.531890869140625,0.6514892578125,-0.054534912109375
-0.54937744140625,0.581787109375,-0.0798492431640625
-0.4710540771484375,0.4959259033203125,-0.0156707763671875
-0.35308837890625,0.50384521484375,-0.0313568115234375
-0.3501739501953125,0.4632415771484375,0.0534820556640625
-0.720916748046875,0.903533935546875,0.00494384765625
-0.961395263671875,1.458770751953125,-0.271728515625
-0.9691619873046876,1.425506591796875,-0.2502899169921875
-0.9840545654296876,1.616546630859375,-0.3146820068359375
-0.5504150390625,1.17791748046875,-0.38067626953125
-0.3157806396484375,0.8436737060546875,-0.2060394287109375
-0.252532958984375,0.6405181884765625,0.012298583984375
-0.2680206298828125,0.5086517333984375,0.1368408203125
-0.409698486328125,0.4329833984375,0.11431884765625
-0.4590911865234375,0.3391571044921875,0.1959381103515625
-0.4713592529296875,0.3449249267578125,0.20294189453125
-0.516998291015625,0.444305419921875,0.0452117919921875
-0.560302734375,0.418914794921875,-0.0463714599609375
-0.68817138671875,0.5148468017578125,-0.0637054443359375
-1.09820556640625,1.3429718017578125,-0.1748504638671875
-1.39935302734375,1.97100830078125,-0.430084228515625
-1.4097900390625,1.304412841796875,-0.0673370361328125
-1.126800537109375,0.97088623046875,0.063140869140625
-0.7004852294921875,0.7389678955078125,0.2600250244140625
-0.4627227783203125,0.511077880859375,0.313629150390625
-0.3282623291015625,0.37982177734375,0.1635894775390625
-0.3281402587890625,0.3007049560546875,0.09722900390625
-0.352813720703125,0.249298095703125,0.0724945068359375
-0.2522735595703125,0.2978668212890625,0.0289154052734375
-0.1899261474609375,0.3561553955078125,-0.0381927490234375
-0.3560028076171875,0.692169189453125,-0.0532684326171875
-0.571197509765625,1.5257568359375,-0.0822601318359375
-0.7922210693359375,2.1038970947265625,-0.34405517578125
-0.8204498291015625,1.6905670166015625,-0.6358184814453125
-0.9615020751953124,1.17681884765625,-0.2959442138671875
-0.7636566162109375,0.8525543212890625,-0.047119140625
-0.59332275390625,0.5728912353515625,0.1080474853515625
-0.4705810546875,0.412109375,0.1870574951171875
-0.4370574951171875,0.34765625,0.1869964599609375
-0.406768798828125,0.2511138916015625,0.340087890625
-0.4296112060546875,0.2168426513671875,0.22979736328125
-0.3952789306640625,0.31072998046875,0.111541748046875
-0.60284423828125,0.5792236328125,-0.0012054443359375
-1.260345458984375,1.531005859375,0.0433197021484375
-1.669097900390625,2.2046051025390625,0.3252105712890625
-1.52105712890625,1.9210968017578125,-0.40179443359375
-1.2222137451171875,0.8665008544921875,-0.40899658203125
-0.7141571044921875,1.0167388916015625,0.139404296875
-0.1107330322265625,0.8244476318359375,0.3731231689453125
-0.089874267578125,0.47357177734375,0.337371826171875
-0.2183837890625,0.313751220703125,0.1728057861328125
-0.1350555419921875,0.2449798583984375,0.0988006591796875
-0.00714111328125,0.32257080078125,-0.116180419921875
0.0019989013671875,0.3411712646484375,-0.28533935546875
-0.239532470703125,0.7435302734375,-0.152496337890625
-0.3962860107421875,1.454010009765625,-0.022613525390625
-0.7129669189453125,1.9446258544921875,0.04583740234375
-1.1736907958984375,2.1692047119140625,-0.1966400146484375
-1.0502471923828125,1.4418182373046875,-0.2197265625
-0.8770904541015625,0.794189453125,-0.1816558837890625
-0.6062469482421875,0.554779052734375,-0.0150146484375
-0.376251220703125,0.4608612060546875,0.158355712890625
-0.3302459716796875,0.433746337890625,0.148712158203125
-0.3599395751953125,0.3833160400390625,0.2261962890625
-0.5234222412109375,0.3428802490234375,0.2672271728515625
-0.6778717041015625,0.3853759765625,0.1674041748046875
-0.994384765625,0.796295166015625,-0.0306243896484375
-1.4264068603515625,1.7952117919921875,-0.2533721923828125
-1.4408111572265625,1.736328125,-0.14544677734375
-1.467010498046875,1.526031494140625,-0.452484130859375
-1.1227264404296875,1.36993408203125,-0.0411529541015625
-0.5898590087890625,1.1817474365234375,0.3427886962890625
-0.2745208740234375,0.9161376953125,0.285430908203125
-0.024993896484375,0.697418212890625,0.1956787109375
0.1875,0.5427703857421875,0.10552978515625
0.16363525390625,0.54803466796875,0.035400390625
-0.00830078125,0.58099365234375,-0.0469818115234375
-0.02093505859375,0.635528564453125,-0.1217041015625
-0.0760498046875,0.8360443115234375,-0.153472900390625
-0.2483367919921875,1.1222686767578125,-0.2202606201171875
-0.59649658203125,1.8179473876953125,-0.108795166015625
-0.60845947265625,2.158843994140625,-0.117095947265625
-0.9840545654296876,1.71112060546875,-0.1435394287109375
-0.9449615478515624,1.31378173828125,-0.079864501953125
-0.69793701171875,0.9896697998046876,-0.1675567626953125
-0.7030029296875,0.648040771484375,0.0126190185546875
-0.743743896484375,0.476470947265625,0.0237274169921875
-0.6891326904296875,0.403411865234375,0.038848876953125
-0.61334228515625,0.355926513671875,0.0157928466796875
-0.6045074462890625,0.5206146240234375,-0.454345703125
-0.5198822021484375,0.46661376953125,-0.4832916259765625
-0.9186553955078124,0.714111328125,-0.229400634765625
-1.0998077392578125,1.3525238037109375,-0.0411376953125
-0.8642730712890625,1.5410003662109375,-0.1999969482421875
-0.916046142578125,1.2897796630859375,-0.32379150390625
-0.9079742431640624,0.748138427734375,-0.0140228271484375
-0.9194183349609376,0.787322998046875,0.1660919189453125
-0.5939483642578125,0.5937042236328125,-0.0062408447265625
-0.5926666259765625,0.4416046142578125,-0.4720458984375
-0.38909912109375,0.45172119140625,-0.5465240478515625
-0.3119049072265625,0.436309814453125,-0.4826507568359375
-0.3917388916015625,0.459014892578125,-0.483184814453125
-0.2750091552734375,0.53277587890625,-0.5556793212890625
-0.29791259765625,0.2223663330078125,-0.8123931884765625
-0.600921630859375,0.377899169921875,-0.7890472412109375
-0.94329833984375,0.47869873046875,-1.6097564697265625
-0.757049560546875,0.452056884765625,-1.3370208740234375
-0.476348876953125,0.1779632568359375,-1.0926666259765625
-0.6909942626953125,0.0133209228515625,-1.020904541015625
-0.3906097412109375,-0.085845947265625,-1.441009521484375
-0.222412109375,-0.146820068359375,-1.3367767333984375
-0.040985107421875,-0.254119873046875,-1.4329986572265625
0.053436279296875,-0.199249267578125,-1.311614990234375
0.02947998046875,-0.343902587890625,-0.8417510986328125
0.2418212890625,-0.422637939453125,-0.9302978515625
0.09027099609375,-0.3877716064453125,-1.14501953125
-0.081573486328125,-0.4180908203125,-0.8974761962890625
0.0582427978515625,-0.4599761962890625,-0.799835205078125
