AccelerationX,AccelerationY,AccelerationZ
0.0498199462890625,-0.169830322265625,-1.05084228515625
0.0594329833984375,-0.1576080322265625,-1.014434814453125
0.0399932861328125,-0.1378936767578125,-1.066558837890625
0.0955352783203125,-0.177947998046875,-0.8502197265625
0.2449493408203125,-0.209075927734375,-1.0002593994140625
0.2779388427734375,-0.220733642578125,-0.917022705078125
0.303466796875,-0.2982025146484375,-0.8740386962890625
0.33941650390625,-0.3405914306640625,-0.796600341796875
0.4020233154296875,-0.156585693359375,-0.9293365478515624
0.40118408203125,-0.231719970703125,-0.8154449462890625
0.419677734375,-0.2510986328125,-0.9244537353515624
0.4105987548828125,-0.2335205078125,-0.895965576171875
0.3578948974609375,-0.2300872802734375,-0.80029296875
0.4138336181640625,-0.2210845947265625,-0.766845703125
0.4513092041015625,-0.2379150390625,-0.7164306640625
0.4715118408203125,-0.184600830078125,-0.8948516845703125
0.33404541015625,-0.1869964599609375,-0.8421173095703125
0.3284759521484375,-0.1591644287109375,-0.903472900390625
0.27435302734375,-0.149749755859375,-0.903076171875
0.2128143310546875,-0.092193603515625,-0.8880615234375
0.1955108642578125,-0.0406646728515625,-0.8928070068359375
0.2129974365234375,0.0275421142578125,-0.92486572265625
0.231536865234375,0.12689208984375,-0.98443603515625
0.1346435546875,0.144317626953125,-0.91326904296875
0.1291961669921875,0.167144775390625,-1.019775390625
0.0387115478515625,0.224395751953125,-1.103790283203125
0.0626068115234375,0.243560791015625,-1.034942626953125
0.1723480224609375,0.172515869140625,-0.944305419921875
0.194580078125,0.1435089111328125,-1.09442138671875
0.249420166015625,0.2261199951171875,-1.2427215576171875
0.2427520751953125,0.2144927978515625,-1.3585968017578125
0.2556304931640625,0.1232757568359375,-1.2542724609375
0.2865753173828125,0.0754241943359375,-0.996246337890625
0.261322021484375,0.04150390625,-0.9395294189453124
0.2639312744140625,0.09625244140625,-0.9196319580078124
0.133544921875,0.1217041015625,-1.053070068359375
0.1646270751953125,0.118133544921875,-0.9753875732421876
0.1637725830078125,0.1669158935546875,-0.988983154296875
0.1653594970703125,0.1161956787109375,-1.0388031005859375
0.2122039794921875,0.151763916015625,-0.9927215576171876
0.2055816650390625,0.1843109130859375,-0.9825897216796876
0.1655731201171875,0.1703948974609375,-1.0613250732421875
0.124267578125,0.1456146240234375,-1.11322021484375
0.172821044921875,0.2000732421875,-1.0083770751953125
0.168060302734375,0.2053070068359375,-0.96685791015625
0.153717041015625,0.2509307861328125,-1.0404510498046875
0.2010040283203125,0.3128662109375,-1.0673828125
0.2027435302734375,0.208251953125,-1.0426025390625
0.199554443359375,0.107177734375,-1.0375823974609375
0.3302459716796875,0.0480804443359375,-1.12127685546875
0.36895751953125,0.0766754150390625,-0.91900634765625
0.28509521484375,0.0527191162109375,-0.94329833984375
0.243072509765625,0.07073974609375,-0.8983154296875
0.2087860107421875,0.1446533203125,-0.9824066162109376
0.1518402099609375,0.293182373046875,-1.0624237060546875
0.1526947021484375,0.2757415771484375,-0.9557342529296876
0.0723724365234375,0.2210693359375,-0.8389739990234375
0.0420379638671875,0.201263427734375,-0.8045806884765625
0.0885772705078125,0.1609344482421875,-0.822509765625
0.1163177490234375,0.2043304443359375,-0.8712158203125
0.1513519287109375,0.2237091064453125,-0.9428253173828124
0.214630126953125,0.213775634765625,-0.9651947021484376
0.2420654296875,0.1874237060546875,-0.9114227294921876
0.2678985595703125,0.1884765625,-0.92193603515625
0.2834930419921875,0.1543121337890625,-0.9646453857421876
0.3010711669921875,0.1520843505859375,-0.982330322265625
0.351806640625,0.1509552001953125,-1.008880615234375
0.3876190185546875,0.1181793212890625,-0.9706268310546876
0.3556976318359375,0.1085357666015625,-1.0413055419921875
0.369720458984375,0.0460205078125,-1.121795654296875
0.470062255859375,0.0521392822265625,-1.2257843017578125
0.4215545654296875,0.0570831298828125,-1.1172332763671875
0.4432373046875,0.026123046875,-1.069976806640625
0.46026611328125,0.1160125732421875,-1.058868408203125
0.416748046875,0.1084442138671875,-0.8757171630859375
0.3927764892578125,0.06927490234375,-0.803985595703125
0.481658935546875,0.1823883056640625,-0.9249267578125
0.59625244140625,0.3073577880859375,-1.0343170166015625
0.583465576171875,0.322113037109375,-0.983184814453125
0.544525146484375,0.3313751220703125,-0.851959228515625
0.4540557861328125,0.1819305419921875,-0.9522705078125
0.42779541015625,0.29229736328125,-0.9255523681640624
0.450347900390625,0.25494384765625,-0.817047119140625
0.4188385009765625,0.272003173828125,-0.84820556640625
0.34600830078125,0.2518157958984375,-0.896270751953125
0.323883056640625,0.199951171875,-0.8930511474609375
0.311187744140625,0.165130615234375,-0.85650634765625
0.295074462890625,0.181884765625,-0.8294219970703125
0.280364990234375,0.179168701171875,-0.78375244140625
0.2715606689453125,0.15985107421875,-0.766204833984375
0.24908447265625,0.2215118408203125,-0.8628082275390625
0.263397216796875,0.1739959716796875,-0.8915863037109375
0.3017425537109375,0.17236328125,-0.926544189453125
0.346954345703125,0.2224273681640625,-1.1054229736328125
0.4229583740234375,0.359344482421875,-1.3507232666015625
0.47210693359375,0.225921630859375,-1.145233154296875
0.4285736083984375,0.1531524658203125,-1.0592193603515625
0.31451416015625,0.0888824462890625,-0.939239501953125
0.2971954345703125,-0.048065185546875,-0.7681884765625
0.29412841796875,0.0102691650390625,-0.8512420654296875
0.3427734375,0.23809814453125,-1.0392913818359375
0.4201507568359375,0.32330322265625,-1.0036468505859375
0.3905792236328125,0.27130126953125,-0.878387451171875
0.308013916015625,0.207122802734375,-0.8362274169921875
0.2537994384765625,0.1918487548828125,-0.8295440673828125
0.2249298095703125,0.256256103515625,-0.8795928955078125
0.2286834716796875,0.2945404052734375,-0.8912506103515625
0.25006103515625,0.25628662109375,-0.909912109375
0.22918701171875,0.2161712646484375,-0.921844482421875
0.21990966796875,0.1984710693359375,-0.906829833984375
0.217193603515625,0.1864471435546875,-0.883209228515625
0.216461181640625,0.177642822265625,-0.8942718505859375
0.222808837890625,0.177581787109375,-0.9228668212890624
0.2458343505859375,0.167999267578125,-0.9466552734375
0.2508697509765625,0.15386962890625,-0.955291748046875
0.2628936767578125,0.1273956298828125,-1.011016845703125
0.3278961181640625,0.23455810546875,-1.23089599609375
0.3492584228515625,0.1750335693359375,-1.09674072265625
0.364044189453125,0.0801544189453125,-0.9970550537109376
0.3087310791015625,0.052215576171875,-0.9033966064453124
0.29193115234375,0.0096282958984375,-0.8252105712890625
0.32269287109375,0.2184906005859375,-1.13232421875
0.36712646484375,0.32061767578125,-1.18597412109375
0.42431640625,0.151031494140625,-0.9775848388671876
0.3836822509765625,0.1916656494140625,-0.9146881103515624
0.3508148193359375,0.2240753173828125,-0.9270782470703124
0.3362274169921875,0.21624755859375,-0.929046630859375
0.304656982421875,0.2064971923828125,-0.915740966796875
0.256134033203125,0.1854705810546875,-0.8905181884765625
0.224609375,0.1934967041015625,-0.8955841064453125
0.2183074951171875,0.1950531005859375,-0.879852294921875
0.2146759033203125,0.2025604248046875,-0.8911285400390625
0.212677001953125,0.2108917236328125,-0.9004974365234375
0.1964874267578125,0.1984405517578125,-0.8641357421875
0.1870880126953125,0.1696319580078125,-0.8570098876953125
0.1983642578125,0.1467437744140625,-0.914581298828125
0.2341156005859375,0.1309814453125,-1.010772705078125
0.3780364990234375,0.3066864013671875,-1.3406524658203125
0.4151763916015625,0.321075439453125,-1.0561065673828125
0.4550933837890625,0.14178466796875,-0.8787841796875
0.3253173828125,0.244781494140625,-1.076171875
0.3159027099609375,0.061798095703125,-0.9235076904296876
0.2830963134765625,-0.002716064453125,-0.77801513671875
0.2202606201171875,0.161834716796875,-0.906890869140625
0.2768707275390625,0.2579498291015625,-1.0535888671875
0.298004150390625,0.2933197021484375,-1.0020904541015625
0.2852630615234375,0.1705780029296875,-0.863739013671875
0.2291259765625,0.1126556396484375,-0.8622589111328125
0.2021942138671875,0.1284332275390625,-0.9236602783203124
0.2260589599609375,0.1406707763671875,-0.9310455322265624
0.2910003662109375,0.161529541015625,-0.9478759765625
0.3038482666015625,0.09893798828125,-0.9739227294921876
0.2690887451171875,0.0322723388671875,-0.9895782470703124
0.260528564453125,-0.0108795166015625,-1.001190185546875
0.26031494140625,0.00079345703125,-0.9866790771484376
0.2405853271484375,0.0167694091796875,-0.9855194091796876
0.22747802734375,0.0307464599609375,-0.98077392578125
0.269866943359375,0.092803955078125,-1.05999755859375
0.374908447265625,0.136932373046875,-1.0788421630859375
0.4104156494140625,0.1143035888671875,-0.9873809814453124
0.4140472412109375,0.26470947265625,-1.125946044921875
0.405181884765625,0.351287841796875,-1.0343475341796875
0.3741607666015625,0.2143402099609375,-0.808746337890625
0.35357666015625,0.220733642578125,-0.919677734375
0.390625,0.231231689453125,-0.9303741455078124
0.418975830078125,0.24615478515625,-0.875244140625
0.4396514892578125,0.2193603515625,-0.7827301025390625
0.450958251953125,0.223052978515625,-0.79718017578125
0.457550048828125,0.254852294921875,-0.8672027587890625
0.47467041015625,0.2591094970703125,-0.9275360107421876
0.5493316650390625,0.20989990234375,-0.867431640625
0.5579833984375,0.219512939453125,-0.8498077392578125
0.538848876953125,0.2071990966796875,-0.8536376953125
0.5242919921875,0.2508087158203125,-0.915863037109375
0.4972686767578125,0.2396392822265625,-0.894805908203125
0.4661407470703125,0.2132415771484375,-0.8829345703125
0.4273529052734375,0.19805908203125,-0.8911590576171875
0.434906005859375,0.19940185546875,-0.872283935546875
0.449188232421875,0.227996826171875,-0.837799072265625
0.4748687744140625,0.2969512939453125,-0.954345703125
0.5197601318359375,0.361083984375,-0.996185302734375
0.528900146484375,0.2058563232421875,-0.8477325439453125
0.439605712890625,0.104949951171875,-0.842010498046875
0.3640289306640625,0.1431427001953125,-0.9868927001953124
0.3498382568359375,0.2783355712890625,-1.1200714111328125
0.376007080078125,0.3368072509765625,-1.0969085693359375
0.35003662109375,0.3328094482421875,-1.08843994140625
0.2919464111328125,0.275390625,-1.0754547119140625
0.2353057861328125,0.22296142578125,-0.9935302734375
0.216949462890625,0.22991943359375,-0.92230224609375
0.206146240234375,0.2848968505859375,-0.923614501953125
0.175018310546875,0.31866455078125,-0.8944091796875
0.16802978515625,0.28936767578125,-0.842926025390625
0.16571044921875,0.259033203125,-0.82183837890625
0.166473388671875,0.21527099609375,-0.84423828125
0.1663665771484375,0.1750030517578125,-0.8702239990234375
0.1605987548828125,0.15325927734375,-0.8994293212890625
0.1713409423828125,0.1511383056640625,-0.956298828125
0.2149200439453125,0.2149200439453125,-1.0586090087890625
0.24554443359375,0.272857666015625,-1.171417236328125
0.2635955810546875,0.2480926513671875,-1.1295166015625
0.2294921875,0.1418609619140625,-1.049652099609375
0.21142578125,0.0822906494140625,-0.965972900390625
0.2003173828125,0.0554351806640625,-0.9157867431640624
0.20361328125,0.1328125,-1.0213775634765625
0.2313385009765625,0.1881103515625,-1.112701416015625
0.2446441650390625,0.14166259765625,-1.0687713623046875
0.25921630859375,0.0695037841796875,-0.9896240234375
0.2663116455078125,0.057281494140625,-0.9544677734375
0.276153564453125,0.06890869140625,-0.964935302734375
0.2780914306640625,0.115936279296875,-0.9920501708984376
0.2806549072265625,0.1538543701171875,-0.9856109619140624
0.290740966796875,0.1756134033203125,-0.9643707275390624
0.2880401611328125,0.1944427490234375,-0.9446868896484376
0.286285400390625,0.214263916015625,-0.92095947265625
0.2630462646484375,0.233062744140625,-0.906951904296875
0.24127197265625,0.2354736328125,-0.880035400390625
0.2263641357421875,0.266143798828125,-0.913818359375
0.22052001953125,0.2818145751953125,-0.9299468994140624
0.2533721923828125,0.2624969482421875,-0.932281494140625
0.245819091796875,0.294525146484375,-0.9879150390625
0.24481201171875,0.2704315185546875,-1.006866455078125
0.34088134765625,0.4094390869140625,-1.2606658935546875
0.3685760498046875,0.429229736328125,-1.1775360107421875
0.3094635009765625,0.19879150390625,-0.8303680419921875
0.311981201171875,-0.037078857421875,-0.6686553955078125
0.3109130859375,0.0068359375,-0.9351348876953124
0.3251800537109375,0.17962646484375,-1.163970947265625
0.37078857421875,0.2646331787109375,-1.0672454833984375
0.32159423828125,0.2066497802734375,-0.852264404296875
0.21673583984375,0.1313934326171875,-0.8080902099609375
0.1567840576171875,0.117156982421875,-0.85992431640625
0.1663360595703125,0.1652679443359375,-0.8969573974609375
0.206573486328125,0.22113037109375,-0.9066009521484376
0.25653076171875,0.2279510498046875,-0.90582275390625
0.2734832763671875,0.205596923828125,-0.915740966796875
0.2890472412109375,0.1664581298828125,-0.8935546875
0.289215087890625,0.12835693359375,-0.8870086669921875
0.28912353515625,0.1223297119140625,-0.9172821044921876
0.31109619140625,0.146087646484375,-0.9615478515625
0.3191070556640625,0.138519287109375,-0.998931884765625
0.36199951171875,0.1033782958984375,-1.046722412109375
0.38128662109375,0.0969696044921875,-1.0530548095703125
0.427459716796875,0.103759765625,-1.1131591796875
0.4098663330078125,0.2332611083984375,-1.42767333984375
0.432220458984375,0.2083892822265625,-1.416259765625
0.3751678466796875,0.115936279296875,-1.0397186279296875
0.2688140869140625,0.0431060791015625,-0.80084228515625
0.2404327392578125,0.169158935546875,-0.9264678955078124
0.322845458984375,0.2813873291015625,-1.0406646728515625
0.397613525390625,0.28948974609375,-1.0888671875
0.3612213134765625,0.280792236328125,-1.1445770263671875
0.33416748046875,0.1911773681640625,-1.0659637451171875
0.3371734619140625,0.200653076171875,-0.9647979736328124
0.312042236328125,0.261474609375,-0.93035888671875
0.276214599609375,0.2781524658203125,-0.8894805908203125
0.2208709716796875,0.245025634765625,-0.8306884765625
0.1809234619140625,0.21697998046875,-0.7743377685546875
0.1556396484375,0.186492919921875,-0.750640869140625
0.168792724609375,0.187103271484375,-0.7469024658203125
0.1754302978515625,0.163238525390625,-0.7202911376953125
0.1387939453125,0.115997314453125,-0.7720184326171875
0.0758056640625,0.1302490234375,-0.8876495361328125
0.153961181640625,0.139251708984375,-1.002532958984375
0.2280120849609375,0.2084503173828125,-1.0847625732421875
0.3536376953125,0.2945404052734375,-1.340057373046875
0.463104248046875,0.3553314208984375,-1.4108123779296875
0.4598236083984375,0.245574951171875,-1.1505584716796875
0.3142242431640625,0.0531158447265625,-0.8878021240234375
0.286346435546875,-0.0774993896484375,-0.8536529541015625
0.447540283203125,-0.055816650390625,-1.00872802734375
0.63482666015625,0.128936767578125,-1.120269775390625
0.6149139404296875,0.230743408203125,-0.9866943359375
0.44921875,0.2063751220703125,-0.8085174560546875
0.3241119384765625,0.176361083984375,-0.7698211669921875
0.2645111083984375,0.1686248779296875,-0.7997894287109375
0.23541259765625,0.189666748046875,-0.8514556884765625
0.2742767333984375,0.1682281494140625,-0.882049560546875
0.322479248046875,0.150360107421875,-0.877197265625
0.308868408203125,0.12298583984375,-0.90008544921875
0.2763824462890625,0.0786895751953125,-0.92626953125
0.2490692138671875,0.0413360595703125,-0.9268341064453124
0.2438201904296875,0.0301361083984375,-0.9435272216796876
0.2785491943359375,0.0371551513671875,-0.993011474609375
0.357696533203125,0.0606536865234375,-1.0938720703125
0.4420013427734375,0.1321563720703125,-1.3015594482421875
0.4331207275390625,0.1576080322265625,-1.2506256103515625
0.4082183837890625,0.1232757568359375,-1.1335296630859375
0.35992431640625,0.197998046875,-1.1252899169921875
0.34515380859375,0.1517791748046875,-0.94024658203125
0.306396484375,0.16015625,-0.922515869140625
0.3294219970703125,0.30133056640625,-1.09625244140625
0.3561553955078125,0.3495025634765625,-1.0998687744140625
0.3130950927734375,0.2967987060546875,-0.973052978515625
0.282928466796875,0.2669677734375,-0.8977203369140625
0.274169921875,0.254058837890625,-0.8481597900390625
0.268829345703125,0.25042724609375,-0.827178955078125
0.2640228271484375,0.2633056640625,-0.8300933837890625
0.28277587890625,0.282257080078125,-0.84832763671875
0.2923583984375,0.2729339599609375,-0.845611572265625
0.3140411376953125,0.2549285888671875,-0.848419189453125
0.4004058837890625,0.297393798828125,-0.9029998779296876
0.503692626953125,0.2759246826171875,-0.925140380859375
0.581878662109375,0.2174072265625,-0.917938232421875
0.5876007080078125,0.22564697265625,-0.9015350341796876
0.6757049560546875,0.2376556396484375,-0.85736083984375
0.759979248046875,0.2954559326171875,-0.8337249755859375
0.87030029296875,0.297454833984375,-0.8050079345703125
0.9271392822265624,0.256072998046875,-0.8400421142578125
0.8898162841796875,0.2724456787109375,-0.9472198486328124
0.7820587158203125,0.27471923828125,-0.82073974609375
0.67083740234375,0.2001953125,-0.6642913818359375
0.533111572265625,0.1532135009765625,-0.716461181640625
0.451629638671875,0.20660400390625,-0.859832763671875
0.4476318359375,0.2446746826171875,-0.9040374755859376
0.481170654296875,0.23101806640625,-0.84686279296875
0.4723663330078125,0.197418212890625,-0.815521240234375
0.4555206298828125,0.165191650390625,-0.8507080078125
0.46820068359375,0.122314453125,-0.8729400634765625
0.4709625244140625,0.1648406982421875,-0.9582977294921876
0.498016357421875,0.203704833984375,-0.9734344482421876
0.519287109375,0.183074951171875,-0.930450439453125
0.537811279296875,0.1281585693359375,-0.907196044921875
0.5484161376953125,0.090179443359375,-0.93377685546875
0.549407958984375,0.04644775390625,-0.9222564697265624
0.52056884765625,-0.0089874267578125,-0.9143524169921876
0.457855224609375,-0.018890380859375,-0.94683837890625
0.404388427734375,-0.035430908203125,-0.993621826171875
0.3765869140625,0.019287109375,-1.1468353271484375
0.334564208984375,0.0251007080078125,-1.1088409423828125
0.2976226806640625,0.0359649658203125,-1.0684661865234375
0.2864990234375,0.1183013916015625,-1.084716796875
0.277191162109375,0.1886138916015625,-1.050018310546875
0.26483154296875,0.1144866943359375,-0.9327545166015624
0.2599945068359375,0.1104736328125,-0.9423980712890624
0.3220672607421875,0.1697540283203125,-1.0499114990234375
0.3748321533203125,0.1978759765625,-1.04248046875
0.388092041015625,0.1937103271484375,-0.9669189453125
0.370849609375,0.16558837890625,-0.933624267578125
0.3624114990234375,0.1529388427734375,-0.953277587890625
0.36798095703125,0.169464111328125,-0.9502105712890624
0.37017822265625,0.1895751953125,-0.929229736328125
0.354705810546875,0.184600830078125,-0.913177490234375
0.33917236328125,0.1786956787109375,-0.918365478515625
0.31304931640625,0.1625213623046875,-0.8701019287109375
0.29730224609375,0.1540679931640625,-0.8295440673828125
0.2744140625,0.1658477783203125,-0.8289031982421875
0.2570037841796875,0.1873016357421875,-0.884063720703125
0.26007080078125,0.1679840087890625,-0.9558868408203124
0.2931060791015625,0.1839599609375,-1.138458251953125
0.4014129638671875,0.283843994140625,-1.3775482177734375
0.3544769287109375,0.169647216796875,-1.1353759765625
0.3422698974609375,0.0927734375,-0.824615478515625
0.2702789306640625,-0.0009918212890625,-0.7454833984375
0.2212066650390625,-0.0703582763671875,-0.787200927734375
0.2302093505859375,0.02862548828125,-1.0328521728515625
0.2996826171875,0.2080230712890625,-1.1260223388671875
0.32061767578125,0.18719482421875,-1.011962890625
0.2856903076171875,0.0610504150390625,-0.905426025390625
0.2176055908203125,0.014404296875,-0.9125823974609376
0.1793212890625,0.0339813232421875,-0.957183837890625
0.20733642578125,0.068267822265625,-0.9398193359375
0.253265380859375,0.0906219482421875,-0.9422607421875
0.2631072998046875,0.06951904296875,-0.95306396484375
0.2693634033203125,0.0539093017578125,-0.9469451904296876
0.2994537353515625,0.06390380859375,-0.9423828125
0.3123016357421875,0.070953369140625,-0.8950347900390625
0.3000640869140625,0.104736328125,-0.93048095703125
0.3017578125,0.1114654541015625,-0.942138671875
0.2990875244140625,0.0952911376953125,-1.005584716796875
0.36077880859375,0.2071533203125,-1.2234344482421875
0.385284423828125,0.1811065673828125,-1.1094818115234375
0.3745574951171875,0.1068878173828125,-0.9698944091796876
0.3275299072265625,0.1285552978515625,-0.9962158203125
0.39837646484375,0.188262939453125,-0.8819580078125
0.345550537109375,0.2715301513671875,-0.8092498779296875
0.4321441650390625,0.2747039794921875,-1.0301513671875
0.406524658203125,0.25677490234375,-1.2323760986328125
0.406768798828125,0.22442626953125,-1.1441497802734375
0.3410491943359375,0.1568450927734375,-0.9585418701171876
0.2418060302734375,0.209014892578125,-0.9365997314453124
0.23870849609375,0.251129150390625,-0.9125823974609376
0.2261962890625,0.2772979736328125,-0.8997344970703125
0.1882476806640625,0.254486083984375,-0.8807830810546875
0.1408538818359375,0.24176025390625,-0.84832763671875
0.1533966064453125,0.195220947265625,-0.7915496826171875
0.159393310546875,0.1401214599609375,-0.78857421875
0.13677978515625,0.10992431640625,-0.8675537109375
0.134796142578125,0.0960540771484375,-0.8977508544921875
0.1546478271484375,0.0958709716796875,-0.9710235595703124
0.1999664306640625,0.0784759521484375,-1.01422119140625
0.2148590087890625,0.0780792236328125,-1.0629425048828125
0.2531890869140625,0.108306884765625,-1.14111328125
0.36724853515625,0.2666168212890625,-1.368499755859375
0.408660888671875,0.2634124755859375,-1.2590179443359375
0.3763885498046875,0.08721923828125,-1.01800537109375
0.265350341796875,0.012603759765625,-0.9677886962890624
0.2536468505859375,-0.0989837646484375,-0.832550048828125
0.2596893310546875,-0.034942626953125,-0.8388214111328125
0.2702789306640625,0.1439971923828125,-0.9785308837890624
0.2787628173828125,0.2227020263671875,-1.0471954345703125
0.2762603759765625,0.128082275390625,-0.969482421875
0.2326812744140625,0.04913330078125,-0.932342529296875
0.207611083984375,0.06268310546875,-0.953399658203125
0.220611572265625,0.0948028564453125,-0.9682769775390624
0.2574615478515625,0.1219329833984375,-0.9738616943359376
0.261871337890625,0.1318359375,-0.99176025390625
0.2702484130859375,0.12432861328125,-0.9965362548828124
0.2996368408203125,0.1109161376953125,-0.974365234375
0.2956390380859375,0.130218505859375,-0.9159393310546876
0.2586669921875,0.1448516845703125,-0.9062042236328124
0.213226318359375,0.183349609375,-0.956329345703125
0.24456787109375,0.1886444091796875,-0.94677734375
0.2440948486328125,0.1590423583984375,-0.9171295166015624
0.269073486328125,0.2018890380859375,-1.0496368408203125
0.2763519287109375,0.3016204833984375,-1.18096923828125
0.24505615234375,0.2429046630859375,-1.000274658203125
0.1564178466796875,0.2706756591796875,-0.916290283203125
0.1399688720703125,0.2881011962890625,-0.854339599609375
0.1744232177734375,0.2073211669921875,-0.8313446044921875
0.1485443115234375,0.2283477783203125,-1.0694122314453125
0.2093048095703125,0.2855682373046875,-1.1959686279296875
0.2639312744140625,0.27630615234375,-1.062957763671875
0.2601318359375,0.225341796875,-0.928466796875
0.19049072265625,0.192169189453125,-0.9499053955078124
0.15576171875,0.177642822265625,-0.968231201171875
0.1647796630859375,0.1975555419921875,-0.9326324462890624
0.1816253662109375,0.207977294921875,-0.9039306640625
0.1705322265625,0.2092132568359375,-0.8824920654296875
0.1595458984375,0.2009735107421875,-0.9030609130859376
0.167327880859375,0.1991119384765625,-0.907379150390625
0.162811279296875,0.1896514892578125,-0.902740478515625
0.1954498291015625,0.1639556884765625,-0.92919921875
0.2339935302734375,0.14520263671875,-0.953704833984375
0.2801513671875,0.1405029296875,-0.9858551025390624
0.3134307861328125,0.1214752197265625,-1.0227203369140625
0.28851318359375,0.0879058837890625,-1.1133270263671875
0.2808990478515625,0.0745391845703125,-1.0712127685546875
0.384368896484375,0.1330718994140625,-1.19189453125
0.3890228271484375,0.260955810546875,-1.2465667724609375
0.3041229248046875,0.1364288330078125,-0.8923797607421875
0.2293701171875,0.1479949951171875,-0.8724517822265625
0.195892333984375,0.20318603515625,-0.958343505859375
0.241485595703125,0.1144256591796875,-0.8608856201171875
0.214752197265625,0.1136322021484375,-0.806854248046875
0.2000885009765625,0.221038818359375,-0.917236328125
0.1845245361328125,0.3707733154296875,-1.03802490234375
0.20489501953125,0.4138031005859375,-1.0139617919921875
0.22589111328125,0.3178253173828125,-0.8538055419921875
0.1811370849609375,0.277099609375,-0.8458099365234375
0.1567535400390625,0.242706298828125,-0.91162109375
0.18536376953125,0.2768096923828125,-0.9558258056640624
0.209442138671875,0.2844696044921875,-0.92938232421875
0.202545166015625,0.2643280029296875,-0.9396514892578124
0.212860107421875,0.246826171875,-0.94854736328125
0.2414093017578125,0.20654296875,-0.94842529296875
0.2457275390625,0.197296142578125,-0.9473724365234376
0.2630157470703125,0.2021636962890625,-0.92401123046875
0.2725830078125,0.1961669921875,-0.919189453125
0.27532958984375,0.1654510498046875,-0.9466400146484376
0.3287811279296875,0.1582183837890625,-0.963287353515625
0.3564300537109375,0.1925506591796875,-0.9676361083984376
0.334228515625,0.2101593017578125,-0.9741668701171876
0.3009490966796875,0.209320068359375,-1.080718994140625
0.1727294921875,0.2439727783203125,-1.051727294921875
0.1151885986328125,0.2847747802734375,-1.02923583984375
0.244140625,0.274322509765625,-0.9982147216796876
0.3101959228515625,0.2096710205078125,-0.9852752685546876
0.2654876708984375,0.1468353271484375,-1.0227813720703125
0.2221832275390625,0.14117431640625,-0.96954345703125
0.248870849609375,0.14788818359375,-0.9312591552734376
0.255523681640625,0.25128173828125,-1.0555877685546875
0.2481231689453125,0.311309814453125,-1.1530914306640625
0.2649993896484375,0.2896728515625,-1.087646484375
0.2219696044921875,0.2472381591796875,-0.990142822265625
0.18768310546875,0.245147705078125,-0.9551239013671876
0.1780548095703125,0.291351318359375,-0.989044189453125
0.1944122314453125,0.317901611328125,-0.9723968505859376
0.1822357177734375,0.2931060791015625,-0.932861328125
0.16436767578125,0.283599853515625,-0.9075927734375
0.181884765625,0.28106689453125,-0.9147491455078124
0.2216796875,0.272247314453125,-0.899810791015625
0.2568206787109375,0.2551422119140625,-0.87994384765625
0.2921905517578125,0.243988037109375,-0.9046478271484376
0.33502197265625,0.2486114501953125,-0.9430389404296876
0.40740966796875,0.2486419677734375,-0.9772491455078124
0.4542236328125,0.2521209716796875,-1.017059326171875
0.4974822998046875,0.2285919189453125,-1.0180816650390625
0.5204620361328125,0.188751220703125,-0.943389892578125
0.5210723876953125,0.12750244140625,-0.8908233642578125
0.4976348876953125,0.1033782958984375,-0.96173095703125
0.4850616455078125,0.1072845458984375,-1.043731689453125
0.4758758544921875,0.09735107421875,-0.98468017578125
0.43194580078125,0.0707244873046875,-0.936370849609375
0.400146484375,0.0515289306640625,-0.918792724609375
0.4073028564453125,0.0534210205078125,-0.9525299072265624
0.415191650390625,0.0666656494140625,-0.975921630859375
0.4195404052734375,0.044708251953125,-0.951568603515625
0.4068145751953125,0.017669677734375,-0.9528656005859376
0.36328125,-0.0029144287109375,-0.9865570068359376
0.3289337158203125,-0.0057220458984375,-0.9790191650390624
0.31585693359375,0.0214691162109375,-0.9811248779296876
0.2941131591796875,0.0293426513671875,-1.02880859375
0.2694244384765625,0.0071563720703125,-1.02960205078125
0.242919921875,-0.0093994140625,-0.9899444580078124
0.2036285400390625,0.00787353515625,-1.00177001953125
0.1857757568359375,0.0182647705078125,-1.00341796875
0.176788330078125,0.040740966796875,-0.9933929443359376
0.181060791015625,0.056488037109375,-0.9702606201171876
0.1728515625,0.0389862060546875,-0.9453125
0.18804931640625,0.0289764404296875,-0.9467926025390624
0.2381439208984375,0.0722198486328125,-1.050140380859375
0.3002777099609375,0.093505859375,-1.1021881103515625
0.3105316162109375,0.011962890625,-0.9857025146484376
0.2787322998046875,0.0176544189453125,-0.97314453125
0.2721710205078125,0.0541839599609375,-1.058837890625
0.2978057861328125,0.0593719482421875,-1.0489501953125
0.301483154296875,0.0325775146484375,-0.9653472900390624
0.2843170166015625,0.051361083984375,-0.98046875
0.288665771484375,0.1424407958984375,-1.070281982421875
0.328643798828125,0.2098236083984375,-1.0724639892578125
0.336273193359375,0.181854248046875,-0.9969482421875
0.3161468505859375,0.1616668701171875,-0.939697265625
0.278167724609375,0.16668701171875,-0.94097900390625
0.2705230712890625,0.1782989501953125,-0.929412841796875
0.2710113525390625,0.178253173828125,-0.903289794921875
0.260833740234375,0.1748046875,-0.87567138671875
0.2422637939453125,0.181365966796875,-0.8776092529296875
0.2320709228515625,0.1846160888671875,-0.8752899169921875
0.2236785888671875,0.1796417236328125,-0.8736572265625
0.2225494384765625,0.180633544921875,-0.8834686279296875
0.218017578125,0.1638336181640625,-0.8934478759765625
0.203094482421875,0.151214599609375,-0.94842529296875
0.2583465576171875,0.277130126953125,-1.2111358642578125
0.3264312744140625,0.294647216796875,-1.2153778076171875
0.3418121337890625,0.1392822265625,-1.0053863525390625
0.2658843994140625,0.0407562255859375,-0.970855712890625
0.2217254638671875,-0.064666748046875,-0.9398040771484376
0.2456817626953125,-0.133514404296875,-0.90972900390625
0.288421630859375,-0.00579833984375,-1.072845458984375
0.3563995361328125,0.1607818603515625,-1.1900482177734375
0.37200927734375,0.148406982421875,-1.0542755126953125
0.2530975341796875,0.0943603515625,-0.93817138671875
0.135589599609375,0.094451904296875,-0.9212646484375
0.136566162109375,0.126983642578125,-0.9418487548828124
0.2123260498046875,0.20257568359375,-0.9375
0.240570068359375,0.2235260009765625,-0.942718505859375
0.2296295166015625,0.1996307373046875,-0.9606170654296876
0.2187957763671875,0.177276611328125,-0.945220947265625
0.2130889892578125,0.173065185546875,-0.920379638671875
0.2341461181640625,0.1918792724609375,-0.91259765625
0.2440338134765625,0.17279052734375,-0.9153594970703124
0.250457763671875,0.1383056640625,-0.900787353515625
0.260528564453125,0.1390533447265625,-0.91619873046875
0.287811279296875,0.1655120849609375,-0.944549560546875
0.3115234375,0.1363372802734375,-0.9487457275390624
0.3105926513671875,0.1008148193359375,-0.9537506103515624
0.31207275390625,0.096343994140625,-0.9597625732421876
0.3090972900390625,0.133026123046875,-0.96484375
0.318389892578125,0.1604766845703125,-0.9601593017578124
0.3231658935546875,0.171295166015625,-0.9630889892578124
0.34765625,0.243621826171875,-1.0770263671875
0.33599853515625,0.19683837890625,-0.998870849609375
0.3061370849609375,0.19171142578125,-0.97125244140625
0.283355712890625,0.2502593994140625,-1.0230712890625
0.300811767578125,0.2240753173828125,-0.9451141357421876
0.285430908203125,0.169677734375,-0.8194580078125
0.246856689453125,0.121978759765625,-0.8410491943359375
0.26617431640625,0.1833648681640625,-1.0321502685546875
0.345184326171875,0.2139739990234375,-1.10528564453125
0.369537353515625,0.161834716796875,-0.983306884765625
0.3161163330078125,0.17205810546875,-0.8889923095703125
0.2861785888671875,0.1740875244140625,-0.892242431640625
0.2823028564453125,0.1903839111328125,-0.909820556640625
0.2803497314453125,0.19622802734375,-0.9107818603515624
0.3095245361328125,0.1655731201171875,-0.8976593017578125
0.314361572265625,0.14605712890625,-0.908966064453125
0.3336029052734375,0.1025390625,-0.9326629638671876
0.310150146484375,0.063446044921875,-0.9650421142578124
0.2866973876953125,0.0983428955078125,-0.9412994384765624
0.3026580810546875,0.12255859375,-0.926544189453125
0.317718505859375,0.14862060546875,-0.9814605712890624
0.3324737548828125,0.1884613037109375,-1.0381622314453125
0.3563079833984375,0.19970703125,-1.154693603515625
0.3892822265625,0.2882843017578125,-1.2201690673828125
0.395843505859375,0.18621826171875,-0.9694976806640624
0.2712860107421875,0.103790283203125,-0.84381103515625
0.1897735595703125,0.0174102783203125,-0.79571533203125
0.1726226806640625,0.042144775390625,-0.84259033203125
0.228271484375,0.204986572265625,-1.02520751953125
0.223419189453125,0.3285675048828125,-1.110931396484375
0.2108306884765625,0.277313232421875,-0.9708404541015624
0.1622467041015625,0.19091796875,-0.8756256103515625
0.1130523681640625,0.1633453369140625,-0.861083984375
0.13238525390625,0.19232177734375,-0.8581390380859375
0.2002716064453125,0.2328033447265625,-0.868438720703125
0.2577056884765625,0.241668701171875,-0.8732452392578125
0.2811431884765625,0.2163543701171875,-0.8689117431640625
0.2832489013671875,0.1940765380859375,-0.8797760009765625
0.2849578857421875,0.2008819580078125,-0.9398193359375
0.309478759765625,0.1801605224609375,-0.9570770263671876
0.329315185546875,0.1494293212890625,-0.970458984375
0.33441162109375,0.1185150146484375,-1.0323486328125
0.3567657470703125,0.1039581298828125,-1.1552276611328125
0.3936614990234375,0.11517333984375,-1.2966461181640625
0.3814697265625,0.03460693359375,-1.1847076416015625
0.344940185546875,0.0373992919921875,-1.10595703125
0.331695556640625,0.0782012939453125,-1.1098175048828125
0.315582275390625,0.016082763671875,-0.981964111328125
0.2696990966796875,-0.0274658203125,-0.8083953857421875
0.28082275390625,0.0432891845703125,-0.883209228515625
0.32916259765625,0.1948699951171875,-1.119354248046875
0.375457763671875,0.2114105224609375,-1.186767578125
0.368194580078125,0.2001800537109375,-1.10186767578125
0.318634033203125,0.155914306640625,-1.0097198486328125
0.229827880859375,0.19378662109375,-1.019317626953125
0.244384765625,0.2273101806640625,-1.00067138671875
0.2570343017578125,0.243682861328125,-0.91839599609375
0.2371673583984375,0.22540283203125,-0.86676025390625
0.2024078369140625,0.1965789794921875,-0.843475341796875
0.1872406005859375,0.1821441650390625,-0.8236236572265625
0.1955413818359375,0.148834228515625,-0.7942352294921875
0.1966705322265625,0.1171112060546875,-0.824615478515625
0.20355224609375,0.1095123291015625,-0.8669281005859375
0.2198638916015625,0.1235504150390625,-0.9555816650390624
0.2403411865234375,0.1731719970703125,-1.0059051513671875
0.2782135009765625,0.2305908203125,-1.1996612548828125
0.31231689453125,0.3202362060546875,-1.3236541748046875
0.365264892578125,0.1832733154296875,-1.091156005859375
0.2865447998046875,0.0615234375,-0.956451416015625
0.204833984375,-0.04754638671875,-0.8993682861328125
0.2239837646484375,-0.179290771484375,-0.830291748046875
0.25335693359375,-0.1065826416015625,-1.00469970703125
0.30810546875,0.1090850830078125,-1.1832733154296875
0.3368377685546875,0.1224517822265625,-1.080078125
0.2306671142578125,0.075714111328125,-0.963043212890625
0.1538238525390625,0.0400848388671875,-0.9563446044921876
0.1641082763671875,0.0546417236328125,-0.9676666259765624
0.24285888671875,0.1021575927734375,-0.94952392578125
0.2749481201171875,0.11737060546875,-0.9497222900390624
0.267425537109375,0.1047515869140625,-0.9511871337890624
0.256866455078125,0.0716094970703125,-0.9349212646484376
0.2505340576171875,0.065032958984375,-0.9193878173828124
0.259521484375,0.0842437744140625,-0.9092254638671876
0.26116943359375,0.0786285400390625,-0.920257568359375
0.2827911376953125,0.1229705810546875,-0.9927215576171876
0.347412109375,0.1501312255859375,-1.0540618896484375
0.4323883056640625,0.2324676513671875,-1.20672607421875
0.436553955078125,0.182281494140625,-0.9989166259765624
0.4154205322265625,0.112640380859375,-0.8412628173828125
0.3790740966796875,0.2119140625,-1.014007568359375
0.409881591796875,0.2270355224609375,-1.0196533203125
0.45361328125,0.1987762451171875,-0.87451171875
0.41412353515625,0.24090576171875,-0.863616943359375
0.4084625244140625,0.2693939208984375,-0.961273193359375
0.4384765625,0.298797607421875,-0.994415283203125
0.5168609619140625,0.2166290283203125,-0.941375732421875
0.5465545654296875,0.194854736328125,-0.9298095703125
0.5379638671875,0.1883697509765625,-0.945953369140625
0.540069580078125,0.2066192626953125,-0.9339752197265624
0.525543212890625,0.249908447265625,-0.899658203125
0.4953460693359375,0.2699127197265625,-0.8658294677734375
0.472381591796875,0.26348876953125,-0.8450164794921875
0.4564208984375,0.22967529296875,-0.827301025390625
0.4275360107421875,0.19561767578125,-0.858428955078125
0.3967437744140625,0.1605224609375,-0.907867431640625
0.3428955078125,0.164215087890625,-0.998077392578125
0.2840423583984375,0.2230224609375,-1.0828094482421875
0.2186126708984375,0.23748779296875,-0.9395751953125
0.1424407958984375,0.1595611572265625,-0.781951904296875
0.0660552978515625,0.13800048828125,-0.8523712158203125
0.025421142578125,0.2450103759765625,-1.029815673828125
0.08966064453125,0.3172454833984375,-1.1353912353515625
0.1417694091796875,0.2285308837890625,-1.0540008544921875
0.07244873046875,0.109527587890625,-1.0118408203125
0.02191162109375,0.0826416015625,-1.0794219970703125
0.0539093017578125,0.1121978759765625,-1.080474853515625
0.140472412109375,0.1123199462890625,-0.9867401123046876
0.1291351318359375,0.11126708984375,-0.9812164306640624
0.1259002685546875,0.070220947265625,-1.0077667236328125
0.1295623779296875,0.051849365234375,-0.986541748046875
0.1441650390625,0.06195068359375,-0.9769287109375
0.1605682373046875,0.064910888671875,-0.9735565185546876
0.1822052001953125,0.0648345947265625,-0.967803955078125
0.204437255859375,0.0586090087890625,-0.949615478515625
0.21722412109375,0.0524444580078125,-0.9563446044921876
0.2307586669921875,0.0744476318359375,-0.97625732421875
0.2543182373046875,0.08721923828125,-1.00274658203125
0.3134765625,0.2042388916015625,-1.2164764404296875
0.3301849365234375,0.1366424560546875,-1.04193115234375
0.3254547119140625,0.094451904296875,-1.0581512451171875
0.28851318359375,0.142669677734375,-1.06640625
0.317474365234375,0.0747222900390625,-0.86846923828125
0.327178955078125,0.148406982421875,-0.9447174072265624
0.3235015869140625,0.2765960693359375,-1.1139984130859375
0.36224365234375,0.2334442138671875,-1.07476806640625
0.3758392333984375,0.1749420166015625,-0.960235595703125
0.33404541015625,0.1815948486328125,-0.900115966796875
0.310882568359375,0.209686279296875,-0.884307861328125
0.298614501953125,0.2421875,-0.8824920654296875
0.250701904296875,0.217376708984375,-0.8745880126953125
0.2028656005859375,0.2007904052734375,-0.9010467529296876
0.173858642578125,0.18524169921875,-0.8997650146484375
0.1603851318359375,0.1761627197265625,-0.8770294189453125
0.150054931640625,0.2034454345703125,-0.8685150146484375
0.1589508056640625,0.20263671875,-0.8779144287109375
0.181243896484375,0.189056396484375,-0.9270477294921876
0.20489501953125,0.184295654296875,-0.962890625
0.2205047607421875,0.198211669921875,-0.97918701171875
0.2626800537109375,0.1836700439453125,-0.9965362548828124
0.3180389404296875,0.2534942626953125,-1.1027679443359375
0.479736328125,0.3863983154296875,-1.3635101318359375
0.5672149658203125,0.2320556640625,-1.12445068359375
0.444549560546875,0.043914794921875,-0.9093475341796876
0.310760498046875,0.019561767578125,-0.824676513671875
0.2436370849609375,0.0291748046875,-0.77850341796875
0.254241943359375,0.18865966796875,-0.93359375
0.2974090576171875,0.3196563720703125,-1.0250244140625
0.298095703125,0.1932373046875,-0.978912353515625
0.2310333251953125,0.1186370849609375,-0.927001953125
0.1461334228515625,0.136077880859375,-0.95526123046875
0.158905029296875,0.205291748046875,-1.0108184814453125
0.2049713134765625,0.2421722412109375,-0.990478515625
0.2081756591796875,0.2207794189453125,-0.94586181640625
0.1937713623046875,0.270843505859375,-0.900848388671875
0.19677734375,0.21417236328125,-0.9131927490234376
0.1998138427734375,0.2209320068359375,-0.9635009765625
0.198028564453125,0.2252349853515625,-0.982635498046875
0.198699951171875,0.249664306640625,-0.93524169921875
0.2065887451171875,0.3148193359375,-0.9097900390625
0.1515350341796875,0.3125152587890625,-0.917327880859375
0.208099365234375,0.2728424072265625,-1.1009063720703125
0.1499481201171875,0.1743927001953125,-1.1363677978515625
0.164520263671875,0.17767333984375,-1.005462646484375
0.180084228515625,0.1959686279296875,-1.00909423828125
0.14483642578125,0.2023773193359375,-1.050262451171875
0.1889801025390625,0.22454833984375,-1.0406036376953125
0.1959075927734375,0.1092987060546875,-0.8812713623046875
0.1930389404296875,0.1491241455078125,-0.863128662109375
0.214111328125,0.174285888671875,-0.974609375
0.25836181640625,0.2050628662109375,-1.0929718017578125
0.2920684814453125,0.19439697265625,-1.0385284423828125
0.3043060302734375,0.1074981689453125,-0.9711761474609376
0.3097076416015625,0.0992889404296875,-0.9733428955078124
0.3331756591796875,0.118560791015625,-0.9687652587890624
0.3011322021484375,0.16845703125,-0.982940673828125
0.298370361328125,0.1387481689453125,-0.9501495361328124
0.240234375,0.152740478515625,-0.9742889404296876
0.24676513671875,0.121307373046875,-0.9713134765625
0.2655181884765625,0.1372528076171875,-0.96728515625
0.244842529296875,0.1615142822265625,-0.9590911865234376
0.2227783203125,0.1680145263671875,-0.9549560546875
0.1841888427734375,0.16131591796875,-0.9274139404296876
0.1597747802734375,0.1655731201171875,-0.9712371826171876
0.198638916015625,0.225250244140625,-1.193603515625
0.1602630615234375,0.20538330078125,-1.1661376953125
0.155487060546875,0.1147003173828125,-0.947174072265625
0.168914794921875,-0.0240936279296875,-0.7915802001953125
0.1044158935546875,-0.052032470703125,-0.807952880859375
0.0890655517578125,0.0507049560546875,-1.0015869140625
0.1158905029296875,0.081146240234375,-1.00518798828125
0.167633056640625,0.0963897705078125,-1.0064239501953125
0.161285400390625,0.1378936767578125,-0.9820709228515624
0.152740478515625,0.0654449462890625,-0.9239654541015624
0.1402587890625,0.04632568359375,-0.922454833984375
0.154541015625,0.074951171875,-0.9417266845703124
0.1826934814453125,0.078369140625,-0.967315673828125
0.2156982421875,0.0601806640625,-0.9760589599609376
0.1905670166015625,0.0221710205078125,-0.971893310546875
0.1863250732421875,-0.010955810546875,-1.06884765625
0.2407379150390625,-0.049285888671875,-1.0789337158203125
0.3043975830078125,-0.0857391357421875,-1.0274505615234375
0.3228607177734375,-0.0912933349609375,-0.9866180419921876
0.315155029296875,-0.0885009765625,-0.975921630859375
0.3025665283203125,-0.0417633056640625,-0.999237060546875
0.3270263671875,-0.0157928466796875,-0.9937591552734376
0.36865234375,0.01702880859375,-0.9630126953125
0.3765106201171875,0.0355377197265625,-0.98358154296875
0.42291259765625,0.0905609130859375,-1.1655120849609375
0.3428192138671875,0.15386962890625,-1.1436767578125
0.3046875,0.0556793212890625,-1.0376434326171875
0.29107666015625,0.0283203125,-0.97393798828125
0.282501220703125,0.061187744140625,-0.9105682373046876
0.3039093017578125,0.09417724609375,-0.87078857421875
0.3516845703125,0.1331787109375,-0.8837127685546875
0.41070556640625,0.20111083984375,-1.076690673828125
0.3943634033203125,0.2543182373046875,-1.170623779296875
0.373199462890625,0.246002197265625,-1.08880615234375
0.360504150390625,0.2384033203125,-0.95977783203125
0.2800750732421875,0.2490692138671875,-0.9536895751953124
0.2645111083984375,0.256561279296875,-0.954132080078125
0.2522430419921875,0.275390625,-0.95538330078125
0.256317138671875,0.3232421875,-0.9036102294921876
0.2317047119140625,0.32843017578125,-0.8488006591796875
0.213836669921875,0.3026123046875,-0.7870941162109375
0.1970977783203125,0.2700347900390625,-0.792205810546875
0.210693359375,0.1985626220703125,-0.8056488037109375
0.2172088623046875,0.17236328125,-0.8246612548828125
0.21435546875,0.1893310546875,-0.8775177001953125
0.216094970703125,0.199798583984375,-0.9334259033203124
0.2162017822265625,0.18389892578125,-1.004241943359375
0.2255096435546875,0.206451416015625,-1.084716796875
0.2898406982421875,0.293365478515625,-1.310333251953125
0.3455810546875,0.3514556884765625,-1.3887481689453125
0.4107818603515625,0.1576690673828125,-1.089447021484375
0.341552734375,0.0555572509765625,-0.912139892578125
0.2321624755859375,0.01898193359375,-0.9159088134765624
0.219329833984375,-0.03082275390625,-0.94244384765625
0.239471435546875,-0.0222930908203125,-0.981658935546875
0.269378662109375,0.123321533203125,-1.0718231201171875
0.3048095703125,0.1842041015625,-1.087188720703125
0.2979583740234375,0.1519775390625,-0.992340087890625
0.227203369140625,0.1340179443359375,-0.9221038818359376
0.187774658203125,0.14019775390625,-0.9293670654296876
0.200225830078125,0.1852874755859375,-0.96356201171875
0.2356109619140625,0.2142791748046875,-0.9319915771484376
0.229705810546875,0.197479248046875,-0.9193878173828124
0.2116241455078125,0.1682586669921875,-0.9476165771484376
0.211456298828125,0.153533935546875,-0.953033447265625
0.227569580078125,0.1384124755859375,-0.9296112060546876
0.2041015625,0.1466827392578125,-0.9171905517578124
0.1949310302734375,0.1455230712890625,-0.9273834228515624
0.2009124755859375,0.175079345703125,-0.9680328369140624
0.229827880859375,0.207244873046875,-1.01708984375
0.252471923828125,0.1778717041015625,-1.022003173828125
0.220306396484375,0.199493408203125,-1.0726165771484375
0.2851104736328125,0.240386962890625,-1.0481414794921875
0.3309173583984375,0.2435150146484375,-0.94976806640625
0.359130859375,0.1972198486328125,-0.883148193359375
0.3507843017578125,0.2275390625,-0.897857666015625
0.38848876953125,0.2494354248046875,-0.8741302490234375
0.4095611572265625,0.25933837890625,-0.8382568359375
0.4073028564453125,0.3011627197265625,-0.911529541015625
0.41864013671875,0.310211181640625,-0.966644287109375
0.4449310302734375,0.24517822265625,-0.9499664306640624
0.4508056640625,0.218841552734375,-0.93341064453125
0.448638916015625,0.1663055419921875,-0.9110260009765624
0.44256591796875,0.1960296630859375,-0.920654296875
0.422760009765625,0.2122802734375,-0.9038848876953124
0.3921661376953125,0.2166900634765625,-0.9015960693359376
0.3405303955078125,0.2060089111328125,-0.9465789794921876
0.322174072265625,0.2054901123046875,-0.961212158203125
0.3408966064453125,0.20220947265625,-0.968475341796875
0.3628692626953125,0.1739959716796875,-0.9279632568359376
0.3684234619140625,0.19097900390625,-0.88299560546875
0.3148193359375,0.2005615234375,-0.9562835693359376
0.289642333984375,0.2341461181640625,-1.0462493896484375
0.306610107421875,0.2212677001953125,-0.988494873046875
0.278045654296875,0.169281005859375,-0.94085693359375
0.250823974609375,0.1611480712890625,-0.97833251953125
0.272186279296875,0.177642822265625,-0.9572601318359376
0.2815704345703125,0.1772613525390625,-0.917266845703125
0.2490997314453125,0.1723480224609375,-0.9000244140625
0.218719482421875,0.1980438232421875,-0.9455718994140624
0.2209014892578125,0.183624267578125,-0.9644317626953124
0.241668701171875,0.2167205810546875,-1.0291595458984375
0.225494384765625,0.24456787109375,-1.0085601806640625
0.1984710693359375,0.24102783203125,-0.9610443115234376
0.1809844970703125,0.179779052734375,-0.9482421875
0.22015380859375,0.1483917236328125,-0.9289093017578124
0.2297210693359375,0.1428375244140625,-0.9541015625
0.232513427734375,0.12255859375,-0.955718994140625
0.23486328125,0.1121978759765625,-0.9808502197265624
0.2287750244140625,0.0858154296875,-0.995513916015625
0.20831298828125,0.05731201171875,-0.9913787841796876
0.21099853515625,0.04888916015625,-0.971649169921875
0.1981658935546875,0.05645751953125,-0.9860687255859376
0.206756591796875,0.0509033203125,-0.9801025390625
0.21466064453125,0.0670013427734375,-0.96142578125
0.22607421875,0.0790863037109375,-0.964874267578125
0.217987060546875,0.078826904296875,-0.9788360595703124
0.22637939453125,0.109771728515625,-1.004791259765625
0.260986328125,0.133544921875,-1.0172882080078125
0.291656494140625,0.1722412109375,-1.0800628662109375
0.309967041015625,0.1618499755859375,-1.0905609130859375
0.32025146484375,0.1222076416015625,-1.05889892578125
0.304595947265625,0.088043212890625,-0.983612060546875
0.2757110595703125,0.057098388671875,-0.865692138671875
0.2679901123046875,0.0913238525390625,-0.8723907470703125
0.2835845947265625,0.218048095703125,-1.025390625
0.3175048828125,0.269989013671875,-1.11932373046875
0.3353729248046875,0.158203125,-1.0479736328125
0.3152923583984375,0.0873870849609375,-0.964324951171875
0.290679931640625,0.1055450439453125,-0.9482879638671876
0.2976226806640625,0.1386871337890625,-0.975738525390625
0.314910888671875,0.1819305419921875,-0.989410400390625
0.3070526123046875,0.20074462890625,-0.96759033203125
0.28765869140625,0.19000244140625,-0.939971923828125
0.25738525390625,0.16424560546875,-0.900543212890625
0.2115020751953125,0.1480560302734375,-0.8604278564453125
0.2098388671875,0.12396240234375,-0.7982940673828125
0.2207489013671875,0.1078338623046875,-0.8276519775390625
0.22052001953125,0.1152191162109375,-0.907623291015625
0.23480224609375,0.1192626953125,-0.9672088623046876
0.241668701171875,0.10614013671875,-0.967315673828125
0.2364959716796875,0.108428955078125,-0.993194580078125
0.2528076171875,0.1147613525390625,-1.0113677978515625
0.2912750244140625,0.1126861572265625,-1.0565185546875
0.4075164794921875,0.2155303955078125,-1.297119140625
0.41265869140625,0.1813201904296875,-1.1250152587890625
0.359222412109375,0.09130859375,-1.0066070556640625
0.32196044921875,0.053131103515625,-0.953216552734375
0.3389434814453125,-0.04156494140625,-0.8880615234375
0.3325653076171875,-0.092193603515625,-0.8218231201171875
0.3753662109375,-0.04901123046875,-0.9371337890625
0.359161376953125,0.1116485595703125,-1.0739898681640625
0.28631591796875,0.2184295654296875,-1.041351318359375
0.23724365234375,0.13629150390625,-0.9328155517578124
0.1619415283203125,0.0553131103515625,-0.9389190673828124
0.120849609375,0.03704833984375,-0.9960784912109376
0.1793975830078125,0.0398406982421875,-1.003753662109375
0.20855712890625,0.0488128662109375,-1.0213165283203125
0.2210693359375,-0.015411376953125,-1.0563201904296875
0.215179443359375,-0.018890380859375,-1.11224365234375
0.237091064453125,-0.0665283203125,-1.0178985595703125
0.2428131103515625,-0.1145782470703125,-0.9307708740234376
0.2476654052734375,-0.0639801025390625,-0.9377288818359376
0.3092041015625,-0.01904296875,-0.9261627197265624
0.327423095703125,0.044952392578125,-0.9114227294921876
0.2954254150390625,0.1029510498046875,-0.8737335205078125
0.3136444091796875,0.0968170166015625,-0.8855133056640625
0.37908935546875,0.1591796875,-1.1222686767578125
0.4041595458984375,0.2270050048828125,-1.121734619140625
0.43621826171875,0.248626708984375,-1.068695068359375
0.38763427734375,0.22686767578125,-0.98431396484375
0.2843780517578125,0.06781005859375,-0.793609619140625
0.2463226318359375,0.0828399658203125,-0.9777069091796876
0.2750701904296875,0.1489105224609375,-1.102081298828125
0.3336639404296875,0.095489501953125,-1.040191650390625
0.2976837158203125,0.042694091796875,-0.9496002197265624
0.22796630859375,0.049224853515625,-0.916412353515625
0.237640380859375,0.0938720703125,-0.9049072265625
0.2619781494140625,0.156341552734375,-0.90478515625
0.2408447265625,0.1863250732421875,-0.864990234375
0.2567901611328125,0.166290283203125,-0.85626220703125
0.3048248291015625,0.121490478515625,-0.842926025390625
0.329345703125,0.1275787353515625,-0.845001220703125
0.3433990478515625,0.12359619140625,-0.8644256591796875
0.371978759765625,0.1365509033203125,-0.9005584716796875
0.3972015380859375,0.1284942626953125,-0.9465789794921876
0.45269775390625,0.1400909423828125,-0.999664306640625
0.5026397705078125,0.1262664794921875,-1.0389556884765625
0.5020904541015625,0.0929412841796875,-1.1108245849609375
0.5310821533203125,0.12774658203125,-1.3556060791015625
0.5248260498046875,0.209075927734375,-1.41796875
0.455535888671875,0.0272674560546875,-0.9482879638671876
0.3459930419921875,-0.2000732421875,-0.5963897705078125
0.2585601806640625,-0.203521728515625,-0.7125701904296875
0.26025390625,0.011962890625,-0.9921417236328124
0.2886505126953125,0.163299560546875,-1.0853729248046875
0.343536376953125,0.100128173828125,-0.9293212890625
0.343170166015625,0.07257080078125,-0.8758087158203125
0.332305908203125,0.0845489501953125,-0.908172607421875
0.3350372314453125,0.0847930908203125,-0.935882568359375
0.3712005615234375,0.102691650390625,-0.9391937255859376
0.388214111328125,0.1215057373046875,-0.9257965087890624
0.3594207763671875,0.120330810546875,-0.9255218505859376
0.3242340087890625,0.074188232421875,-0.9376068115234376
0.3347930908203125,0.0052490234375,-0.9220428466796876
0.254486083984375,0.0385589599609375,-0.937103271484375
0.2074432373046875,-0.0208740234375,-0.9001312255859375
0.1094818115234375,0.085693359375,-0.9940338134765624
0.171630859375,0.135162353515625,-1.086578369140625
0.3805694580078125,0.3824615478515625,-1.288726806640625
0.289276123046875,0.3871307373046875,-0.982208251953125
0.2077484130859375,0.14495849609375,-0.957855224609375
0.065155029296875,0.2945556640625,-1.28472900390625
0.1325225830078125,0.237579345703125,-1.0167999267578125
0.20220947265625,0.1593780517578125,-0.7164306640625
0.1069183349609375,0.3360595703125,-0.9199676513671876
0.149932861328125,0.4606170654296875,-1.0587310791015625
0.177764892578125,0.441314697265625,-0.9574432373046876
0.113555908203125,0.3438568115234375,-0.87225341796875
0.0455169677734375,0.275146484375,-0.865447998046875
0.071014404296875,0.283660888671875,-0.829620361328125
0.09490966796875,0.2723846435546875,-0.8354949951171875
0.1094818115234375,0.26239013671875,-0.8690948486328125
0.1199188232421875,0.208282470703125,-0.9431610107421876
0.2064971923828125,0.0333404541015625,-1.0666046142578125
0.206451416015625,-0.096343994140625,-1.0203704833984375
0.188201904296875,-0.044464111328125,-0.9703369140625
0.19732666015625,0.0441741943359375,-1.0041656494140625
0.2540130615234375,0.08251953125,-1.0509796142578125
0.3045806884765625,0.108642578125,-1.076416015625
0.2724151611328125,0.1363525390625,-0.998443603515625
0.277008056640625,0.260498046875,-1.0948944091796875
0.396636962890625,0.4746246337890625,-1.202056884765625
0.404327392578125,0.301971435546875,-0.93109130859375
0.331878662109375,0.21405029296875,-0.9285736083984376
0.28338623046875,0.1807708740234375,-0.9473114013671876
0.3173370361328125,0.139801025390625,-0.9044342041015624
0.2566680908203125,0.1532440185546875,-0.904327392578125
0.270050048828125,0.1502227783203125,-0.9502410888671876
0.320831298828125,0.1411590576171875,-0.99847412109375
0.3655242919921875,0.0866241455078125,-0.9695587158203124
0.39251708984375,0.044647216796875,-0.9640655517578124
0.4357147216796875,0.0201416015625,-0.917510986328125
0.501190185546875,0.00250244140625,-0.910675048828125
0.5168609619140625,-0.07379150390625,-0.897186279296875
0.533203125,-0.109344482421875,-0.8916015625
0.4884033203125,-0.0780029296875,-0.895843505859375
0.4629058837890625,-0.0293426513671875,-0.860015869140625
0.501190185546875,-0.0420989990234375,-0.8118133544921875
0.59368896484375,-0.0459136962890625,-0.787994384765625
0.5338287353515625,-0.1000823974609375,-0.8987884521484375
-0.4187469482421875,-0.2621002197265625,-0.9821014404296876
0.2225341796875,-0.0880889892578125,-0.9684906005859376
0.13787841796875,0.0360870361328125,-0.88629150390625
0.0516815185546875,0.004119873046875,-0.89208984375
0.060333251953125,0.0282440185546875,-0.8980560302734375
0.0468597412109375,0.060546875,-1.01031494140625
0.14398193359375,-0.0975189208984375,-1.1266021728515625
0.250457763671875,-0.0647125244140625,-1.07080078125
0.2049560546875,-0.0521087646484375,-0.990203857421875
0.1744842529296875,-0.0708770751953125,-0.976409912109375
0.1005706787109375,-0.0931243896484375,-0.9420318603515624
0.019500732421875,-0.1005096435546875,-0.9249114990234376
0.0126800537109375,-0.124725341796875,-0.9913787841796876
-0.0126190185546875,-0.14263916015625,-1.0380401611328125
-0.0215301513671875,-0.0973968505859375,-1.0354461669921875
-0.0790557861328125,-0.09954833984375,-0.9548492431640624
-0.0665435791015625,-0.1058197021484375,-0.92529296875
-0.0564727783203125,-0.1175689697265625,-0.9155426025390624
-0.0572052001953125,-0.12017822265625,-0.9024200439453124
-0.072540283203125,-0.1591033935546875,-0.96295166015625
-0.1024627685546875,-0.164398193359375,-0.980926513671875
-0.07281494140625,-0.19085693359375,-1.0834808349609375
-0.072906494140625,-0.1937713623046875,-1.076873779296875
-0.0894012451171875,-0.1395263671875,-0.993133544921875
-0.073760986328125,-0.0526885986328125,-1.0496826171875
-0.0995330810546875,-0.026580810546875,-1.1318359375
-0.1035614013671875,-0.11297607421875,-1.0819244384765625
-0.0703277587890625,-0.0464324951171875,-0.98565673828125
-0.065338134765625,-0.0188751220703125,-1.00360107421875
-0.07525634765625,-0.040313720703125,-1.0172271728515625
-0.07635498046875,-0.0197906494140625,-0.9901885986328124
-0.1154327392578125,0.0529632568359375,-0.9397125244140624
-0.1297607421875,0.1041259765625,-1.0003814697265625
-0.1173858642578125,0.055267333984375,-1.0113983154296875
-0.065643310546875,-0.0229644775390625,-1.009429931640625
-0.0194549560546875,-0.060211181640625,-1.014892578125
-0.0369110107421875,-0.0439605712890625,-0.9588623046875
-0.0421905517578125,-0.0847625732421875,-0.9696502685546876
-0.0517730712890625,-0.1110992431640625,-0.9574737548828124
-0.057952880859375,-0.0684051513671875,-0.9632720947265624
-0.073577880859375,-0.050689697265625,-0.9962005615234376
-0.099517822265625,-0.0933380126953125,-0.969451904296875
-0.0306243896484375,-0.110382080078125,-0.9613494873046876
0.054046630859375,-0.09771728515625,-0.95892333984375
0.1097869873046875,-0.1098175048828125,-0.961761474609375
0.1463775634765625,-0.111572265625,-0.9841766357421876
0.1534576416015625,-0.09393310546875,-0.9661865234375
0.229339599609375,-0.10400390625,-0.93585205078125
0.3330535888671875,-0.141632080078125,-0.9182891845703124
0.4468841552734375,-0.0359954833984375,-0.8672943115234375
0.6690673828125,0.03143310546875,-0.975006103515625
0.5491943359375,-0.0280609130859375,-1.0495758056640625
0.53326416015625,-0.115264892578125,-0.8284149169921875
0.336212158203125,0.0469970703125,-0.728759765625
0.3172760009765625,0.0881805419921875,-0.78607177734375
0.342864990234375,0.0641021728515625,-0.956298828125
0.3567352294921875,-0.0059967041015625,-0.9824676513671876
0.3181304931640625,0.05072021484375,-0.9999542236328124
0.2471923828125,0.1108856201171875,-1.0377349853515625
0.2220916748046875,0.072296142578125,-1.0391998291015625
0.1920166015625,0.07159423828125,-1.047271728515625
0.21319580078125,0.0640411376953125,-1.0643310546875
0.242034912109375,0.0579986572265625,-1.06939697265625
0.22900390625,0.0608673095703125,-1.0304718017578125
0.1978912353515625,0.002685546875,-1.023040771484375
0.16802978515625,-0.0157623291015625,-1.0804595947265625
0.146026611328125,-0.022674560546875,-1.0773468017578125
0.1911468505859375,0.031829833984375,-1.1025543212890625
0.15985107421875,0.044525146484375,-1.0455780029296875
0.0852203369140625,0.094329833984375,-1.0214996337890625
0.11309814453125,0.0971832275390625,-0.976654052734375
0.1350860595703125,0.2171630859375,-1.0760955810546875
0.1225433349609375,0.2561492919921875,-1.099884033203125
0.09429931640625,0.2070159912109375,-1.0804443359375
0.07086181640625,0.22119140625,-1.0811309814453125
0.0782623291015625,0.246124267578125,-1.0279541015625
0.1156768798828125,0.25421142578125,-0.9501800537109376
0.09686279296875,0.3053436279296875,-1.0066375732421875
0.1377105712890625,0.2850341796875,-1.02685546875
0.1476898193359375,0.255615234375,-0.966217041015625
0.136260986328125,0.2557830810546875,-0.9542236328125
0.105712890625,0.28192138671875,-0.9446563720703124
0.094268798828125,0.2632293701171875,-0.9148712158203124
0.10595703125,0.2088470458984375,-0.8984832763671875
0.06219482421875,0.2313995361328125,-0.9387664794921876
0.102203369140625,0.271820068359375,-0.9817047119140624
0.1369476318359375,0.29534912109375,-1.00457763671875
0.126495361328125,0.3809356689453125,-1.0535430908203125
0.1729278564453125,0.2872161865234375,-1.0186920166015625
0.200775146484375,0.198577880859375,-0.8755645751953125
0.193695068359375,0.13287353515625,-0.842437744140625
0.1228485107421875,0.3358917236328125,-0.9429779052734376
0.157958984375,0.4214935302734375,-0.9756622314453124
0.168670654296875,0.3060150146484375,-0.9734954833984376
0.1409912109375,0.2662200927734375,-0.961273193359375
0.1403961181640625,0.27374267578125,-0.9629669189453124
0.1383056640625,0.31182861328125,-0.991851806640625
0.135833740234375,0.3106842041015625,-0.9776611328125
0.1617279052734375,0.2475433349609375,-0.9928131103515624
0.1643218994140625,0.207427978515625,-1.01409912109375
0.1560821533203125,0.207550048828125,-1.0594635009765625
0.1808929443359375,0.2111358642578125,-1.081298828125
0.162322998046875,0.2155609130859375,-1.022735595703125
0.1165008544921875,0.174346923828125,-1.0401611328125
0.0825347900390625,0.30108642578125,-1.17462158203125
0.13031005859375,0.402496337890625,-1.1395416259765625
0.1461334228515625,0.2579345703125,-0.8719940185546875
0.12017822265625,0.24884033203125,-0.8831024169921875
0.086090087890625,0.335205078125,-0.9454803466796876
0.0945281982421875,0.4683837890625,-1.0558319091796875
0.125701904296875,0.488494873046875,-0.925506591796875
0.1688385009765625,0.377716064453125,-0.80206298828125
0.16619873046875,0.3262176513671875,-0.795867919921875
0.130950927734375,0.3147430419921875,-0.8343963623046875
0.1402130126953125,0.3036346435546875,-0.854248046875
0.12603759765625,0.293365478515625,-0.872955322265625
0.125335693359375,0.2535858154296875,-0.83123779296875
0.1541290283203125,0.183380126953125,-0.7835693359375
0.1103057861328125,0.175384521484375,-0.7919158935546875
0.06671142578125,0.2425689697265625,-0.7842864990234375
0.015716552734375,0.295379638671875,-0.81695556640625
0.184967041015625,0.205108642578125,-0.95550537109375
0.46270751953125,0.2795867919921875,-0.8928680419921875
0.2953643798828125,0.2642669677734375,-0.976806640625
0.194976806640625,0.2398529052734375,-0.997955322265625
0.261749267578125,0.2127685546875,-1.095123291015625
-0.0319976806640625,0.030029296875,-1.0104827880859375
-0.2514495849609375,-0.071624755859375,-0.8936614990234375
-0.27264404296875,0.39166259765625,-1.3462982177734375
0.05657958984375,-0.3147125244140625,-1.54852294921875
0.0279998779296875,-0.141326904296875,-1.1693878173828125
-0.000762939453125,-0.1099090576171875,-0.7278900146484375
-0.0713348388671875,-0.1810455322265625,-0.8200531005859375
0.1487579345703125,-0.296112060546875,-1.1503448486328125
0.5082550048828125,-0.5630035400390625,-1.39141845703125
0.3215179443359375,-0.253326416015625,-1.1045684814453125
0.034088134765625,-0.085479736328125,-0.701171875
0.1854095458984375,-0.14886474609375,-0.8817901611328125
0.1518402099609375,-0.268707275390625,-1.1132354736328125
0.10931396484375,-0.2396240234375,-1.15802001953125
-0.0012969970703125,-0.1697235107421875,-0.954010009765625
0.0264129638671875,-0.177703857421875,-0.8076019287109375
0.027557373046875,-0.1840057373046875,-0.8272857666015625
0.0479278564453125,-0.18670654296875,-0.9686737060546876
0.0248260498046875,-0.185516357421875,-1.035003662109375
-0.0119171142578125,-0.1330108642578125,-0.9987030029296876
-0.0687255859375,-0.1374053955078125,-0.98150634765625
-0.0315399169921875,-0.1728057861328125,-0.990814208984375
0.0553741455078125,-0.1849365234375,-1.00189208984375
0.0801544189453125,-0.2271728515625,-1.04632568359375
0.06884765625,-0.205291748046875,-0.9997100830078124
0.058685302734375,-0.1729736328125,-0.920257568359375
0.08349609375,-0.18267822265625,-1.00054931640625
