AccelerationX,AccelerationY,AccelerationZ
-0.425506591796875,0.62469482421875,-0.6300506591796875
-0.4248809814453125,0.626556396484375,-0.5794830322265625
-0.4297943115234375,0.6345672607421875,-0.61083984375
-0.430938720703125,0.6535797119140625,-0.6429443359375
-0.4290771484375,0.63043212890625,-0.622650146484375
-0.4305419921875,0.6284332275390625,-0.62518310546875
-0.4295196533203125,0.635498046875,-0.6199188232421875
-0.4432830810546875,0.6480865478515625,-0.6353912353515625
-0.4300994873046875,0.6460113525390625,-0.62109375
-0.4246826171875,0.6454620361328125,-0.6212615966796875
-0.4277496337890625,0.6467132568359375,-0.6190948486328125
-0.42987060546875,0.642364501953125,-0.6180267333984375
-0.4338531494140625,0.64459228515625,-0.628875732421875
-0.43450927734375,0.6495208740234375,-0.638671875
-0.4296875,0.6333770751953125,-0.617767333984375
-0.457733154296875,0.624847412109375,-0.5958251953125
-0.47418212890625,0.6432647705078125,-0.558929443359375
-0.46954345703125,0.635955810546875,-0.542083740234375
-0.47509765625,0.6017303466796875,-0.497100830078125
-0.494781494140625,0.61322021484375,-0.447662353515625
-0.509552001953125,0.70098876953125,-0.568695068359375
-0.4950408935546875,0.6742095947265625,-0.4737701416015625
-0.5876007080078125,0.6688995361328125,-0.326263427734375
-0.6434326171875,0.71148681640625,-0.3370819091796875
-0.6898040771484375,0.7060546875,-0.26300048828125
-0.7536163330078125,0.7568817138671875,-0.167510986328125
-0.7057037353515625,0.7059326171875,-0.1551361083984375
-0.738311767578125,0.7335205078125,-0.1489410400390625
-0.65087890625,0.72308349609375,-0.0780181884765625
-0.670166015625,0.6767578125,-4.57763671875e-05
-0.730682373046875,0.607513427734375,0.067657470703125
-0.79315185546875,0.63580322265625,0.0604705810546875
-0.7886810302734375,0.622100830078125,-0.0333404541015625
-0.7628021240234375,0.6493682861328125,-0.0124053955078125
-0.8386688232421875,0.6579132080078125,0.0344390869140625
-0.886474609375,0.6444091796875,0.0626678466796875
-0.8730621337890625,0.671966552734375,0.0134124755859375
-0.82684326171875,0.6511688232421875,0.0062255859375
-0.8275909423828125,0.6707763671875,-0.1248779296875
-0.8817291259765625,0.7388153076171875,-0.1385498046875
-0.92596435546875,0.7593231201171875,-0.0644378662109375
-0.7523956298828125,0.6624603271484375,-0.0803070068359375
-0.6996307373046875,0.5966644287109375,-0.2264556884765625
-0.6860809326171875,0.7548065185546875,-0.297271728515625
-0.620513916015625,0.82647705078125,-0.2238311767578125
-0.6517333984375,0.7512664794921875,-0.1048736572265625
-0.7051849365234375,0.66302490234375,-0.1248321533203125
-0.697906494140625,0.6895751953125,-0.1109161376953125
-0.647308349609375,0.6509857177734375,-0.086669921875
-0.6235198974609375,0.637786865234375,-0.0460357666015625
-0.5955352783203125,0.68896484375,0.0220489501953125
-0.5789947509765625,0.698211669921875,0.03826904296875
-0.5722808837890625,0.71234130859375,0.06512451171875
-0.5709228515625,0.7494049072265625,0.058624267578125
-0.6057586669921875,0.7492218017578125,0.0135955810546875
-0.762481689453125,0.8748626708984375,0.02008056640625
-0.8104095458984375,0.8738250732421875,-0.058807373046875
-0.7662353515625,0.717498779296875,-0.1124114990234375
-0.779937744140625,0.6619415283203125,-0.1477508544921875
-0.8343353271484375,0.70635986328125,-0.133514404296875
-0.8392181396484375,0.7380828857421875,-0.1311187744140625
-0.755584716796875,0.622222900390625,-0.1045684814453125
-0.7061614990234375,0.554931640625,-0.0989532470703125
-0.6636810302734375,0.6162872314453125,-0.0642852783203125
-0.6045074462890625,0.659576416015625,-0.042266845703125
-0.6163482666015625,0.6743927001953125,-0.0567779541015625
-0.7144317626953125,0.730133056640625,-0.04559326171875
-0.8055572509765625,0.8090667724609375,-0.0704498291015625
-0.82122802734375,0.8136138916015625,-0.08563232421875
-0.7799530029296875,0.732818603515625,-0.0967254638671875
-0.7952423095703125,0.7975921630859375,-0.0729522705078125
-0.846282958984375,0.9515838623046876,-0.144378662109375
-0.82073974609375,0.842437744140625,-0.1547088623046875
-0.826934814453125,0.8543243408203125,-0.1498260498046875
-0.7339019775390625,0.87939453125,-0.2175140380859375
-0.582122802734375,0.8440093994140625,-0.118988037109375
-0.4950103759765625,0.766876220703125,-0.0265960693359375
-0.486053466796875,0.72406005859375,-0.073638916015625
-0.5176239013671875,0.709014892578125,-0.0902557373046875
-0.513519287109375,0.6720733642578125,-0.012969970703125
-0.545166015625,0.6487274169921875,-0.003265380859375
-0.5803375244140625,0.6662139892578125,0.0001678466796875
-0.5932464599609375,0.7639007568359375,0.02252197265625
-0.55718994140625,0.7939910888671875,-0.023712158203125
-0.5813751220703125,0.7079010009765625,-0.057220458984375
-0.74114990234375,0.936981201171875,0.0159759521484375
-0.6507568359375,0.917572021484375,-0.0496368408203125
-0.71417236328125,0.63427734375,-0.1095733642578125
-0.784210205078125,0.7031097412109375,-0.1110992431640625
-0.7846527099609375,0.7757415771484375,-0.0796966552734375
-0.7640380859375,0.7145538330078125,-0.0613250732421875
-0.74774169921875,0.6407318115234375,-0.09832763671875
-0.7420196533203125,0.6675262451171875,-0.1498565673828125
-0.657440185546875,0.6969146728515625,-0.1140289306640625
-0.60699462890625,0.64190673828125,-0.109161376953125
-0.6723785400390625,0.6187591552734375,-0.0958709716796875
-0.7379913330078125,0.6649932861328125,-0.0782470703125
-0.7813873291015625,0.7322845458984375,-0.0489501953125
-0.8167266845703125,0.76678466796875,-0.0606842041015625
-0.838836669921875,0.7671661376953125,-0.1138763427734375
-0.8680267333984375,0.9254302978515624,-0.1602935791015625
-0.768218994140625,0.984405517578125,-0.2259063720703125
-0.6384735107421875,0.8822174072265625,-0.2089385986328125
-0.6520538330078125,0.7860260009765625,-0.1840667724609375
-0.6319580078125,0.84112548828125,-0.146820068359375
-0.5438690185546875,0.846832275390625,-0.1585845947265625
-0.5077972412109375,0.7386474609375,-0.1950836181640625
-0.529022216796875,0.6448516845703125,-0.1932220458984375
-0.5567626953125,0.64825439453125,-0.1946868896484375
-0.5568389892578125,0.6799774169921875,-0.121734619140625
-0.5548858642578125,0.706878662109375,-0.0552215576171875
-0.5761566162109375,0.7955169677734375,-0.061248779296875
-0.59716796875,0.8950347900390625,-0.075164794921875
-0.590728759765625,0.892181396484375,-0.017364501953125
-0.5532684326171875,0.8379058837890625,-0.039794921875
-0.6666259765625,0.8974761962890625,-0.02569580078125
-0.6220245361328125,0.942169189453125,-0.0518341064453125
-0.59954833984375,0.6316070556640625,-0.087158203125
-0.6963043212890625,0.5892791748046875,0.0130615234375
-0.6748809814453125,0.7436370849609375,0.0316925048828125
-0.665557861328125,0.7747955322265625,-0.1045989990234375
-0.6526336669921875,0.6712188720703125,-0.1911163330078125
-0.663238525390625,0.63665771484375,-0.2218780517578125
-0.6226959228515625,0.66949462890625,-0.208587646484375
-0.563385009765625,0.65948486328125,-0.1547393798828125
-0.5722198486328125,0.6602935791015625,-0.1064910888671875
-0.6586761474609375,0.729888916015625,-0.0459747314453125
-0.7336883544921875,0.79168701171875,-0.0265960693359375
-0.8093414306640625,0.8321075439453125,-0.1663818359375
-0.8394012451171875,0.8681488037109375,-0.233123779296875
-0.8240509033203125,0.8707733154296875,-0.21673583984375
-0.862701416015625,0.988525390625,-0.2658843994140625
-0.82183837890625,0.9934844970703124,-0.328765869140625
-0.755340576171875,0.757415771484375,-0.29083251953125
-0.7567291259765625,0.78509521484375,-0.119232177734375
-0.629241943359375,0.8750762939453125,-0.118804931640625
-0.5230255126953125,0.874755859375,-0.1459808349609375
-0.493438720703125,0.7811431884765625,-0.115509033203125
-0.4887237548828125,0.77362060546875,-0.086151123046875
-0.4518585205078125,0.7427978515625,-0.07183837890625
-0.4224853515625,0.7350616455078125,-0.0083770751953125
-0.4095306396484375,0.7446746826171875,-0.0090484619140625
-0.41339111328125,0.770782470703125,-0.0446319580078125
-0.4565277099609375,0.859893798828125,0.013336181640625
-0.4422760009765625,0.9004974365234375,0.0227813720703125
-0.605560302734375,0.8853302001953125,-0.013641357421875
-0.6396636962890625,1.0931854248046875,0.0369415283203125
-0.466094970703125,0.909576416015625,-0.1465606689453125
-0.59716796875,0.7509613037109375,-0.0699310302734375
-0.6756439208984375,0.7900848388671875,0.10528564453125
-0.656524658203125,0.8144989013671875,0.1788787841796875
-0.62750244140625,0.7286529541015625,0.0145721435546875
-0.6181793212890625,0.6757354736328125,-0.0962982177734375
-0.6304931640625,0.6937103271484375,-0.0759735107421875
-0.6655426025390625,0.655914306640625,0.0026702880859375
-0.72723388671875,0.6503448486328125,0.043548583984375
-0.7852935791015625,0.724395751953125,0.021331787109375
-0.8679046630859375,0.84063720703125,-0.0290985107421875
-0.8990478515625,0.8656768798828125,-0.1023101806640625
-0.8585205078125,0.8454132080078125,-0.1904144287109375
-0.880706787109375,1.043670654296875,-0.1825103759765625
-0.780487060546875,1.06427001953125,-0.1040802001953125
-0.70556640625,0.80816650390625,-0.0233306884765625
-0.7789306640625,0.8791046142578125,-0.0991363525390625
-0.681396484375,0.9602813720703124,-0.0904388427734375
-0.5428314208984375,0.921478271484375,-0.07489013671875
-0.4828033447265625,0.83282470703125,-0.0411834716796875
-0.4463653564453125,0.8111419677734375,-0.030242919921875
-0.381561279296875,0.7918701171875,0.0008392333984375
-0.3321075439453125,0.723052978515625,0.0265960693359375
-0.3751220703125,0.6945648193359375,-0.0579986572265625
-0.44183349609375,0.7442779541015625,-0.0943756103515625
-0.4669647216796875,0.820892333984375,-0.0626678466796875
-0.4746856689453125,0.8074951171875,-0.075042724609375
-0.6799163818359375,0.944488525390625,-0.0352020263671875
-0.6337738037109375,1.046966552734375,-0.1106109619140625
-0.6093597412109375,0.84063720703125,-0.2745819091796875
-0.689605712890625,0.685882568359375,-0.2333526611328125
-0.7888946533203125,0.7466278076171875,-0.1270904541015625
-0.7652740478515625,0.7850799560546875,-0.06610107421875
-0.6769866943359375,0.6795806884765625,-0.0520782470703125
-0.6358184814453125,0.650146484375,-0.123443603515625
-0.6064300537109375,0.6654205322265625,-0.152435302734375
-0.6314239501953125,0.699493408203125,-0.12615966796875
-0.7092132568359375,0.70550537109375,-0.109893798828125
-0.7718048095703125,0.71038818359375,-0.0450439453125
-0.7917938232421875,0.7218780517578125,-0.0423583984375
-0.8370208740234375,0.790283203125,-0.0931854248046875
-0.8517913818359375,0.826324462890625,-0.1494293212890625
-0.78802490234375,0.8053741455078125,-0.1749114990234375
-0.79534912109375,0.9162445068359376,-0.1921539306640625
-0.766937255859375,0.9490966796875,-0.214447021484375
-0.7183685302734375,0.7952117919921875,-0.1607666015625
-0.69921875,0.7540130615234375,-0.2005462646484375
-0.6502838134765625,0.8305511474609375,-0.2836761474609375
-0.554168701171875,0.8591156005859375,-0.23785400390625
-0.484222412109375,0.7171173095703125,-0.1792144775390625
-0.4858551025390625,0.6468048095703125,-0.2061004638671875
-0.4717254638671875,0.6732940673828125,-0.2144927978515625
-0.492156982421875,0.7165985107421875,-0.139434814453125
-0.52545166015625,0.8111724853515625,-0.0912933349609375
-0.51239013671875,0.8616790771484375,-0.078826904296875
-0.5576324462890625,0.887176513671875,0.01025390625
-0.5342559814453125,0.8608245849609375,0.0511474609375
-0.5484466552734375,0.7493896484375,0.0081024169921875
-0.6287841796875,0.857666015625,0.0532684326171875
-0.5231170654296875,0.8175506591796875,0.0475921630859375
-0.5790252685546875,0.6884613037109375,-0.09368896484375
-0.68798828125,0.8134613037109375,-0.12860107421875
-0.71844482421875,0.870269775390625,-0.11492919921875
-0.682403564453125,0.7137603759765625,-0.118438720703125
-0.6967926025390625,0.5966949462890625,-0.11669921875
-0.691864013671875,0.6181640625,-0.1240234375
-0.6136474609375,0.683013916015625,-0.0726776123046875
-0.6094512939453125,0.6885223388671875,-0.0953369140625
-0.686370849609375,0.71697998046875,-0.099822998046875
-0.7512664794921875,0.74810791015625,-0.1096649169921875
-0.8154144287109375,0.7905120849609375,-0.114837646484375
-0.824737548828125,0.841766357421875,-0.1517181396484375
-0.8036346435546875,0.8610382080078125,-0.1963043212890625
-0.8356475830078125,1.054168701171875,-0.212677001953125
-0.763092041015625,1.027374267578125,-0.2494964599609375
-0.6891632080078125,0.751678466796875,-0.2230682373046875
-0.7212371826171875,0.8139190673828125,-0.1813507080078125
-0.6586456298828125,0.9598388671875,-0.18212890625
-0.5323944091796875,0.9124603271484376,-0.155609130859375
-0.515838623046875,0.793731689453125,-0.1222686767578125
-0.496337890625,0.7468719482421875,-0.15625
-0.4411468505859375,0.747161865234375,-0.12213134765625
-0.4149322509765625,0.7181396484375,-0.068572998046875
-0.3938751220703125,0.6982421875,0.0113067626953125
-0.4115447998046875,0.7502288818359375,0.0084991455078125
-0.4600372314453125,0.862518310546875,-0.0123138427734375
-0.5021820068359375,0.8517608642578125,-0.068389892578125
-0.65606689453125,0.8894805908203125,-0.0529632568359375
-0.732025146484375,1.0972137451171875,-0.0424041748046875
-0.641998291015625,0.881927490234375,-0.16815185546875
-0.710845947265625,0.695709228515625,-0.124847412109375
-0.7622528076171875,0.740631103515625,-0.0476531982421875
-0.742645263671875,0.8007965087890625,-0.0145721435546875
-0.67498779296875,0.7051239013671875,-0.122467041015625
-0.646087646484375,0.6218109130859375,-0.168609619140625
-0.613616943359375,0.6411590576171875,-0.1914215087890625
-0.5686492919921875,0.6698150634765625,-0.1005401611328125
-0.57452392578125,0.6737823486328125,-0.0736083984375
-0.618927001953125,0.6730194091796875,-0.054534912109375
-0.7354278564453125,0.76409912109375,-0.0771484375
-0.807952880859375,0.8462371826171875,-0.12725830078125
-0.8396759033203125,0.8049163818359375,-0.1616363525390625
-0.8957061767578125,0.8513946533203125,-0.195770263671875
-0.823822021484375,0.9508056640625,-0.2164306640625
-0.7017822265625,0.930206298828125,-0.190826416015625
-0.683349609375,0.8146514892578125,-0.206512451171875
-0.6979217529296875,0.89111328125,-0.2135772705078125
-0.662750244140625,0.9778900146484376,-0.1910552978515625
-0.537567138671875,0.89154052734375,-0.1915435791015625
-0.515777587890625,0.7662506103515625,-0.1833343505859375
-0.5193023681640625,0.7355499267578125,-0.175445556640625
-0.509552001953125,0.729339599609375,-0.105804443359375
-0.475433349609375,0.7225494384765625,-0.022857666015625
-0.40606689453125,0.71075439453125,0.0341644287109375
-0.3845977783203125,0.7283782958984375,0.04046630859375
-0.4226837158203125,0.7862091064453125,0.01202392578125
-0.464813232421875,0.8333282470703125,-0.005584716796875
-0.5707550048828125,0.800506591796875,-0.0269927978515625
-0.7013702392578125,1.000457763671875,0.0168304443359375
-0.69464111328125,0.9003753662109375,-0.08099365234375
-0.7473602294921875,0.792022705078125,-0.1011810302734375
-0.754974365234375,0.7004852294921875,-0.04840087890625
-0.821929931640625,0.7666015625,-0.06219482421875
-0.900543212890625,0.808685302734375,-0.1177215576171875
-0.8991851806640625,0.7331695556640625,-0.1625518798828125
-0.79827880859375,0.7161102294921875,-0.184234619140625
-0.7218170166015625,0.7274932861328125,-0.0915069580078125
-0.6870880126953125,0.6544647216796875,-0.0792083740234375
-0.676177978515625,0.680084228515625,-0.21990966796875
-0.6543121337890625,0.705291748046875,-0.1376495361328125
-0.698638916015625,0.6498260498046875,-0.034820556640625
-0.841339111328125,0.6262054443359375,0.061553955078125
-0.8195343017578125,0.6223297119140625,0.00396728515625
-0.7403717041015625,0.675750732421875,-0.0610198974609375
-0.6410369873046875,0.75830078125,-0.1317291259765625
-0.6298675537109375,0.79718017578125,-0.132904052734375
-0.6194305419921875,0.759857177734375,-0.0950927734375
-0.6079864501953125,0.74066162109375,-0.085418701171875
-0.5491943359375,0.772705078125,-0.1666107177734375
-0.584808349609375,0.802764892578125,-0.2529449462890625
-0.6432342529296875,0.726470947265625,-0.3446502685546875
-0.6354827880859375,0.7158966064453125,-0.410797119140625
-0.6268768310546875,0.71826171875,-0.4710235595703125
-0.6793975830078125,0.784149169921875,-0.4579620361328125
-0.71807861328125,0.8529815673828125,-0.4443817138671875
-0.69781494140625,0.869354248046875,-0.38037109375
-0.6869659423828125,0.84686279296875,-0.310455322265625
-0.6919097900390625,0.8310699462890625,-0.2140350341796875
-0.6432952880859375,0.79901123046875,-0.1409454345703125
-0.60284423828125,0.7829742431640625,-0.137054443359375
-0.5890960693359375,0.7942962646484375,-0.1587371826171875
-0.5756988525390625,0.7898406982421875,-0.2076416015625
-0.544403076171875,0.798736572265625,-0.203216552734375
-0.556182861328125,0.791656494140625,-0.1983184814453125
-0.5811004638671875,0.8317718505859375,-0.2170562744140625
-0.5987701416015625,0.8255615234375,-0.2140655517578125
-0.646575927734375,0.8456878662109375,-0.1802978515625
-0.5950469970703125,0.7420501708984375,-0.1083526611328125
-0.5034332275390625,0.686553955078125,-0.02978515625
-0.47137451171875,0.812744140625,-0.049224853515625
-0.4176025390625,0.82415771484375,-0.1347808837890625
-0.39422607421875,0.7990875244140625,0.00384521484375
-0.4584503173828125,0.7864990234375,-0.0232391357421875
-0.5735931396484375,0.8097381591796875,-0.057952880859375
-0.6028900146484375,0.7899322509765625,0.0652923583984375
-0.6255950927734375,0.7808685302734375,0.125946044921875
-0.6693878173828125,0.8105621337890625,0.0538177490234375
-0.703826904296875,0.8040313720703125,-0.0294952392578125
-0.75604248046875,0.81915283203125,-0.0484619140625
-0.81298828125,0.8653717041015625,-0.0929412841796875
-0.8296051025390625,0.832275390625,-0.0944061279296875
-0.884613037109375,0.8471221923828125,-0.0977020263671875
-0.8885650634765625,0.8350982666015625,-0.1766815185546875
-0.840972900390625,0.8115997314453125,-0.209136962890625
-0.76470947265625,0.6668853759765625,-0.1832427978515625
-0.7467193603515625,0.7511749267578125,-0.1889190673828125
-0.7164306640625,0.876922607421875,-0.14892578125
-0.63946533203125,0.8495635986328125,-0.1464080810546875
-0.612060546875,0.752899169921875,-0.2098846435546875
-0.593963623046875,0.746002197265625,-0.2332305908203125
-0.528839111328125,0.7505645751953125,-0.202880859375
-0.5032958984375,0.7628173828125,-0.1296844482421875
-0.4670867919921875,0.7664947509765625,-0.043548583984375
-0.44927978515625,0.75848388671875,-0.037506103515625
-0.5175933837890625,0.853302001953125,-0.027618408203125
-0.50018310546875,0.92401123046875,-0.018798828125
-0.533203125,0.8514404296875,-0.0218658447265625
-0.615020751953125,0.9784393310546876,0.0269622802734375
-0.5890350341796875,0.9078826904296876,-0.107879638671875
-0.57720947265625,0.680511474609375,-0.110748291015625
-0.6854705810546875,0.68304443359375,-0.02630615234375
-0.7406768798828125,0.79608154296875,-0.03375244140625
-0.6965484619140625,0.7754364013671875,-0.0994873046875
-0.6497039794921875,0.663421630859375,-0.1034698486328125
-0.62274169921875,0.650177001953125,-0.093780517578125
-0.5469970703125,0.6682586669921875,-0.0355072021484375
-0.5149383544921875,0.6673583984375,-0.023895263671875
-0.527252197265625,0.6796722412109375,-0.0144805908203125
-0.61236572265625,0.7631683349609375,0.0037994384765625
-0.7437896728515625,0.8201141357421875,-0.013458251953125
-0.8396759033203125,0.843658447265625,-0.067718505859375
-0.8617095947265625,0.79290771484375,-0.1172637939453125
-0.919097900390625,0.807281494140625,-0.112762451171875
-0.88702392578125,0.903564453125,-0.1055755615234375
-0.8001251220703125,0.80023193359375,-0.1234130859375
-0.760833740234375,0.7298583984375,-0.0980072021484375
-0.7711944580078125,0.87371826171875,-0.1249847412109375
-0.6992340087890625,0.9677886962890624,-0.2332305908203125
-0.6238555908203125,0.9058837890625,-0.2650146484375
-0.5891571044921875,0.7529296875,-0.1988983154296875
-0.5565643310546875,0.6875,-0.086212158203125
-0.4743499755859375,0.685821533203125,-0.0571441650390625
-0.382659912109375,0.6965484619140625,-0.0308380126953125
-0.35186767578125,0.7025604248046875,-0.0684051513671875
-0.3922271728515625,0.727874755859375,-0.0926971435546875
-0.458251953125,0.7576141357421875,-0.0108642578125
-0.4889373779296875,0.8420562744140625,-0.0071258544921875
-0.4818267822265625,0.8728485107421875,-0.09588623046875
-0.6484832763671875,1.022705078125,-0.096649169921875
-0.638153076171875,1.026031494140625,-0.1592559814453125
-0.6871337890625,0.9776611328125,-0.2364959716796875
-0.6924896240234375,0.772735595703125,-0.1665496826171875
-0.7766571044921875,0.64794921875,-0.05828857421875
-0.836395263671875,0.6939544677734375,-0.1082611083984375
-0.8185577392578125,0.7073822021484375,-0.12664794921875
-0.78607177734375,0.6980438232421875,-0.1078338623046875
-0.6947021484375,0.7061614990234375,-0.083953857421875
-0.673583984375,0.6682281494140625,0.041290283203125
-0.67401123046875,0.633453369140625,0.059661865234375
-0.703521728515625,0.68487548828125,0.0309295654296875
-0.718231201171875,0.773834228515625,0.035552978515625
-0.80780029296875,0.8749847412109375,-0.047119140625
-0.8920745849609375,0.8973846435546875,-0.017242431640625
-0.823638916015625,0.8540496826171875,0.021484375
-0.715545654296875,0.7936859130859375,0.0182647705078125
-0.7263336181640625,0.927764892578125,0.0223541259765625
-0.624481201171875,0.95001220703125,0.0477447509765625
-0.4981231689453125,0.663299560546875,0.04217529296875
-0.5781097412109375,0.6193389892578125,-0.069671630859375
-0.53558349609375,0.755035400390625,-0.101715087890625
-0.4555511474609375,0.801605224609375,-0.10308837890625
-0.5232391357421875,0.73309326171875,-0.02593994140625
-0.5312957763671875,0.684906005859375,-0.1161956787109375
-0.4852142333984375,0.65228271484375,-0.235107421875
-0.53143310546875,0.6833953857421875,-0.244537353515625
-0.566192626953125,0.7260589599609375,-0.09014892578125
-0.6257476806640625,0.7177276611328125,-0.0289306640625
-0.69879150390625,0.7667999267578125,-0.0215301513671875
-0.70538330078125,0.82196044921875,-0.090484619140625
-0.70654296875,0.8674468994140625,-0.1828460693359375
-0.7840118408203125,1.1050567626953125,-0.22357177734375
-0.7115325927734375,0.8955841064453125,-0.29217529296875
-0.735931396484375,0.571685791015625,-0.1549224853515625
-0.796173095703125,0.656585693359375,-0.1107025146484375
-0.7844696044921875,0.734375,-0.1322479248046875
-0.692626953125,0.6430206298828125,-0.1828765869140625
-0.654937744140625,0.603302001953125,-0.1941375732421875
-0.6503753662109375,0.6583251953125,-0.122833251953125
-0.62823486328125,0.6744842529296875,-0.0986328125
-0.654144287109375,0.6810302734375,-0.08282470703125
-0.7225799560546875,0.742523193359375,-0.1174468994140625
-0.77166748046875,0.8092498779296875,-0.0882415771484375
-0.7718963623046875,0.9053497314453124,-0.120208740234375
-0.72119140625,0.8929290771484375,-0.168487548828125
-0.709716796875,0.8933868408203125,-0.1699066162109375
-0.7319793701171875,1.042022705078125,-0.16094970703125
-0.6156158447265625,0.88165283203125,-0.1722564697265625
-0.7122955322265625,0.777618408203125,-0.0989227294921875
-0.6731719970703125,0.82623291015625,-0.132171630859375
-0.55645751953125,0.856781005859375,-0.18194580078125
-0.4400482177734375,0.7105560302734375,-0.1846771240234375
-0.4152679443359375,0.606292724609375,-0.11865234375
-0.394561767578125,0.6011199951171875,-0.1338958740234375
-0.4017791748046875,0.613067626953125,-0.089019775390625
-0.4362640380859375,0.6371002197265625,-0.0350494384765625
-0.516998291015625,0.7189788818359375,-0.0155487060546875
-0.6250152587890625,0.8082122802734375,-0.0152587890625
-0.6726837158203125,0.8982086181640625,-0.0251312255859375
-0.723724365234375,0.894195556640625,-0.07098388671875
-0.7492218017578125,1.066162109375,-0.131103515625
-0.7314910888671875,0.945587158203125,-0.198516845703125
-0.7332000732421875,0.6658782958984375,-0.0827789306640625
-0.7453460693359375,0.7134552001953125,-0.032470703125
-0.7112274169921875,0.787353515625,-0.0702056884765625
-0.626556396484375,0.6709136962890625,-0.1302337646484375
-0.5978546142578125,0.5827789306640625,-0.1303558349609375
-0.557342529296875,0.6256256103515625,-0.1098785400390625
-0.553924560546875,0.6306610107421875,-0.121917724609375
-0.696533203125,0.6072845458984375,-0.1078948974609375
-0.8603515625,0.60308837890625,-0.0602264404296875
-0.9325103759765624,0.7335205078125,0.001922607421875
-0.95709228515625,0.8315887451171875,-0.0886383056640625
-0.9447174072265624,0.822784423828125,-0.1365966796875
-0.9333953857421876,0.8498077392578125,-0.1597137451171875
-0.8827056884765625,1.008544921875,-0.1375732421875
-0.7835845947265625,1.03131103515625,-0.1204376220703125
-0.658294677734375,0.764801025390625,-0.1400604248046875
-0.6420745849609375,0.7351226806640625,-0.0799713134765625
-0.5666656494140625,0.8212432861328125,-0.08905029296875
-0.4032745361328125,0.8107147216796875,-0.11761474609375
-0.361236572265625,0.693450927734375,-0.111297607421875
-0.4358367919921875,0.6311798095703125,-0.0873565673828125
-0.421051025390625,0.6291961669921875,-0.0521697998046875
-0.412353515625,0.6096954345703125,-0.026824951171875
-0.423492431640625,0.61688232421875,0.0087127685546875
-0.466766357421875,0.7018585205078125,0.031494140625
-0.5339813232421875,0.8739471435546875,0.0121612548828125
-0.57794189453125,0.95074462890625,-0.0374755859375
-0.6958160400390625,0.9272613525390624,-0.07159423828125
-0.8685150146484375,1.24615478515625,-0.07080078125
-0.741607666015625,1.161346435546875,-0.2289581298828125
-0.7111968994140625,0.8146514892578125,-0.2851104736328125
-0.801300048828125,0.734527587890625,-0.203765869140625
-0.833953857421875,0.7391510009765625,-0.107757568359375
-0.76885986328125,0.6372528076171875,-0.0547637939453125
-0.66943359375,0.5620880126953125,-0.01751708984375
-0.5771484375,0.608154296875,-0.07562255859375
-0.551361083984375,0.6422271728515625,-0.0854339599609375
-0.6251220703125,0.649658203125,-0.0620574951171875
-0.75189208984375,0.717041015625,-0.0224151611328125
-0.8715057373046875,0.8415985107421875,-0.0520782470703125
-0.87322998046875,0.89508056640625,-0.144134521484375
-0.865234375,0.8636322021484375,-0.1382904052734375
-0.9050140380859376,0.9877777099609376,-0.0594024658203125
-0.8391571044921875,1.100982666015625,-0.074310302734375
-0.7539825439453125,0.8954010009765625,-0.084075927734375
-0.7992095947265625,0.921905517578125,-0.06024169921875
-0.7219085693359375,1.0045928955078125,-0.0442352294921875
-0.5404815673828125,0.9410400390625,-0.0061187744140625
-0.4350128173828125,0.7574005126953125,0.054229736328125
-0.43798828125,0.6601104736328125,0.009063720703125
-0.3978271484375,0.6437530517578125,-0.00494384765625
-0.3650360107421875,0.6251068115234375,0.0327911376953125
-0.4004669189453125,0.621063232421875,0.0492095947265625
-0.476531982421875,0.674774169921875,0.0004730224609375
-0.5471954345703125,0.7965850830078125,-0.0600433349609375
-0.536376953125,0.862091064453125,-0.10211181640625
-0.593109130859375,0.8415679931640625,-0.139251708984375
-0.75555419921875,0.9911956787109376,-0.12799072265625
-0.675567626953125,1.0405120849609375,-0.1171875
-0.6087646484375,0.866485595703125,-0.2297821044921875
-0.696929931640625,0.959503173828125,-0.2889251708984375
-0.7284088134765625,0.9629058837890624,-0.32684326171875
-0.7110443115234375,0.7244110107421875,-0.242431640625
-0.708984375,0.5653839111328125,-0.1631927490234375
-0.6446685791015625,0.5745697021484375,-0.0810089111328125
-0.60113525390625,0.64886474609375,-0.0517730712890625
-0.5264129638671875,0.638519287109375,-0.01629638671875
-0.644866943359375,0.6796112060546875,-0.1059417724609375
-0.8136138916015625,0.830108642578125,-0.137481689453125
-0.9089813232421876,0.9214019775390624,-0.1183013916015625
-0.9460906982421876,0.8517913818359375,-0.15740966796875
-1.0248260498046875,0.8696746826171875,-0.1753387451171875
-0.942352294921875,0.9896697998046876,-0.1200714111328125
-0.8076934814453125,0.9652252197265624,-0.1021728515625
-0.7428436279296875,0.8709869384765625,-0.1228790283203125
-0.6851959228515625,0.979705810546875,-0.1922149658203125
-0.5764617919921875,1.071197509765625,-0.2291412353515625
-0.451385498046875,0.932403564453125,-0.228851318359375
-0.4526519775390625,0.7929840087890625,-0.146453857421875
-0.412811279296875,0.7337646484375,-0.0987548828125
-0.3427581787109375,0.7176361083984375,-0.0646820068359375
-0.3110198974609375,0.686553955078125,-0.03173828125
-0.345062255859375,0.687103271484375,0.0315399169921875
-0.4289703369140625,0.7850799560546875,0.0207366943359375
-0.5151519775390625,0.8530120849609375,0.00738525390625
-0.5821685791015625,0.835968017578125,-0.0157470703125
-0.7403106689453125,1.0671234130859375,-0.0307464599609375
-0.6102142333984375,1.02685546875,-0.13189697265625
-0.6323699951171875,0.8118438720703125,-0.2061614990234375
-0.7328033447265625,0.733245849609375,-0.131072998046875
-0.726837158203125,0.843231201171875,-0.0836029052734375
-0.669586181640625,0.810150146484375,-0.12744140625
-0.6171417236328125,0.666351318359375,-0.1076202392578125
-0.579376220703125,0.6452178955078125,-0.0611724853515625
-0.5583038330078125,0.69720458984375,-0.0531005859375
-0.55548095703125,0.7074737548828125,-0.0817108154296875
-0.6134796142578125,0.70330810546875,-0.047515869140625
-0.6776123046875,0.715484619140625,-0.0333251953125
-0.78472900390625,0.7701263427734375,-0.079864501953125
-0.8321990966796875,0.832244873046875,-0.1051483154296875
-0.8186187744140625,0.7946319580078125,-0.100341796875
-0.8620452880859375,0.8875885009765625,-0.0971832275390625
-0.8302001953125,0.992431640625,-0.1315155029296875
-0.7736663818359375,0.892974853515625,-0.1521453857421875
-0.7533111572265625,0.724517822265625,-0.175384521484375
-0.7398529052734375,0.8160247802734375,-0.1755828857421875
-0.6614990234375,0.969451904296875,-0.1825103759765625
-0.530609130859375,0.926666259765625,-0.1770172119140625
-0.520477294921875,0.8088836669921875,-0.0826416015625
-0.579864501953125,0.75567626953125,-0.091033935546875
-0.557464599609375,0.745025634765625,-0.0729522705078125
-0.4431915283203125,0.7234039306640625,-0.0124664306640625
-0.481048583984375,0.68548583984375,-0.0283355712890625
-0.5101318359375,0.6964263916015625,-0.0749053955078125
-0.4751739501953125,0.680999755859375,-0.0503387451171875
-0.541717529296875,0.6644287109375,-0.0327301025390625
-0.6823883056640625,0.755218505859375,-0.015869140625
-0.79443359375,0.87054443359375,0.08026123046875
-0.7366790771484375,0.7368621826171875,0.0265655517578125
-0.844879150390625,0.5613555908203125,-0.0587158203125
-0.9202880859375,0.6431121826171875,-0.1417999267578125
-0.964874267578125,0.773468017578125,-0.141845703125
-0.9097747802734376,0.7558135986328125,-0.092620849609375
-0.7920684814453125,0.69305419921875,-0.1573028564453125
-0.6757354736328125,0.672393798828125,-0.2139892578125
-0.5902862548828125,0.64019775390625,-0.227935791015625
-0.5951080322265625,0.6340789794921875,-0.229522705078125
-0.612823486328125,0.6309967041015625,-0.241455078125
-0.6700286865234375,0.7250518798828125,-0.2463531494140625
-0.665924072265625,0.79827880859375,-0.2910308837890625
-0.62652587890625,0.78228759765625,-0.339813232421875
-0.5981903076171875,0.8308258056640625,-0.3385467529296875
-0.561126708984375,0.878570556640625,-0.30780029296875
-0.538909912109375,0.84124755859375,-0.2349395751953125
-0.5337066650390625,0.7826385498046875,-0.2317352294921875
-0.5114593505859375,0.7444305419921875,-0.2466888427734375
-0.4856719970703125,0.7561187744140625,-0.2798614501953125
-0.4583740234375,0.7774200439453125,-0.3875885009765625
-0.4544525146484375,0.793792724609375,-0.4049072265625
-0.5039825439453125,0.8060150146484375,-0.35223388671875
-0.56622314453125,0.8279266357421875,-0.3923797607421875
-0.643707275390625,0.8583984375,-0.3739776611328125
-0.698577880859375,0.8333740234375,-0.29583740234375
-0.7532196044921875,0.7844085693359375,-0.2082977294921875
-0.750732421875,0.754241943359375,-0.2125396728515625
-0.70257568359375,0.7738037109375,-0.218353271484375
-0.6237030029296875,0.81060791015625,-0.27655029296875
-0.547119140625,0.855438232421875,-0.272552490234375
-0.512420654296875,0.863861083984375,-0.24749755859375
-0.541656494140625,0.8725738525390625,-0.259124755859375
-0.5707550048828125,0.9043731689453124,-0.20294189453125
-0.5463104248046875,0.9266357421875,-0.2517547607421875
-0.5397796630859375,0.8480987548828125,-0.2398834228515625
-0.52618408203125,0.7286529541015625,-0.1894989013671875
-0.5181427001953125,0.7307586669921875,-0.2294769287109375
-0.494781494140625,0.779571533203125,-0.1796875
-0.4975738525390625,0.8366851806640625,-0.0813140869140625
-0.4626312255859375,0.796539306640625,-0.086883544921875
-0.48382568359375,0.7340240478515625,-0.180755615234375
-0.5215606689453125,0.7239837646484375,-0.1728973388671875
-0.5628509521484375,0.74554443359375,-0.12457275390625
-0.5809478759765625,0.7244873046875,-0.1644134521484375
-0.59490966796875,0.7189178466796875,-0.201995849609375
-0.6233673095703125,0.726409912109375,-0.23492431640625
-0.68243408203125,0.716064453125,-0.2930755615234375
-0.7456817626953125,0.725250244140625,-0.41815185546875
-0.8168182373046875,0.8094024658203125,-0.53985595703125
-0.8339996337890625,0.719512939453125,-0.4110107421875
-0.7898101806640625,0.6814117431640625,-0.380950927734375
-0.7013702392578125,0.680633544921875,-0.4549713134765625
-0.69073486328125,0.74127197265625,-0.471435546875
-0.636627197265625,0.8265228271484375,-0.459136962890625
-0.5591278076171875,0.760650634765625,-0.4997406005859375
-0.6143341064453125,0.7342987060546875,-0.4318389892578125
-0.6387481689453125,0.8350982666015625,-0.355621337890625
-0.6053619384765625,0.8798980712890625,-0.353729248046875
-0.5617523193359375,0.788604736328125,-0.3986053466796875
-0.56561279296875,0.7244720458984375,-0.329620361328125
-0.5477752685546875,0.7480621337890625,-0.2414093017578125
-0.4930572509765625,0.80743408203125,-0.179901123046875
-0.384307861328125,0.7774505615234375,-0.166107177734375
-0.345733642578125,0.7358245849609375,-0.1769256591796875
-0.4278717041015625,0.8074798583984375,-0.162506103515625
-0.429443359375,0.914306640625,-0.150634765625
-0.4536285400390625,0.8690185546875,-0.20806884765625
-0.5667877197265625,0.89202880859375,-0.211639404296875
-0.5873565673828125,1.057373046875,-0.1746063232421875
-0.5407257080078125,0.908935546875,-0.256011962890625
-0.569671630859375,0.6788482666015625,-0.2462005615234375
-0.635711669921875,0.69439697265625,-0.2475433349609375
-0.6890869140625,0.800872802734375,-0.24029541015625
-0.6497650146484375,0.748748779296875,-0.1872711181640625
-0.5931396484375,0.67864990234375,-0.2246856689453125
-0.561065673828125,0.6892852783203125,-0.2877960205078125
-0.558868408203125,0.678802490234375,-0.2046356201171875
-0.6318359375,0.671173095703125,-0.1685638427734375
-0.70892333984375,0.6949310302734375,-0.1873321533203125
-0.7536163330078125,0.7460174560546875,-0.23828125
-0.793243408203125,0.82965087890625,-0.2679443359375
-0.7616119384765625,0.848541259765625,-0.290924072265625
-0.7416229248046875,0.845947265625,-0.267181396484375
-0.7739715576171875,0.9982757568359376,-0.2695159912109375
-0.7208404541015625,1.0147552490234375,-0.2654876708984375
-0.6550750732421875,0.7848663330078125,-0.2741241455078125
-0.66485595703125,0.751220703125,-0.269989013671875
-0.628082275390625,0.858978271484375,-0.1983489990234375
-0.50799560546875,0.9011688232421876,-0.1777191162109375
-0.45770263671875,0.804107666015625,-0.2264556884765625
-0.4853515625,0.7512359619140625,-0.2747344970703125
-0.473785400390625,0.74005126953125,-0.24334716796875
-0.4584503173828125,0.697265625,-0.1507415771484375
-0.446319580078125,0.6885528564453125,-0.1188812255859375
-0.4720458984375,0.734283447265625,-0.1042022705078125
-0.474517822265625,0.7751007080078125,-0.0947113037109375
-0.4691619873046875,0.7729949951171875,-0.09454345703125
-0.453369140625,0.760894775390625,-0.144775390625
-0.53411865234375,0.7418365478515625,-0.112213134765625
-0.564453125,0.9494781494140624,-0.0700225830078125
-0.50701904296875,0.932891845703125,-0.149810791015625
-0.62261962890625,0.7651214599609375,-0.17156982421875
-0.7302703857421875,0.8704071044921875,-0.2491455078125
-0.80194091796875,0.892852783203125,-0.334442138671875
-0.834747314453125,0.781951904296875,-0.3665008544921875
-0.78143310546875,0.7016143798828125,-0.374359130859375
-0.6837615966796875,0.7404937744140625,-0.3426971435546875
-0.584228515625,0.7747650146484375,-0.2462310791015625
-0.538330078125,0.775909423828125,-0.2133331298828125
-0.537261962890625,0.7599334716796875,-0.158203125
-0.5926666259765625,0.7644805908203125,-0.1953277587890625
-0.623687744140625,0.8169403076171875,-0.2409515380859375
-0.6445159912109375,0.9010009765625,-0.251495361328125
-0.66650390625,0.888397216796875,-0.2796173095703125
-0.7425994873046875,1.022216796875,-0.304168701171875
-0.710357666015625,1.1566619873046875,-0.4027862548828125
-0.6413116455078125,1.03106689453125,-0.4075775146484375
-0.603912353515625,0.9727325439453124,-0.2808837890625
-0.4891204833984375,0.950531005859375,-0.31781005859375
-0.35931396484375,0.904571533203125,-0.31500244140625
-0.2915496826171875,0.8180389404296875,-0.2427520751953125
-0.2795867919921875,0.7674713134765625,-0.23626708984375
-0.2757110595703125,0.7757720947265625,-0.27093505859375
-0.31268310546875,0.754425048828125,-0.2071990966796875
-0.35260009765625,0.70196533203125,-0.1202392578125
-0.424224853515625,0.745147705078125,-0.082977294921875
-0.4976043701171875,0.906402587890625,-0.137939453125
-0.4978790283203125,0.982421875,-0.2162933349609375
-0.5446624755859375,0.88018798828125,-0.2335968017578125
-0.6605224609375,0.8712005615234375,-0.158966064453125
-0.6492156982421875,1.0129547119140625,-0.06573486328125
-0.4124908447265625,0.904449462890625,-0.190704345703125
-0.5030517578125,0.8377685546875,-0.3214569091796875
-0.623992919921875,0.8033294677734375,-0.2314605712890625
-0.650543212890625,0.7371826171875,-0.1203765869140625
-0.6261749267578125,0.6489715576171875,-0.1672821044921875
-0.591400146484375,0.656982421875,-0.166259765625
-0.530487060546875,0.7392578125,-0.213623046875
-0.5289764404296875,0.7391357421875,-0.225250244140625
-0.57879638671875,0.700714111328125,-0.1839599609375
-0.6575927734375,0.73907470703125,-0.169677734375
-0.72900390625,0.8248291015625,-0.1819915771484375
-0.758758544921875,0.8964385986328125,-0.2133331298828125
-0.7772064208984375,0.881561279296875,-0.2289886474609375
-0.7552490234375,0.9167633056640624,-0.2391815185546875
-0.6965179443359375,1.0330810546875,-0.2893218994140625
-0.6334381103515625,1.017059326171875,-0.2526397705078125
-0.6679534912109375,0.8646087646484375,-0.17431640625
-0.713531494140625,0.9068450927734376,-0.2016143798828125
-0.6460723876953125,1.0097198486328125,-0.2537689208984375
-0.5247802734375,0.9272613525390624,-0.220855712890625
-0.480621337890625,0.830108642578125,-0.1590118408203125
-0.433746337890625,0.7994842529296875,-0.1854705810546875
-0.375030517578125,0.7414093017578125,-0.1171112060546875
-0.3192138671875,0.6642303466796875,0.0612945556640625
-0.3383026123046875,0.631622314453125,0.060150146484375
-0.3366546630859375,0.723663330078125,-0.04962158203125
-0.332794189453125,0.820465087890625,-0.1884765625
-0.3537750244140625,0.881988525390625,-0.2024078369140625
-0.5674285888671875,0.9071197509765624,-0.32049560546875
-0.670928955078125,1.22882080078125,-0.1761932373046875
-0.5265960693359375,1.1519622802734375,-0.4664306640625
-0.6116485595703125,0.981903076171875,-0.4974822998046875
-0.6686248779296875,0.8111724853515625,-0.36627197265625
-0.66217041015625,0.82110595703125,-0.3356781005859375
-0.7267913818359375,0.789794921875,-0.206207275390625
-0.678466796875,0.727081298828125,-0.0938873291015625
-0.5899505615234375,0.7217559814453125,-0.09100341796875
-0.5419921875,0.7186431884765625,-0.06201171875
-0.60235595703125,0.70196533203125,0.0187225341796875
-0.60467529296875,0.72711181640625,0.0594940185546875
-0.6580047607421875,0.7399749755859375,0.0557861328125
-0.748626708984375,0.777862548828125,0.092620849609375
-0.8202667236328125,0.7670440673828125,0.137542724609375
-0.8035888671875,0.7684783935546875,0.0976409912109375
-0.8591766357421875,0.7568511962890625,0.01361083984375
-0.917266845703125,0.804290771484375,0.131744384765625
-0.9128875732421876,0.8218841552734375,0.126861572265625
-0.9067230224609376,0.643280029296875,0.045623779296875
-0.863433837890625,0.68939208984375,-0.0043182373046875
-0.8185882568359375,0.8549957275390625,0.0700836181640625
-0.714996337890625,1.0200958251953125,0.051910400390625
-0.545501708984375,0.930877685546875,-0.0083160400390625
-0.5664520263671875,0.867401123046875,-0.0938873291015625
-0.50982666015625,0.791839599609375,-0.102325439453125
-0.4456787109375,0.7591552734375,0.0170135498046875
-0.4054412841796875,0.689056396484375,0.0236968994140625
-0.364227294921875,0.701751708984375,-0.002716064453125
-0.331512451171875,0.7339324951171875,-0.0119171142578125
-0.4462890625,0.809783935546875,0.033966064453125
-0.5088043212890625,0.8951263427734375,0.0363006591796875
-0.59326171875,0.954315185546875,-0.01287841796875
-0.6773681640625,1.1861114501953125,-0.046783447265625
-0.5952301025390625,0.974822998046875,-0.1755523681640625
-0.5988616943359375,0.8218231201171875,-0.201812744140625
-0.7487335205078125,0.7949066162109375,-0.12164306640625
-0.864105224609375,0.8141632080078125,-0.0873260498046875
-0.81671142578125,0.7254791259765625,-0.1817169189453125
-0.731170654296875,0.6339569091796875,-0.2421875
-0.622650146484375,0.65765380859375,-0.185699462890625
-0.5849151611328125,0.6814422607421875,-0.1002197265625
-0.5606536865234375,0.6542205810546875,0.0166473388671875
-0.5434722900390625,0.674102783203125,0.001312255859375
-0.6225128173828125,0.7159271240234375,-0.0817718505859375
-0.734649658203125,0.7544403076171875,-0.111572265625
-0.7962799072265625,0.83599853515625,-0.1333465576171875
-0.8227691650390625,0.851226806640625,-0.153778076171875
-0.8492431640625,0.9618072509765624,-0.1783905029296875
-0.7910919189453125,1.0696258544921875,-0.183380126953125
-0.684234619140625,0.8752593994140625,-0.1892547607421875
-0.8097686767578125,0.753387451171875,-0.138336181640625
-0.769989013671875,0.8940582275390625,-0.1335296630859375
-0.5931854248046875,0.97869873046875,-0.1750640869140625
-0.4620513916015625,0.801666259765625,-0.136566162109375
-0.465301513671875,0.7001953125,-0.1386566162109375
-0.4173431396484375,0.6763153076171875,-0.1075286865234375
-0.38055419921875,0.644500732421875,-0.077850341796875
-0.3498992919921875,0.6133575439453125,-0.0123443603515625
-0.402679443359375,0.6347808837890625,0.024871826171875
-0.4680938720703125,0.712066650390625,-0.0399017333984375
-0.523345947265625,0.83013916015625,-0.048736572265625
-0.536651611328125,0.854156494140625,-0.0526123046875
-0.7667694091796875,1.0091552734375,-0.0567779541015625
-0.791107177734375,1.1387481689453125,-0.1294708251953125
-0.6641693115234375,0.8712005615234375,-0.2212371826171875
-0.778656005859375,0.6807403564453125,-0.1548309326171875
-0.8862762451171875,0.7586822509765625,-0.1053009033203125
-0.9001312255859375,0.7970428466796875,-0.1292877197265625
-0.7969970703125,0.7147674560546875,-0.160186767578125
-0.7244415283203125,0.6640167236328125,-0.1943359375
-0.630401611328125,0.6827239990234375,-0.134552001953125
-0.6033172607421875,0.67315673828125,-0.1100311279296875
-0.61676025390625,0.684051513671875,-0.1001129150390625
-0.650054931640625,0.6984100341796875,-0.07232666015625
-0.704345703125,0.7398529052734375,-0.0874786376953125
-0.734893798828125,0.8006591796875,-0.134002685546875
-0.7052764892578125,0.786285400390625,-0.157073974609375
-0.69573974609375,0.8445587158203125,-0.175872802734375
-0.683807373046875,1.1011199951171875,-0.20880126953125
-0.6011199951171875,1.051422119140625,-0.286346435546875
-0.5750885009765625,0.7361297607421875,-0.28106689453125
-0.6535797119140625,0.6424560546875,-0.201934814453125
-0.6277313232421875,0.7881622314453125,-0.1617279052734375
-0.5035400390625,0.8530731201171875,-0.1924591064453125
-0.4874420166015625,0.742431640625,-0.2445526123046875
-0.561187744140625,0.6866607666015625,-0.236236572265625
-0.5616302490234375,0.7162933349609375,-0.2212371826171875
-0.5293731689453125,0.7480010986328125,-0.157135009765625
-0.492279052734375,0.7749481201171875,-0.1386260986328125
-0.49127197265625,0.80426025390625,-0.1365203857421875
-0.5302276611328125,0.8409271240234375,-0.09661865234375
-0.568572998046875,0.848175048828125,-0.050262451171875
-0.640106201171875,0.964691162109375,-0.00701904296875
-0.601104736328125,0.9511566162109376,-0.040924072265625
-0.598968505859375,0.670135498046875,-0.1521453857421875
-0.6624298095703125,0.5132293701171875,-0.04998779296875
-0.682708740234375,0.6113739013671875,0.0536346435546875
-0.7422637939453125,0.8821258544921875,-0.0526123046875
-0.7160797119140625,0.83282470703125,-0.212005615234375
-0.73724365234375,0.7435150146484375,-0.29168701171875
-0.7276611328125,0.680755615234375,-0.3476715087890625
-0.7039947509765625,0.6282501220703125,-0.23272705078125
-0.7063446044921875,0.6169586181640625,-0.116729736328125
-0.685028076171875,0.654876708984375,-0.0907135009765625
-0.662109375,0.7002410888671875,-0.1929168701171875
-0.692535400390625,0.7641754150390625,-0.2366485595703125
-0.70159912109375,0.8053131103515625,-0.2044525146484375
-0.729949951171875,0.9270477294921876,-0.199951171875
-0.6863861083984375,1.0145263671875,-0.197906494140625
-0.609283447265625,0.933624267578125,-0.247344970703125
-0.5871734619140625,0.836700439453125,-0.22479248046875
-0.56866455078125,0.884063720703125,-0.14666748046875
-0.4542999267578125,0.9723358154296876,-0.1579437255859375
-0.338104248046875,0.8726654052734375,-0.196502685546875
-0.3511962890625,0.764617919921875,-0.1204071044921875
-0.3525543212890625,0.7042694091796875,-0.0631256103515625
-0.305633544921875,0.656463623046875,-0.041015625
-0.31341552734375,0.60321044921875,-0.003875732421875
-0.322540283203125,0.62652587890625,-0.000946044921875
-0.324249267578125,0.6310272216796875,-0.0034637451171875
-0.3525238037109375,0.5649871826171875,0.021942138671875
-0.374786376953125,0.555450439453125,-0.0501861572265625
-0.4482574462890625,0.570465087890625,-0.083221435546875
-0.803466796875,1.0250091552734375,-0.017364501953125
-0.9024505615234376,1.4605865478515625,-0.2641143798828125
-1.396514892578125,1.578216552734375,-0.280364990234375
-1.27960205078125,1.2827606201171875,-0.4565887451171875
-1.158416748046875,0.5795135498046875,-0.2649993896484375
-0.8896026611328125,0.5242156982421875,-0.010101318359375
-0.645263671875,0.6507110595703125,0.113922119140625
-0.543060302734375,0.6861724853515625,0.09112548828125
-0.558746337890625,0.6377716064453125,-0.04364013671875
-0.517913818359375,0.6374664306640625,-0.158538818359375
-0.4504547119140625,0.6871185302734375,-0.2528839111328125
-0.40484619140625,0.7161407470703125,-0.22705078125
-0.3584442138671875,0.701385498046875,-0.0811767578125
-0.3639068603515625,0.6969451904296875,-0.031768798828125
-0.44854736328125,0.7957916259765625,0.0162506103515625
-0.5274658203125,1.183013916015625,-0.035064697265625
-0.503936767578125,1.351776123046875,-0.11138916015625
-0.7681884765625,1.5525970458984375,-0.031585693359375
-0.5665435791015625,1.269378662109375,-0.0259552001953125
-0.5914154052734375,0.8785552978515625,-0.15338134765625
-0.6020965576171875,0.754241943359375,-0.193328857421875
-0.51068115234375,0.7393646240234375,-0.1107025146484375
-0.51361083984375,0.6778564453125,-0.0389862060546875
-0.5383758544921875,0.5335540771484375,0.0297088623046875
-0.5797882080078125,0.454254150390625,0.01580810546875
-0.56842041015625,0.46978759765625,-0.04302978515625
-0.494781494140625,0.5071868896484375,-0.081817626953125
-0.5783233642578125,0.6612701416015625,-0.2196044921875
-0.867919921875,1.2422637939453125,-0.26837158203125
-0.9279937744140624,1.2719879150390625,-0.2960205078125
-1.1618194580078125,1.4269866943359375,-0.3309326171875
-1.0905303955078125,1.3170928955078125,-0.3949127197265625
-0.8906097412109375,0.9827728271484376,-0.1664581298828125
-0.767669677734375,0.8218841552734375,0.009002685546875
-0.65203857421875,0.7649688720703125,0.144927978515625
-0.4972686767578125,0.7367401123046875,0.1770172119140625
-0.335205078125,0.6547393798828125,0.097625732421875
-0.28167724609375,0.55218505859375,-0.01495361328125
-0.2235870361328125,0.5194091796875,-0.0084075927734375
-0.22808837890625,0.5226898193359375,0.0044708251953125
-0.321258544921875,0.6399383544921875,0.03155517578125
-0.485321044921875,1.130523681640625,0.00567626953125
-0.483856201171875,1.2702789306640625,-0.106781005859375
-0.9990234375,1.3592987060546875,-0.1945648193359375
-0.876953125,1.36163330078125,-0.13885498046875
-0.74896240234375,1.0164947509765625,-0.2277374267578125
-0.73309326171875,0.7515411376953125,-0.19232177734375
-0.621826171875,0.6333160400390625,-0.0822296142578125
-0.6129302978515625,0.587249755859375,-0.01177978515625
-0.6597747802734375,0.54693603515625,0.0955657958984375
-0.683502197265625,0.532867431640625,0.158477783203125
-0.672882080078125,0.490020751953125,-0.0349884033203125
-0.653533935546875,0.5512847900390625,-0.1995697021484375
-0.6845245361328125,0.6648406982421875,-0.3491363525390625
-0.8012542724609375,1.1480865478515625,-0.2839202880859375
-0.763671875,1.2550811767578125,-0.1688995361328125
-1.0543670654296875,1.3001251220703125,-0.2353668212890625
-1.083404541015625,1.112060546875,-0.28460693359375
-1.0063323974609375,1.0049896240234375,-0.0885162353515625
-0.7912139892578125,0.9410552978515624,0.0317230224609375
-0.6462860107421875,0.8847808837890625,0.0081939697265625
-0.5411529541015625,0.833892822265625,-0.0118255615234375
-0.4067535400390625,0.7555389404296875,0.0024871826171875
-0.3376617431640625,0.6566162109375,0.027252197265625
-0.272735595703125,0.6273345947265625,0.04754638671875
-0.2154693603515625,0.593109130859375,0.0189361572265625
-0.2319793701171875,0.6070098876953125,0.0540771484375
-0.324310302734375,0.8150787353515625,0.1165618896484375
-0.37823486328125,1.0217132568359375,0.018798828125
-0.6287841796875,1.095062255859375,-0.103790283203125
-0.865325927734375,1.4596710205078125,-0.0742340087890625
-0.6730499267578125,1.4863739013671875,-0.1033782958984375
-0.8996429443359375,1.0330963134765625,-0.1563262939453125
-0.912628173828125,0.730377197265625,-0.09564208984375
-0.7298126220703125,0.684356689453125,-0.0700531005859375
-0.6386566162109375,0.656219482421875,-0.0291900634765625
-0.66705322265625,0.6350860595703125,0.0835418701171875
-0.6453399658203125,0.6668853759765625,0.055450439453125
-0.62762451171875,0.702911376953125,-0.1445770263671875
-0.6502532958984375,0.601318359375,-0.23583984375
-0.7580108642578125,0.63330078125,-0.2938385009765625
-0.899200439453125,1.03472900390625,-0.349151611328125
-0.80255126953125,1.1750640869140625,-0.3156280517578125
-0.8755645751953125,1.1945953369140625,-0.3208770751953125
-0.895660400390625,1.5782318115234375,-0.34075927734375
-0.588409423828125,1.005950927734375,-0.2516326904296875
-0.60198974609375,0.7848358154296875,-0.0948944091796875
-0.456207275390625,0.8274078369140625,-0.0631866455078125
-0.3056182861328125,0.8789215087890625,-0.1168670654296875
-0.2367095947265625,0.8618621826171875,-0.201324462890625
-0.2865142822265625,0.752960205078125,-0.194610595703125
-0.3646087646484375,0.6820068359375,-0.0854339599609375
-0.3893890380859375,0.6849365234375,-0.1753082275390625
-0.3948211669921875,0.6868438720703125,-0.2781524658203125
-0.5835723876953125,0.9733734130859376,-0.2841339111328125
-0.7026214599609375,1.2473297119140625,-0.351806640625
-0.9765167236328124,1.1855316162109375,-0.38446044921875
-0.96875,1.3857574462890625,-0.3262786865234375
-0.7509613037109375,0.982177734375,-0.3125457763671875
-0.75872802734375,0.59649658203125,-0.3053741455078125
-0.6325836181640625,0.4940643310546875,-0.1431884765625
-0.48785400390625,0.4750213623046875,-0.04400634765625
-0.435302734375,0.5109405517578125,0.03973388671875
-0.3974151611328125,0.6278533935546875,0.1517333984375
-0.343597412109375,0.79095458984375,0.126312255859375
-0.3563079833984375,0.9389495849609376,0.170806884765625
-0.4411468505859375,1.079681396484375,0.2973175048828125
-0.6246185302734375,1.2799072265625,0.267608642578125
-0.65716552734375,1.2472381591796875,-0.0304412841796875
-0.6786041259765625,1.0640411376953125,-0.0309906005859375
-0.715240478515625,0.8791046142578125,0.1724090576171875
-0.747589111328125,0.8383636474609375,0.1080322265625
-0.7476654052734375,0.9364471435546876,-0.1267242431640625
-0.6763153076171875,0.8972015380859375,-0.247314453125
-0.6536865234375,0.8000335693359375,-0.27581787109375
-0.619842529296875,0.758270263671875,-0.22607421875
-0.573455810546875,0.7407073974609375,-0.0885009765625
-0.570892333984375,0.709625244140625,-0.050750732421875
-0.603485107421875,0.723388671875,-0.0550537109375
-0.6193389892578125,0.732940673828125,-0.0659942626953125
-0.618408203125,0.720855712890625,-0.0576629638671875
-0.6259002685546875,0.7532806396484375,-0.0173187255859375
-0.5658416748046875,0.8524932861328125,-0.00762939453125
-0.4455413818359375,0.910491943359375,-0.0632476806640625
-0.3853607177734375,0.7356719970703125,-0.0004730224609375
-0.41876220703125,0.6557464599609375,0.11566162109375
-0.367889404296875,0.741546630859375,0.123504638671875
-0.425689697265625,1.1315155029296875,0.0649566650390625
-0.2760009765625,1.4367828369140625,-0.069091796875
-0.4163055419921875,1.321685791015625,-0.2598724365234375
-0.595489501953125,1.3752593994140625,-0.13433837890625
-0.438507080078125,1.2230987548828125,-0.153289794921875
-0.48626708984375,1.0187835693359375,-0.176116943359375
-0.548370361328125,0.8941650390625,-0.0498504638671875
-0.5260772705078125,0.8031158447265625,0.1029205322265625
-0.5271453857421875,0.734649658203125,0.1457977294921875
-0.5699920654296875,0.70556640625,0.1798095703125
-0.624176025390625,0.73681640625,0.212982177734375
-0.612640380859375,0.7366180419921875,0.1146087646484375
-0.6126861572265625,0.7197265625,-0.064849853515625
-0.5739288330078125,0.6950531005859375,-0.1886444091796875
-0.52203369140625,0.6634674072265625,-0.16436767578125
-0.56256103515625,0.7437744140625,-0.0947113037109375
-0.709503173828125,1.070526123046875,-0.0314483642578125
-0.75164794921875,1.2806854248046875,0.087921142578125
-0.807403564453125,1.4437408447265625,0.1189727783203125
-0.5970001220703125,1.267547607421875,-0.153656005859375
-0.7088165283203125,0.910614013671875,-0.025604248046875
-0.5996246337890625,0.7947845458984375,0.27508544921875
-0.39154052734375,0.7046661376953125,0.198028564453125
-0.338836669921875,0.6312408447265625,0.018341064453125
-0.3002471923828125,0.6227569580078125,0.0048675537109375
-0.29364013671875,0.6935577392578125,0.072967529296875
-0.222381591796875,0.7047271728515625,0.013031005859375
-0.2520599365234375,0.59771728515625,0.0135498046875
-0.322540283203125,0.4221343994140625,0.0360870361328125
-0.4122314453125,0.3943939208984375,0.0709228515625
-0.401123046875,0.507110595703125,0.0995941162109375
-0.393951416015625,0.714691162109375,0.030670166015625
-0.4946746826171875,0.796173095703125,-0.05364990234375
-0.6622467041015625,0.8578643798828125,-0.213775634765625
-0.7181854248046875,0.9233551025390624,-0.2304229736328125
-0.7910003662109375,0.8618316650390625,-0.262939453125
-0.90155029296875,0.8410491943359375,-0.3411712646484375
-0.8717803955078125,0.8016815185546875,-0.458221435546875
-0.8788604736328125,0.786834716796875,-0.5111846923828125
-0.7877960205078125,0.7255401611328125,-0.6688079833984375
-0.86328125,0.666748046875,-0.6611175537109375
-0.801544189453125,0.669586181640625,-0.554351806640625
-0.69012451171875,0.5557708740234375,-0.6045379638671875
-0.6323089599609375,0.558624267578125,-0.7365570068359375
-0.6796417236328125,0.542755126953125,-0.6734619140625
-0.7805023193359375,0.5824737548828125,-0.7069549560546875
-0.8249053955078125,0.6221160888671875,-0.8302154541015625
-0.814697265625,0.661102294921875,-1.053802490234375
-0.789306640625,0.6676788330078125,-1.08074951171875
-0.632843017578125,0.6384429931640625,-1.0664520263671875
-0.4950714111328125,0.5460968017578125,-0.9459991455078124
-0.3954010009765625,0.4919891357421875,-1.122955322265625
-0.4093475341796875,0.40667724609375,-1.029754638671875
-0.3560638427734375,0.435821533203125,-1.0140533447265625
-0.3459014892578125,0.33367919921875,-0.9404144287109376
-0.158172607421875,0.22210693359375,-0.927276611328125
-0.18048095703125,0.1153564453125,-0.7648773193359375
-0.06597900390625,0.0506744384765625,-0.637481689453125
-0.088470458984375,-0.0736236572265625,-0.66461181640625
-0.0530548095703125,-0.0496063232421875,-0.757843017578125
-0.0394134521484375,-0.1360015869140625,-0.6052703857421875
-0.0784454345703125,-0.2302093505859375,-0.538330078125
-0.0830535888671875,-0.3083038330078125,-0.679962158203125
-0.064727783203125,-0.3258514404296875,-0.6804351806640625
-0.018035888671875,-0.3376312255859375,-0.68621826171875
0.0128326416015625,-0.345489501953125,-0.823974609375
0.0396881103515625,-0.30426025390625,-0.9685821533203124
0.0247955322265625,-0.2981414794921875,-0.968475341796875
0.04583740234375,-0.2901458740234375,-0.9879302978515624
0.080535888671875,-0.286285400390625,-1.0184478759765625
0.01934814453125,-0.2824554443359375,-0.99908447265625
-0.0032196044921875,-0.28643798828125,-0.9506072998046876
0.021636962890625,-0.261444091796875,-0.9839630126953124
-0.0034332275390625,-0.2554779052734375,-1.0263824462890625
