AccelerationX,AccelerationY,AccelerationZ
-0.2369384765625,0.7184906005859375,-0.618377685546875
-0.2628631591796875,0.7196044921875,-0.596466064453125
-0.2676239013671875,0.71337890625,-0.61572265625
-0.2718353271484375,0.7329559326171875,-0.624176025390625
-0.26129150390625,0.737335205078125,-0.6270294189453125
-0.261566162109375,0.723846435546875,-0.614715576171875
-0.278411865234375,0.712921142578125,-0.617401123046875
-0.291229248046875,0.7118682861328125,-0.6267242431640625
-0.2947998046875,0.73114013671875,-0.63336181640625
-0.28076171875,0.741851806640625,-0.645416259765625
-0.27166748046875,0.72576904296875,-0.620208740234375
-0.2600555419921875,0.7238006591796875,-0.612884521484375
-0.2680816650390625,0.7251739501953125,-0.61077880859375
-0.24591064453125,0.719451904296875,-0.6144256591796875
-0.224945068359375,0.69805908203125,-0.602783203125
-0.1668701171875,0.6443023681640625,-0.5920867919921875
-0.1901397705078125,0.642852783203125,-0.6299591064453125
-0.2892608642578125,0.7035369873046875,-0.740966796875
-0.37506103515625,0.6074981689453125,-0.68597412109375
-0.4617156982421875,0.5183563232421875,-0.6567230224609375
-0.4630889892578125,0.6367645263671875,-0.82421875
-0.36138916015625,0.5588836669921875,-0.77783203125
-0.312713623046875,0.5554962158203125,-0.6542205810546875
-0.507049560546875,0.71246337890625,-0.789764404296875
-0.615875244140625,0.5759429931640625,-0.614501953125
-0.8706512451171875,0.56365966796875,-0.1703033447265625
-0.7944793701171875,0.558685302734375,-0.27392578125
-0.6453094482421875,0.7396392822265625,-0.29669189453125
-0.547515869140625,0.83056640625,-0.10052490234375
-0.8121490478515625,0.7864532470703125,0.007720947265625
-0.74261474609375,0.788482666015625,0.1405029296875
-0.5699310302734375,0.863677978515625,0.1452789306640625
-0.4903564453125,0.8302459716796875,0.168914794921875
-0.5336151123046875,0.7428131103515625,0.100830078125
-0.6161651611328125,0.81365966796875,0.20635986328125
-0.5583343505859375,0.84503173828125,0.2530975341796875
-0.5785369873046875,0.723876953125,0.0800018310546875
-0.6181793212890625,0.756591796875,-0.066497802734375
-0.65380859375,0.8262481689453125,0.008941650390625
-0.6647491455078125,0.7117462158203125,0.087615966796875
-0.7621612548828125,0.6773834228515625,0.0071563720703125
-0.7203216552734375,0.644775390625,0.0216827392578125
-0.7222747802734375,0.6027374267578125,0.0392913818359375
-0.7137298583984375,0.6113739013671875,0.0007781982421875
-0.808258056640625,0.710601806640625,-0.038299560546875
-0.9347076416015624,0.81085205078125,-0.071624755859375
-0.876556396484375,0.7689971923828125,-0.0858306884765625
-0.8618927001953125,0.776092529296875,-0.08929443359375
-0.9656524658203124,0.9526214599609376,-0.093353271484375
-0.905548095703125,1.0025634765625,-0.1826934814453125
-0.7588958740234375,0.7360992431640625,-0.225830078125
-0.84527587890625,0.8374481201171875,-0.20361328125
-0.777099609375,0.977081298828125,-0.11151123046875
-0.5686187744140625,0.906158447265625,-0.104949951171875
-0.47509765625,0.7471771240234375,-0.1082305908203125
-0.4566192626953125,0.6865234375,-0.069793701171875
-0.4129180908203125,0.66943359375,-0.0295867919921875
-0.36529541015625,0.595550537109375,-0.02069091796875
-0.4037933349609375,0.58978271484375,0.0024261474609375
-0.4656524658203125,0.6768951416015625,0.0125274658203125
-0.55401611328125,0.8337860107421875,0.0160064697265625
-0.57086181640625,0.8945770263671875,-0.030517578125
-0.675628662109375,0.8944091796875,-0.0904998779296875
-0.76220703125,1.0429840087890625,-0.1615753173828125
-0.7520599365234375,1.0081787109375,-0.2902374267578125
-0.8382415771484375,0.7311248779296875,-0.20745849609375
-0.9601287841796876,0.6793670654296875,-0.109405517578125
-1.0308685302734375,0.7724609375,-0.13201904296875
-1.001190185546875,0.708770751953125,-0.1643218994140625
-0.92388916015625,0.5575408935546875,-0.176177978515625
-0.799468994140625,0.559417724609375,-0.177337646484375
-0.7718048095703125,0.6253814697265625,-0.0915985107421875
-0.747528076171875,0.62518310546875,0.053924560546875
-0.75677490234375,0.627471923828125,0.0601959228515625
-0.83526611328125,0.730621337890625,-0.01190185546875
-0.9438934326171876,0.8068389892578125,-0.150482177734375
-0.962646484375,0.815887451171875,-0.192138671875
-0.8381500244140625,0.7872467041015625,-0.1798553466796875
-0.7861785888671875,0.7879180908203125,-0.1204681396484375
-0.7921905517578125,0.929290771484375,-0.126617431640625
-0.705963134765625,0.7935791015625,-0.1605987548828125
-0.7220611572265625,0.6225738525390625,-0.130462646484375
-0.760223388671875,0.68902587890625,-0.1132049560546875
-0.6605987548828125,0.786163330078125,-0.124908447265625
-0.51116943359375,0.6996002197265625,-0.1022491455078125
-0.5077667236328125,0.6106414794921875,-0.0268707275390625
-0.566864013671875,0.612060546875,-0.014617919921875
-0.5982208251953125,0.5881805419921875,-0.0100860595703125
-0.6253814697265625,0.578887939453125,0.0393829345703125
-0.646331787109375,0.6329803466796875,0.0695648193359375
-0.6231689453125,0.6352386474609375,-0.0535430908203125
-0.603118896484375,0.6708984375,-0.1258392333984375
-0.5997772216796875,0.694091796875,-0.066497802734375
-0.7118988037109375,0.76171875,0.0590667724609375
-0.6339111328125,0.945556640625,-0.0304718017578125
-0.4720458984375,0.7564849853515625,-0.313995361328125
-0.7650299072265625,0.6923828125,-0.2374267578125
-0.8131256103515625,0.7637481689453125,0.0106353759765625
-0.7801971435546875,0.8398895263671875,0.0540313720703125
-0.778411865234375,0.739501953125,-0.0569915771484375
-0.80609130859375,0.7016143798828125,-0.158172607421875
-0.8062744140625,0.6678619384765625,-0.1640167236328125
-0.766937255859375,0.6533203125,-0.10040283203125
-0.82025146484375,0.7033843994140625,-0.0671539306640625
-0.891815185546875,0.7617950439453125,-0.0498199462890625
-0.896881103515625,0.8326873779296875,-0.08209228515625
-0.8697662353515625,0.9367828369140624,-0.1729736328125
-0.7819976806640625,0.9338836669921876,-0.2486572265625
-0.79290771484375,0.996124267578125,-0.2554779052734375
-0.7586669921875,1.1175384521484375,-0.2688140869140625
-0.623260498046875,0.91937255859375,-0.218963623046875
-0.6705780029296875,0.9612274169921876,-0.1914825439453125
-0.605224609375,1.07183837890625,-0.2602996826171875
-0.47393798828125,1.010162353515625,-0.29486083984375
-0.4530792236328125,0.8240509033203125,-0.2431182861328125
-0.4945220947265625,0.72479248046875,-0.147857666015625
-0.4737091064453125,0.7310333251953125,-0.163482666015625
-0.4427032470703125,0.759857177734375,-0.148895263671875
-0.425048828125,0.7328338623046875,-0.1063232421875
-0.4255523681640625,0.707122802734375,-0.0408935546875
-0.436981201171875,0.7852935791015625,-0.0083160400390625
-0.4400787353515625,0.8365020751953125,-0.0267181396484375
-0.5021514892578125,0.835174560546875,-0.0684356689453125
-0.6587982177734375,1.046600341796875,-0.045501708984375
-0.587066650390625,0.9604339599609376,-0.10955810546875
-0.59588623046875,0.7406158447265625,-0.1682281494140625
-0.7603607177734375,0.805511474609375,-0.1443023681640625
-0.8282470703125,0.89837646484375,-0.11273193359375
-0.7254791259765625,0.8110198974609375,-0.1009674072265625
-0.6953277587890625,0.7053375244140625,-0.1721038818359375
-0.6751861572265625,0.693023681640625,-0.2290191650390625
-0.6068267822265625,0.7033538818359375,-0.1602630615234375
-0.577880859375,0.67230224609375,-0.1061248779296875
-0.61956787109375,0.677337646484375,-0.0638427734375
-0.7073211669921875,0.7538299560546875,-0.0888824462890625
-0.78033447265625,0.8311767578125,-0.125640869140625
-0.8000030517578125,0.8578643798828125,-0.1653594970703125
-0.80108642578125,0.819488525390625,-0.1960601806640625
-0.89031982421875,0.9848785400390624,-0.2125244140625
-0.8081817626953125,0.99310302734375,-0.2447509765625
-0.77410888671875,0.8006744384765625,-0.2077484130859375
-0.8193817138671875,0.8881072998046875,-0.1370086669921875
-0.7298736572265625,1.014862060546875,-0.1204833984375
-0.6318511962890625,1.0007781982421875,-0.1381378173828125
-0.56219482421875,0.914306640625,-0.1675262451171875
-0.517486572265625,0.8515472412109375,-0.18267822265625
-0.41778564453125,0.815765380859375,-0.17279052734375
-0.3781280517578125,0.7514801025390625,-0.1163787841796875
-0.3673095703125,0.7084503173828125,-0.0643310546875
-0.3981170654296875,0.7589111328125,-0.038238525390625
-0.4302520751953125,0.875244140625,-0.0035400390625
-0.37420654296875,0.86993408203125,-0.064117431640625
-0.5111541748046875,0.826019287109375,-0.1321258544921875
-0.589813232421875,1.0483245849609375,-0.0363006591796875
-0.4675750732421875,0.9147186279296876,-0.153045654296875
-0.6236572265625,0.7790679931640625,-0.1319122314453125
-0.7489166259765625,0.845428466796875,-0.0800628662109375
-0.774383544921875,0.8714447021484375,-0.0458526611328125
-0.7187957763671875,0.71990966796875,-0.0404510498046875
-0.703033447265625,0.679290771484375,-0.043670654296875
-0.6660614013671875,0.7213134765625,-0.081695556640625
-0.63397216796875,0.7351226806640625,-0.1155548095703125
-0.6862640380859375,0.6763458251953125,-0.127471923828125
-0.8210296630859375,0.7051239013671875,-0.090240478515625
-0.970458984375,0.8668212890625,-0.1124725341796875
-0.9447784423828124,0.8523101806640625,-0.1283111572265625
-0.8620452880859375,0.814697265625,-0.1527557373046875
-0.8421478271484375,0.9148101806640624,-0.191070556640625
-0.8795318603515625,1.152557373046875,-0.1279754638671875
-0.7086029052734375,1.04119873046875,-0.09136962890625
-0.674835205078125,0.893890380859375,-0.11907958984375
-0.6697845458984375,1.032379150390625,-0.2022857666015625
-0.5681915283203125,1.069488525390625,-0.1793365478515625
-0.4575042724609375,0.898590087890625,-0.1379547119140625
-0.5297088623046875,0.7882232666015625,0.0013275146484375
-0.46270751953125,0.58551025390625,0.004547119140625
-0.3996734619140625,0.6174774169921875,0.017364501953125
-0.3376007080078125,0.58819580078125,0.0954437255859375
-0.3519287109375,0.595367431640625,0.208953857421875
-0.468963623046875,0.6124267578125,0.257171630859375
-0.7150726318359375,0.64300537109375,-0.086944580078125
-0.79437255859375,0.615447998046875,-0.1547698974609375
-0.9383392333984376,0.6452789306640625,0.0351715087890625
-0.8470001220703125,0.7219085693359375,0.094329833984375
-0.6929931640625,0.609771728515625,-0.110931396484375
-0.85797119140625,0.7208709716796875,-0.0648956298828125
-0.9169921875,0.85595703125,-0.0926666259765625
-0.8230743408203125,0.7853240966796875,-0.071685791015625
-0.8010101318359375,0.650543212890625,-0.07427978515625
-0.75360107421875,0.67486572265625,-0.0225067138671875
-0.697540283203125,0.7643585205078125,-0.0108489990234375
-0.720458984375,0.7411041259765625,-0.0413818359375
-0.7097930908203125,0.606109619140625,-0.0397796630859375
-0.8204803466796875,0.6788482666015625,-0.0738067626953125
-0.8964691162109375,0.7867431640625,-0.1891937255859375
-0.8617401123046875,0.8003082275390625,-0.2684173583984375
-0.8977508544921875,0.7522735595703125,-0.2858734130859375
-0.99169921875,0.89373779296875,-0.304779052734375
-0.873809814453125,0.9262847900390624,-0.259552001953125
-0.74664306640625,0.886962890625,-0.2005615234375
-0.761627197265625,0.979949951171875,-0.2569427490234375
-0.688018798828125,0.984588623046875,-0.302337646484375
-0.6103515625,0.888916015625,-0.36077880859375
-0.58599853515625,0.8045501708984375,-0.376739501953125
-0.614227294921875,0.8412017822265625,-0.34002685546875
-0.5769500732421875,0.8986968994140625,-0.3187713623046875
-0.499176025390625,0.91949462890625,-0.2606048583984375
-0.5179290771484375,0.87310791015625,-0.1926116943359375
-0.5160064697265625,0.896270751953125,-0.203277587890625
-0.36785888671875,0.9177093505859376,-0.16400146484375
-0.30670166015625,0.7420196533203125,-0.18072509765625
-0.352203369140625,0.6285552978515625,-0.0935821533203125
-0.3712921142578125,0.761962890625,0.0828399658203125
-0.356201171875,0.7364501953125,0.07965087890625
-0.55462646484375,0.873382568359375,-0.0024566650390625
-0.666229248046875,1.0525360107421875,-0.100616455078125
-0.7856597900390625,0.982635498046875,-0.121368408203125
-0.8602142333984375,0.8148345947265625,-0.1039886474609375
-0.814666748046875,0.7500762939453125,-0.0789031982421875
-0.7869110107421875,0.79229736328125,-0.08929443359375
-0.76239013671875,0.8040771484375,-0.1262969970703125
-0.727020263671875,0.809295654296875,-0.16998291015625
-0.765838623046875,0.837890625,-0.1899871826171875
-0.8015289306640625,0.8775177001953125,-0.201416015625
-0.828155517578125,0.8011627197265625,-0.2778472900390625
-0.8778228759765625,0.7685394287109375,-0.2898712158203125
-0.927642822265625,0.8592681884765625,-0.3238677978515625
-0.7679595947265625,0.76220703125,-0.231658935546875
-0.8227386474609375,0.8427276611328125,-0.2373809814453125
-0.8376617431640625,0.9971923828125,-0.259674072265625
-0.7706146240234375,1.0554046630859375,-0.2780914306640625
-0.7392730712890625,0.9960784912109376,-0.325653076171875
-0.7476654052734375,1.009521484375,-0.28326416015625
-0.6664276123046875,1.05462646484375,-0.1972808837890625
-0.53021240234375,1.0060272216796875,-0.1728973388671875
-0.412445068359375,0.9069671630859376,-0.1466522216796875
-0.3459320068359375,0.8453216552734375,-0.091644287109375
-0.335205078125,0.8142852783203125,-0.069244384765625
-0.2669219970703125,0.7637176513671875,-0.07666015625
-0.29046630859375,0.6845855712890625,-0.0540008544921875
-0.380889892578125,0.7910003662109375,-0.0146026611328125
-0.4016571044921875,0.812225341796875,-0.1113739013671875
-0.559173583984375,0.78155517578125,-0.0735626220703125
-0.71771240234375,0.9609832763671876,-0.0270233154296875
-0.7696380615234375,1.054443359375,-0.1616973876953125
-0.7482147216796875,0.9109039306640624,-0.25
-0.7548065185546875,0.8029632568359375,-0.285736083984375
-0.761932373046875,0.82379150390625,-0.2612762451171875
-0.7211761474609375,0.8443603515625,-0.1901092529296875
-0.7416534423828125,0.795166015625,-0.1650238037109375
-0.8022003173828125,0.75341796875,-0.16839599609375
-0.9011688232421876,0.8313140869140625,-0.1966094970703125
-0.9345550537109376,0.813201904296875,-0.2131805419921875
-0.9650115966796876,0.7761077880859375,-0.2316741943359375
-1.00811767578125,0.9035491943359376,-0.2776641845703125
-0.8792724609375,0.93597412109375,-0.2581634521484375
-0.7211761474609375,0.8580169677734375,-0.2559814453125
-0.67706298828125,0.8091888427734375,-0.244842529296875
-0.721435546875,0.971160888671875,-0.2496490478515625
-0.6359405517578125,1.056732177734375,-0.2821502685546875
-0.52288818359375,0.9745635986328124,-0.319488525390625
-0.5279998779296875,0.897491455078125,-0.374542236328125
-0.5786895751953125,0.9400177001953124,-0.37774658203125
-0.5328369140625,0.9437713623046876,-0.3046722412109375
-0.5024261474609375,0.886016845703125,-0.2524261474609375
-0.4693145751953125,0.82574462890625,-0.2420654296875
-0.4718780517578125,0.79083251953125,-0.2016754150390625
-0.4715423583984375,0.8440399169921875,-0.1914520263671875
-0.3841400146484375,0.8110198974609375,-0.1617431640625
-0.2796630859375,0.5697021484375,-0.0967559814453125
-0.3923492431640625,0.542144775390625,-0.017608642578125
-0.5112762451171875,0.7701416015625,-0.0177001953125
-0.5342559814453125,0.9793853759765624,-0.0366668701171875
-0.6530914306640625,0.9021453857421876,0.0523223876953125
-0.8081817626953125,0.84881591796875,0.1828460693359375
-0.8897857666015625,0.855865478515625,0.3358001708984375
-0.856719970703125,0.8812713623046875,0.2813873291015625
-0.81060791015625,0.8464508056640625,0.1549224853515625
-0.7537078857421875,0.8072357177734375,0.0242156982421875
-0.6777496337890625,0.8128204345703125,-0.038482666015625
-0.65423583984375,0.871368408203125,-0.1036224365234375
-0.6373748779296875,0.9007415771484376,-0.1445159912109375
-0.5965728759765625,0.809661865234375,-0.0951385498046875
-0.64990234375,0.793853759765625,-0.076690673828125
-0.7374267578125,0.8765411376953125,-0.2468109130859375
-0.719329833984375,0.8369140625,-0.4452667236328125
-0.8190460205078125,0.8898773193359375,-0.56170654296875
-0.8541717529296875,0.99688720703125,-0.4937286376953125
-0.7560577392578125,1.04254150390625,-0.438446044921875
-0.6567535400390625,1.0292816162109375,-0.5758056640625
-0.5921478271484375,1.0528106689453125,-0.5701141357421875
-0.541351318359375,1.041290283203125,-0.4502410888671875
-0.5331878662109375,0.997467041015625,-0.3612213134765625
-0.53955078125,1.008209228515625,-0.32135009765625
-0.5023040771484375,0.9940032958984376,-0.317047119140625
-0.468170166015625,0.929473876953125,-0.27783203125
-0.407379150390625,0.9588470458984376,-0.2118072509765625
-0.3306427001953125,0.923828125,-0.3249664306640625
-0.3143768310546875,0.9981689453125,-0.2678985595703125
-0.168304443359375,0.916900634765625,-0.007537841796875
-0.2598724365234375,0.892120361328125,0.278350830078125
-0.3124847412109375,0.90325927734375,0.257598876953125
-0.2286224365234375,0.9749298095703124,0.11968994140625
-0.18304443359375,0.98321533203125,0.0132904052734375
-0.304290771484375,0.9913787841796876,-0.0775299072265625
-0.461700439453125,0.97161865234375,-0.0612335205078125
-0.592376708984375,0.950225830078125,0.018341064453125
-0.6663360595703125,0.942626953125,0.013153076171875
-0.7392578125,0.9509429931640624,-0.096099853515625
-0.8153839111328125,0.93133544921875,-0.0733184814453125
-0.77252197265625,0.9200286865234376,-0.042388916015625
-0.7370452880859375,0.946533203125,-0.1311492919921875
-0.7692718505859375,0.9615936279296876,-0.233154296875
-0.8101806640625,0.9133758544921876,-0.357391357421875
-0.818756103515625,0.7598724365234375,-0.2918701171875
-0.8938751220703125,0.885162353515625,-0.1443328857421875
-0.8504638671875,1.070648193359375,-0.1345672607421875
-0.7634735107421875,1.14935302734375,-0.2382049560546875
-0.6980133056640625,1.1616973876953125,-0.37432861328125
-0.6556396484375,1.1422576904296875,-0.4061431884765625
-0.54815673828125,1.1355438232421875,-0.3302154541015625
-0.437744140625,1.033203125,-0.25537109375
-0.3174591064453125,0.91448974609375,-0.173248291015625
-0.264495849609375,0.85162353515625,-0.133270263671875
-0.267242431640625,0.8719024658203125,-0.1313323974609375
-0.250885009765625,0.887359619140625,-0.1429290771484375
-0.252105712890625,0.782623291015625,-0.165924072265625
-0.3939361572265625,0.8237457275390625,-0.0391845703125
-0.390167236328125,0.874176025390625,-0.007080078125
-0.41717529296875,0.8332977294921875,0.003173828125
-0.561981201171875,1.03961181640625,-0.0062713623046875
-0.64117431640625,1.1735076904296875,-0.123870849609375
-0.6529998779296875,0.9813690185546876,-0.19915771484375
-0.693023681640625,0.788543701171875,-0.1671905517578125
-0.7169952392578125,0.74072265625,-0.1219635009765625
-0.6793060302734375,0.7941436767578125,-0.117401123046875
-0.597503662109375,0.8139801025390625,-0.146392822265625
-0.6791839599609375,0.9033050537109376,-0.1930694580078125
-0.783294677734375,1.0179443359375,-0.2198944091796875
-0.84405517578125,0.957366943359375,-0.254913330078125
-0.8773956298828125,0.835052490234375,-0.2332763671875
-0.9617156982421876,0.9002227783203125,-0.132720947265625
-0.917755126953125,0.9864501953125,-0.0787200927734375
-0.709564208984375,0.8244781494140625,-0.1069488525390625
-0.751678466796875,0.852783203125,-0.2292327880859375
-0.7583160400390625,0.957305908203125,-0.1549530029296875
-0.6819305419921875,1.0248870849609375,-0.1607666015625
-0.63592529296875,1.0023651123046875,-0.2492523193359375
-0.6158905029296875,0.963897705078125,-0.2588348388671875
-0.5472564697265625,0.95697021484375,-0.1690826416015625
-0.42510986328125,0.9263458251953124,-0.1132965087890625
-0.3415069580078125,0.851348876953125,-0.0925445556640625
-0.3199005126953125,0.8224029541015625,-0.0302734375
-0.3383636474609375,0.8631591796875,-0.0421905517578125
-0.304168701171875,0.849212646484375,-0.128021240234375
-0.339996337890625,0.782440185546875,-0.1228179931640625
-0.49468994140625,0.98187255859375,-0.0874176025390625
-0.4638519287109375,0.989593505859375,-0.1767120361328125
-0.5156097412109375,0.833038330078125,-0.1490325927734375
-0.6178741455078125,0.8730316162109375,-0.1502532958984375
-0.6350860595703125,0.9608917236328124,-0.2354736328125
-0.554412841796875,0.8929901123046875,-0.2101898193359375
-0.58026123046875,0.8060150146484375,-0.189697265625
-0.6344146728515625,0.7950897216796875,-0.21722412109375
-0.6776275634765625,0.8115997314453125,-0.2567138671875
-0.711700439453125,0.811614990234375,-0.18328857421875
-0.8064117431640625,0.852386474609375,-0.1363983154296875
-0.9358673095703124,0.9452362060546876,-0.1723480224609375
-0.960723876953125,0.94940185546875,-0.14508056640625
-0.9515838623046876,0.8864593505859375,-0.00897216796875
-0.880767822265625,0.8097991943359375,0.07965087890625
-0.8939666748046875,0.952178955078125,0.023834228515625
-0.81756591796875,1.0528106689453125,-0.0227813720703125
-0.7933807373046875,0.9166717529296876,-0.0893707275390625
-0.8318023681640625,0.95947265625,-0.1748199462890625
-0.73284912109375,1.10406494140625,-0.2352294921875
-0.57598876953125,1.12677001953125,-0.33416748046875
-0.4812774658203125,0.9772796630859376,-0.375274658203125
-0.423065185546875,0.9011688232421876,-0.4006805419921875
-0.3350067138671875,0.8152923583984375,-0.261810302734375
-0.2919158935546875,0.7459564208984375,-0.1094207763671875
-0.2717437744140625,0.6856231689453125,-0.007720947265625
-0.3052825927734375,0.73980712890625,0.006988525390625
-0.411865234375,0.908966064453125,-0.0683135986328125
-0.4394989013671875,0.8859405517578125,-0.0422515869140625
-0.487274169921875,0.796142578125,-0.0329437255859375
-0.5023345947265625,0.9413909912109376,-0.0080718994140625
-0.3343505859375,0.986083984375,-0.146209716796875
-0.483306884765625,0.9070892333984376,-0.10302734375
-0.7006378173828125,1.01153564453125,-0.0139923095703125
-0.7664947509765625,1.016998291015625,-0.0030059814453125
-0.726043701171875,0.846099853515625,-0.095916748046875
-0.7687530517578125,0.75927734375,-0.18206787109375
-0.7901763916015625,0.7548065185546875,-0.22332763671875
-0.7116851806640625,0.7419586181640625,-0.1748809814453125
-0.6523284912109375,0.71954345703125,-0.12066650390625
-0.6507720947265625,0.7869415283203125,-0.0909423828125
-0.6746063232421875,0.9037322998046876,-0.1051483154296875
-0.6734161376953125,0.942230224609375,-0.165740966796875
-0.7006683349609375,0.8641204833984375,-0.241302490234375
-0.8074798583984375,0.9564666748046876,-0.2093963623046875
-0.7942962646484375,1.0285491943359375,-0.1729278564453125
-0.7168731689453125,0.8964691162109375,-0.187408447265625
-0.7417755126953125,0.9641876220703124,-0.259796142578125
-0.724578857421875,1.0714263916015625,-0.293731689453125
-0.5878448486328125,1.029083251953125,-0.2901763916015625
-0.50152587890625,0.933135986328125,-0.2887115478515625
-0.461822509765625,0.906463623046875,-0.2879791259765625
-0.4308319091796875,0.9001617431640625,-0.2628326416015625
-0.365966796875,0.8088226318359375,-0.1161041259765625
-0.3463134765625,0.7515106201171875,-0.018951416015625
-0.3484344482421875,0.769622802734375,-0.064544677734375
-0.3876800537109375,0.8756103515625,-0.1124725341796875
-0.3672332763671875,0.84869384765625,-0.124969482421875
-0.4428253173828125,0.818267822265625,-0.1412506103515625
-0.423309326171875,0.940277099609375,-0.1785736083984375
-0.4195404052734375,0.84234619140625,-0.2871246337890625
-0.6007232666015625,0.78271484375,0.028839111328125
-0.6721649169921875,0.8902130126953125,0.0952911376953125
-0.6290435791015625,0.9417266845703124,-0.075286865234375
-0.6041717529296875,0.8466949462890625,-0.1425323486328125
-0.62188720703125,0.7946014404296875,-0.1429595947265625
-0.655487060546875,0.7855377197265625,-0.1288604736328125
-0.6339874267578125,0.7576446533203125,-0.05206298828125
-0.6372528076171875,0.752227783203125,-0.0051422119140625
-0.69012451171875,0.8624114990234375,-0.07855224609375
-0.799346923828125,0.972564697265625,-0.1561737060546875
-0.85943603515625,0.8970947265625,-0.1190185546875
-0.955169677734375,0.787200927734375,-0.1258392333984375
-1.0293426513671875,0.9492645263671876,-0.177154541015625
-0.828277587890625,0.959075927734375,-0.1806488037109375
-0.694915771484375,0.858367919921875,-0.225799560546875
-0.7053070068359375,0.9244384765625,-0.2494354248046875
-0.6655426025390625,1.0382080078125,-0.2584228515625
-0.5800933837890625,1.0642242431640625,-0.2815093994140625
-0.52734375,0.950408935546875,-0.2725067138671875
-0.5198211669921875,0.8978729248046875,-0.2582550048828125
-0.4495849609375,0.9030609130859376,-0.19384765625
-0.3751373291015625,0.8548126220703125,-0.14813232421875
-0.3406982421875,0.7711639404296875,-0.05914306640625
-0.344940185546875,0.7299346923828125,-0.059722900390625
-0.34393310546875,0.83551025390625,-0.1219482421875
-0.2825164794921875,0.8826141357421875,-0.165740966796875
-0.3499603271484375,0.838623046875,-0.129302978515625
-0.4787139892578125,0.9145660400390624,-0.0432586669921875
-0.4091796875,0.911285400390625,-0.1245574951171875
-0.432891845703125,0.874481201171875,-0.24932861328125
-0.5793304443359375,1.076019287109375,-0.2429656982421875
-0.7049102783203125,1.166015625,-0.2086334228515625
-0.781341552734375,0.912689208984375,-0.1579742431640625
-0.895477294921875,0.756805419921875,-0.20330810546875
-0.8944244384765625,0.74993896484375,-0.244354248046875
-0.806884765625,0.7219390869140625,-0.19512939453125
-0.7197723388671875,0.706024169921875,-0.157257080078125
-0.70098876953125,0.7644500732421875,-0.18621826171875
-0.7286529541015625,0.8774566650390625,-0.233184814453125
-0.762786865234375,0.8924713134765625,-0.2082366943359375
-0.7754669189453125,0.881103515625,-0.1807403564453125
-0.837188720703125,0.97314453125,-0.1446075439453125
-0.88348388671875,1.204742431640625,-0.12103271484375
-0.7270355224609375,1.0521087646484375,-0.0861663818359375
-0.7826385498046875,0.963897705078125,-0.0872650146484375
-0.778472900390625,1.13409423828125,-0.058868408203125
-0.5628509521484375,1.1373291015625,-0.0407257080078125
-0.389617919921875,0.9813690185546876,-0.074554443359375
-0.3594970703125,0.81298828125,-0.11285400390625
-0.3282318115234375,0.708648681640625,-0.087188720703125
-0.30548095703125,0.5945587158203125,-0.0411529541015625
-0.333404541015625,0.5384979248046875,-0.0240478515625
-0.3834686279296875,0.543365478515625,0.009124755859375
-0.4686126708984375,0.65484619140625,0.0290679931640625
-0.5333709716796875,0.7980499267578125,-0.089569091796875
-0.5958251953125,0.9732208251953124,-0.2054443359375
-0.603729248046875,1.143402099609375,-0.3108367919921875
-0.6471405029296875,1.202880859375,-0.3492279052734375
-0.550628662109375,1.1261749267578125,-0.417388916015625
-0.5733795166015625,0.95550537109375,-0.492034912109375
-0.80120849609375,0.993499755859375,-0.3612213134765625
-0.840728759765625,1.005035400390625,-0.24468994140625
-0.7520751953125,0.81622314453125,-0.2202911376953125
-0.6837158203125,0.6244964599609375,-0.231719970703125
-0.6479034423828125,0.5984954833984375,-0.22003173828125
-0.568695068359375,0.6845550537109375,-0.119110107421875
-0.53106689453125,0.737884521484375,-0.0647430419921875
-0.5724639892578125,0.7425384521484375,-0.066375732421875
-0.7251129150390625,0.8541412353515625,-0.1280670166015625
-0.8246002197265625,0.947998046875,-0.2427215576171875
-0.8448944091796875,0.8683624267578125,-0.28265380859375
-0.9645538330078124,0.9601898193359376,-0.2818603515625
-0.902740478515625,1.1706390380859375,-0.2426910400390625
-0.707550048828125,1.076416015625,-0.249908447265625
-0.737823486328125,1.1331787109375,-0.38848876953125
-0.7387847900390625,1.2620849609375,-0.3872833251953125
-0.610443115234375,1.218994140625,-0.2794342041015625
-0.4975738525390625,1.074066162109375,-0.210052490234375
-0.4705657958984375,1.01007080078125,-0.240234375
-0.416656494140625,0.9595947265625,-0.2606201171875
-0.312347412109375,0.8537139892578125,-0.1866607666015625
-0.2417755126953125,0.775848388671875,-0.10223388671875
-0.2453155517578125,0.769500732421875,-0.0539703369140625
-0.242279052734375,0.809234619140625,-0.048980712890625
-0.212646484375,0.7552642822265625,-0.0762786865234375
-0.3752899169921875,0.8722381591796875,-0.0631866455078125
-0.3710784912109375,0.9683837890625,0.005096435546875
-0.4007415771484375,0.9449005126953124,-0.1407470703125
-0.6479339599609375,1.0482635498046875,-0.1688995361328125
-0.7832489013671875,1.2180023193359375,-0.1923980712890625
-0.803131103515625,1.1598052978515625,-0.1935577392578125
-0.7803192138671875,0.9391937255859376,-0.174346923828125
-0.8083953857421875,0.891387939453125,-0.2540740966796875
-0.7631988525390625,0.901336669921875,-0.323211669921875
-0.7157440185546875,0.8472137451171875,-0.2182769775390625
-0.7001800537109375,0.7891845703125,-0.1404876708984375
-0.725311279296875,0.7740936279296875,-0.16302490234375
-0.7676544189453125,0.86737060546875,-0.18560791015625
-0.809234619140625,0.8286590576171875,-0.2466583251953125
-0.8514556884765625,0.8108673095703125,-0.2712860107421875
-0.9195098876953124,0.9412689208984376,-0.229522705078125
-0.8403167724609375,0.974945068359375,-0.08807373046875
-0.7281646728515625,0.9547119140625,-0.064422607421875
-0.7343292236328125,0.9941864013671876,-0.1644439697265625
-0.7350311279296875,1.194549560546875,-0.2410888671875
-0.6545257568359375,1.2882232666015625,-0.310943603515625
-0.5452728271484375,1.19866943359375,-0.392913818359375
-0.4901885986328125,1.0734710693359375,-0.3660736083984375
-0.4183197021484375,0.972381591796875,-0.29498291015625
-0.3524627685546875,0.9246368408203124,-0.24761962890625
-0.2826995849609375,0.855926513671875,-0.207183837890625
-0.2876739501953125,0.821441650390625,-0.14154052734375
-0.2944488525390625,0.7943572998046875,-0.0746917724609375
-0.3067169189453125,0.733734130859375,-0.0720367431640625
-0.34381103515625,0.773468017578125,-0.0952301025390625
-0.2381744384765625,0.8881072998046875,-0.075836181640625
-0.1897735595703125,0.927001953125,-0.071258544921875
-0.3520355224609375,0.8561553955078125,0.00244140625
-0.5111236572265625,0.866241455078125,0.1015625
-0.692962646484375,1.061309814453125,0.2178192138671875
-0.9133453369140624,1.2889862060546875,0.1856536865234375
-1.076568603515625,1.2345428466796875,-0.001922607421875
-1.0257110595703125,0.9360809326171876,-0.0466766357421875
-0.994110107421875,0.7611083984375,-0.02410888671875
-0.9199371337890624,0.69012451171875,0.0890350341796875
-0.781280517578125,0.6480712890625,0.1775054931640625
-0.7805023193359375,0.641937255859375,0.1611328125
-0.79632568359375,0.66131591796875,0.025115966796875
-0.7811431884765625,0.7519378662109375,-0.077667236328125
-0.7084503173828125,0.7566070556640625,-0.09368896484375
-0.6609039306640625,0.9316864013671876,-0.010650634765625
-0.506866455078125,0.9945220947265624,-0.20562744140625
-0.6593017578125,1.188446044921875,-0.50555419921875
-0.277099609375,0.7785491943359375,-0.320465087890625
-0.2884368896484375,0.857818603515625,-0.347869873046875
-0.272552490234375,0.9027557373046876,-0.511932373046875
-0.277618408203125,0.8373565673828125,-0.536285400390625
-0.376861572265625,0.729278564453125,-0.506317138671875
-0.4337158203125,0.739990234375,-0.499847412109375
-0.4934539794921875,0.7452239990234375,-0.410064697265625
-0.5983734130859375,0.7577362060546875,-0.421356201171875
-0.62939453125,0.7539520263671875,-0.4525604248046875
-0.6673126220703125,0.818572998046875,-0.561614990234375
-0.7198486328125,0.8942108154296875,-0.6013031005859375
-0.82611083984375,0.916351318359375,-0.5232391357421875
-0.85467529296875,0.9401092529296876,-0.3739776611328125
-0.7806854248046875,1.026763916015625,-0.3226165771484375
-0.61737060546875,1.0300445556640625,-0.3476409912109375
-0.4693603515625,0.9559326171875,-0.32489013671875
-0.3755645751953125,0.8652801513671875,-0.26123046875
-0.3312835693359375,0.81182861328125,-0.1835784912109375
-0.3247222900390625,0.82586669921875,-0.12322998046875
-0.285247802734375,0.8644256591796875,-0.13671875
-0.305450439453125,0.7953643798828125,-0.1542816162109375
-0.4188995361328125,0.78839111328125,-0.0172576904296875
-0.4327392578125,0.794921875,0.046722412109375
-0.438995361328125,0.9635162353515624,0.0823516845703125
-0.37921142578125,1.0381622314453125,-0.0607147216796875
-0.4168701171875,0.9601593017578124,-0.1632537841796875
-0.536407470703125,0.9514312744140624,-0.1171875
-0.619659423828125,0.990631103515625,-0.06317138671875
-0.6966400146484375,1.0294189453125,0.0131378173828125
-0.74810791015625,0.9454498291015624,0.0630035400390625
-0.767059326171875,0.86737060546875,0.0587005615234375
-0.79376220703125,0.8273162841796875,-0.02587890625
-0.8211212158203125,0.85272216796875,-0.085540771484375
-0.81463623046875,0.863006591796875,-0.131500244140625
-0.7928924560546875,0.8202362060546875,-0.2066192626953125
-0.820587158203125,0.823394775390625,-0.2603912353515625
-0.8026123046875,0.893829345703125,-0.2498779296875
-0.7030029296875,0.910888671875,-0.208892822265625
-0.7164764404296875,0.916229248046875,-0.21307373046875
-0.7296905517578125,0.992767333984375,-0.222442626953125
-0.6960906982421875,1.0500335693359375,-0.20379638671875
-0.6733245849609375,1.0627593994140625,-0.270751953125
-0.63214111328125,1.022796630859375,-0.3187255859375
-0.6086578369140625,1.0052490234375,-0.3265228271484375
-0.504180908203125,0.9684600830078124,-0.26104736328125
-0.481048583984375,0.92340087890625,-0.18389892578125
-0.3687286376953125,0.879058837890625,-0.1368408203125
-0.3054656982421875,0.8650970458984375,-0.1666107177734375
-0.293548583984375,0.8846435546875,-0.184234619140625
-0.2618408203125,0.826812744140625,-0.1519775390625
-0.3590850830078125,0.8249969482421875,-0.101776123046875
-0.4470672607421875,0.9100189208984376,-0.0558013916015625
-0.4364166259765625,0.880584716796875,-0.0516204833984375
-0.5104827880859375,0.8020477294921875,0.0291748046875
-0.63714599609375,0.9925537109375,0.1441192626953125
-0.615966796875,1.19287109375,-0.026611328125
-0.612091064453125,1.10906982421875,-0.2589874267578125
-0.7117767333984375,0.9122161865234376,-0.316802978515625
-0.78948974609375,0.8114013671875,-0.23541259765625
-0.7467041015625,0.7865447998046875,-0.102783203125
-0.7144012451171875,0.794769287109375,-0.01666259765625
-0.783966064453125,0.79315185546875,-0.0787200927734375
-0.8585662841796875,0.87127685546875,-0.136932373046875
-0.86181640625,0.924774169921875,-0.154052734375
-0.8167572021484375,0.8371124267578125,-0.1840057373046875
-0.8482666015625,0.8692474365234375,-0.23016357421875
-0.81329345703125,0.992889404296875,-0.247039794921875
-0.721954345703125,0.998199462890625,-0.2558746337890625
-0.682281494140625,0.9344329833984376,-0.2744903564453125
-0.642913818359375,1.029327392578125,-0.266357421875
-0.65985107421875,1.1590728759765625,-0.2970428466796875
-0.5694122314453125,1.12017822265625,-0.34710693359375
-0.491546630859375,0.985107421875,-0.27923583984375
-0.4753875732421875,0.9037933349609376,-0.208770751953125
-0.3771209716796875,0.8079986572265625,-0.138031005859375
-0.3431549072265625,0.77001953125,-0.0477752685546875
-0.3111724853515625,0.745452880859375,0.04840087890625
-0.283294677734375,0.7756500244140625,0.0284576416015625
-0.3197784423828125,0.854095458984375,-0.0792999267578125
-0.302886962890625,0.8895263671875,-0.1389923095703125
-0.416961669921875,0.9948577880859376,-0.1374969482421875
-0.42559814453125,1.0180206298828125,-0.1404571533203125
-0.4500274658203125,0.850311279296875,-0.1857147216796875
-0.65008544921875,0.8945770263671875,-0.07171630859375
-0.7693939208984375,1.094573974609375,-0.059234619140625
-0.8038177490234375,1.0388031005859375,-0.187225341796875
-0.831298828125,0.8575897216796875,-0.2425994873046875
-0.84991455078125,0.7744598388671875,-0.2828521728515625
-0.718353271484375,0.793487548828125,-0.23162841796875
-0.582794189453125,0.7973480224609375,-0.172332763671875
-0.5475921630859375,0.7751312255859375,-0.1812896728515625
-0.56561279296875,0.796051025390625,-0.2013092041015625
-0.640777587890625,0.8135223388671875,-0.2215118408203125
-0.7280120849609375,0.84246826171875,-0.1910400390625
-0.819793701171875,0.838531494140625,-0.1893463134765625
-0.8459625244140625,0.85736083984375,-0.1781158447265625
-0.84375,0.9810638427734376,-0.2680511474609375
-0.7610931396484375,1.023284912109375,-0.3221588134765625
-0.6937713623046875,0.9936370849609376,-0.3269500732421875
-0.70849609375,1.03515625,-0.310394287109375
-0.6674346923828125,1.09588623046875,-0.3444976806640625
-0.56439208984375,1.0443878173828125,-0.366943359375
-0.5083465576171875,0.925689697265625,-0.3903350830078125
-0.48736572265625,0.9168243408203124,-0.405609130859375
-0.3890228271484375,0.9083099365234376,-0.33135986328125
-0.34197998046875,0.8712005615234375,-0.2996063232421875
-0.33197021484375,0.8065948486328125,-0.2388763427734375
-0.3319854736328125,0.7801361083984375,-0.2017059326171875
-0.3239593505859375,0.830169677734375,-0.198089599609375
-0.233978271484375,0.8964385986328125,-0.182586669921875
-0.2386474609375,0.845672607421875,-0.15313720703125
-0.469329833984375,0.9371337890625,-0.0209197998046875
-0.4072265625,0.870025634765625,0.06097412109375
-0.4869384765625,0.8668670654296875,-0.1756134033203125
-0.5789642333984375,1.133209228515625,-0.2230987548828125
-0.690460205078125,1.2491302490234375,-0.2313385009765625
-0.7478485107421875,1.017333984375,-0.18536376953125
-0.771636962890625,0.799285888671875,-0.1236572265625
-0.7823486328125,0.7759246826171875,-0.114044189453125
-0.73590087890625,0.8115997314453125,-0.1059112548828125
-0.700042724609375,0.799163818359375,-0.114044189453125
-0.7204132080078125,0.837921142578125,-0.214263916015625
-0.742034912109375,0.9181671142578124,-0.2596282958984375
-0.71539306640625,0.9491119384765624,-0.257110595703125
-0.6731414794921875,0.9113006591796876,-0.252685546875
-0.6428680419921875,0.8181915283203125,-0.196929931640625
-0.692230224609375,0.959747314453125,-0.216278076171875
-0.70013427734375,0.99884033203125,-0.3292388916015625
-0.8108978271484375,0.96148681640625,-0.3325653076171875
-0.893707275390625,1.033966064453125,-0.26123046875
-0.838287353515625,1.1636505126953125,-0.2423553466796875
-0.7112579345703125,1.1903839111328125,-0.3480072021484375
-0.619293212890625,1.153717041015625,-0.3643951416015625
-0.5329132080078125,1.115570068359375,-0.321441650390625
-0.36383056640625,1.0322418212890625,-0.252105712890625
-0.2480621337890625,0.9071197509765624,-0.1575469970703125
-0.229766845703125,0.7946929931640625,-0.116302490234375
-0.20806884765625,0.790802001953125,-0.13812255859375
-0.1959228515625,0.8252410888671875,-0.10089111328125
-0.18902587890625,0.7510528564453125,-0.056304931640625
-0.3893890380859375,0.8563232421875,-0.00054931640625
-0.3326263427734375,0.9818572998046876,-0.01678466796875
-0.388641357421875,0.9320526123046876,-0.211181640625
-0.6071624755859375,1.0019683837890625,-0.1612091064453125
-0.7006378173828125,1.1368560791015625,-0.1207275390625
-0.7335357666015625,1.0748138427734375,-0.170562744140625
-0.7475433349609375,0.90435791015625,-0.150177001953125
-0.7832489013671875,0.865478515625,-0.1382904052734375
-0.73675537109375,0.8752593994140625,-0.1760101318359375
-0.7283477783203125,0.8096160888671875,-0.2174072265625
-0.745849609375,0.770538330078125,-0.20172119140625
-0.7185821533203125,0.808837890625,-0.1260528564453125
-0.7202301025390625,0.8449249267578125,-0.1579132080078125
-0.7187347412109375,0.8544158935546875,-0.249053955078125
-0.7668304443359375,0.8553924560546875,-0.291168212890625
-0.84100341796875,1.0480194091796875,-0.29901123046875
-0.7621002197265625,0.92767333984375,-0.242156982421875
-0.7477264404296875,0.837493896484375,-0.2264556884765625
-0.7697906494140625,0.9952545166015624,-0.22467041015625
-0.702911376953125,1.10052490234375,-0.216949462890625
-0.6153717041015625,1.1062774658203125,-0.294891357421875
-0.548492431640625,1.0227203369140625,-0.304412841796875
-0.4848785400390625,0.9753875732421876,-0.2384033203125
-0.3896942138671875,0.929168701171875,-0.190032958984375
-0.2925872802734375,0.8535003662109375,-0.148406982421875
-0.24749755859375,0.764617919921875,-0.0972137451171875
-0.25152587890625,0.712615966796875,-0.069580078125
-0.3005523681640625,0.7230072021484375,-0.054931640625
-0.311126708984375,0.7938385009765625,-0.061737060546875
-0.31353759765625,0.7964324951171875,-0.113037109375
-0.492706298828125,1.0283050537109375,-0.0989227294921875
-0.443511962890625,1.090606689453125,-0.1793060302734375
-0.503204345703125,0.941314697265625,-0.33856201171875
-0.6676788330078125,0.9734649658203124,-0.25421142578125
-0.7252349853515625,1.0343780517578125,-0.308746337890625
-0.7293701171875,0.916778564453125,-0.3998565673828125
-0.74298095703125,0.748077392578125,-0.345245361328125
-0.735198974609375,0.7584381103515625,-0.2044830322265625
-0.6534881591796875,0.808746337890625,-0.1246490478515625
-0.5688018798828125,0.7989044189453125,-0.128814697265625
-0.60455322265625,0.7803497314453125,-0.158203125
-0.732269287109375,0.7952117919921875,-0.2160186767578125
-0.84716796875,0.8289642333984375,-0.2844696044921875
-0.8953704833984375,0.842010498046875,-0.3553619384765625
-0.873931884765625,0.8673553466796875,-0.3463592529296875
-0.861846923828125,1.0838165283203125,-0.37188720703125
-0.6981048583984375,1.0821990966796875,-0.425750732421875
-0.5746307373046875,0.8857574462890625,-0.4447784423828125
-0.6081085205078125,0.946441650390625,-0.3192138671875
-0.633392333984375,1.098785400390625,-0.3265228271484375
-0.495697021484375,1.0095672607421875,-0.413818359375
-0.4364776611328125,0.85772705078125,-0.4986724853515625
-0.432952880859375,0.834259033203125,-0.5138397216796875
-0.35321044921875,0.8724365234375,-0.392669677734375
-0.2825775146484375,0.847808837890625,-0.313751220703125
-0.28045654296875,0.865936279296875,-0.2682037353515625
-0.3180694580078125,0.88262939453125,-0.2260894775390625
-0.3572235107421875,0.9403228759765624,-0.2115478515625
-0.315155029296875,0.897308349609375,-0.2239990234375
-0.3809051513671875,0.889495849609375,-0.1652374267578125
-0.348114013671875,0.905120849609375,-0.0513458251953125
-0.351776123046875,0.88739013671875,-0.047576904296875
-0.4743194580078125,0.865631103515625,0.0150146484375
-0.633636474609375,0.999420166015625,-0.0022430419921875
-0.7471771240234375,1.076751708984375,-0.05218505859375
-0.7459869384765625,0.9286346435546876,-0.1132965087890625
-0.740692138671875,0.8319854736328125,-0.140625
-0.6789703369140625,0.8126983642578125,-0.16778564453125
-0.6272430419921875,0.8160247802734375,-0.1553802490234375
-0.631439208984375,0.792510986328125,-0.1578826904296875
-0.643646240234375,0.8081207275390625,-0.1820220947265625
-0.7084197998046875,0.8774261474609375,-0.2280120849609375
-0.7783203125,0.9370574951171876,-0.303375244140625
-0.802947998046875,0.8572540283203125,-0.3250274658203125
-0.8899688720703125,0.916168212890625,-0.327239990234375
-0.798583984375,1.01116943359375,-0.2937164306640625
-0.662384033203125,0.9129180908203124,-0.2498779296875
-0.7320709228515625,1.0058746337890625,-0.273773193359375
-0.7463836669921875,1.1151885986328125,-0.288360595703125
-0.6581573486328125,1.1124267578125,-0.358001708984375
-0.5713043212890625,1.0374908447265625,-0.386322021484375
-0.5152587890625,1.002838134765625,-0.3685760498046875
-0.4014892578125,0.9772796630859376,-0.2902679443359375
-0.2912139892578125,0.8970184326171875,-0.234954833984375
-0.2177581787109375,0.793121337890625,-0.194183349609375
-0.2063140869140625,0.741424560546875,-0.13323974609375
-0.2467803955078125,0.7895355224609375,-0.1109771728515625
-0.2039794921875,0.84466552734375,-0.1116485595703125
-0.2266387939453125,0.8136749267578125,-0.1788482666015625
-0.466094970703125,0.9543609619140624,-0.1767730712890625
-0.47222900390625,1.0194549560546875,-0.1231536865234375
-0.5146331787109375,0.9676666259765624,-0.183807373046875
-0.665374755859375,1.04888916015625,-0.1347808837890625
-0.7513885498046875,1.163604736328125,-0.1817626953125
-0.7689971923828125,1.0577239990234375,-0.2583160400390625
-0.787078857421875,0.837432861328125,-0.2425994873046875
-0.819183349609375,0.744659423828125,-0.2283477783203125
-0.743133544921875,0.7347564697265625,-0.1629638671875
-0.6304168701171875,0.7470855712890625,-0.101226806640625
-0.5380859375,0.7572784423828125,-0.1408538818359375
-0.5117340087890625,0.7834320068359375,-0.254913330078125
-0.599884033203125,0.8713531494140625,-0.316802978515625
-0.681915283203125,0.88323974609375,-0.3459930419921875
-0.783050537109375,0.7996978759765625,-0.307525634765625
-0.93914794921875,0.96856689453125,-0.3022308349609375
-0.8310394287109375,1.0377960205078125,-0.2649993896484375
-0.725799560546875,0.9365997314453124,-0.3316802978515625
-0.7524566650390625,1.03802490234375,-0.355224609375
-0.721466064453125,1.1498565673828125,-0.300628662109375
-0.5914154052734375,1.164154052734375,-0.36334228515625
-0.4979705810546875,1.0565185546875,-0.410064697265625
-0.4944000244140625,0.9865570068359376,-0.3769073486328125
-0.3846282958984375,0.9205780029296876,-0.2853546142578125
-0.2974853515625,0.828521728515625,-0.2313690185546875
-0.247711181640625,0.7736053466796875,-0.204193115234375
-0.2521820068359375,0.78985595703125,-0.1355743408203125
-0.2904052734375,0.76483154296875,-0.0754241943359375
-0.2752532958984375,0.718475341796875,-0.07550048828125
-0.3083648681640625,0.76708984375,-0.0552825927734375
-0.3994598388671875,0.923553466796875,-0.02740478515625
-0.4376220703125,1.0303955078125,-0.022125244140625
-0.580810546875,0.982391357421875,-0.0243682861328125
-0.7874298095703125,0.969512939453125,-0.00823974609375
-0.9549102783203124,1.0204010009765625,-0.0146484375
-1.03533935546875,1.0853729248046875,0.006927490234375
-1.11566162109375,0.92584228515625,-0.160064697265625
-1.0360565185546875,0.7144622802734375,-0.216094970703125
-0.9514617919921876,0.647613525390625,-0.1320343017578125
-0.783538818359375,0.6153564453125,0.0350494384765625
-0.7272796630859375,0.5726165771484375,-0.0312652587890625
-0.690887451171875,0.5987091064453125,-0.1572265625
-0.7894439697265625,0.6478424072265625,-0.156646728515625
-0.879547119140625,0.6541595458984375,-0.1685943603515625
-0.8477935791015625,0.7426605224609375,-0.1460418701171875
-0.68157958984375,0.860015869140625,-0.2440032958984375
-0.449920654296875,0.881622314453125,-0.3692474365234375
-0.387603759765625,0.84649658203125,-0.433380126953125
-0.3504180908203125,0.827484130859375,-0.4017791748046875
-0.2993011474609375,0.8209228515625,-0.41796875
-0.2554779052734375,0.7874755859375,-0.5839996337890625
-0.3026275634765625,0.786346435546875,-0.729095458984375
-0.514678955078125,0.8247222900390625,-0.5411834716796875
-0.6131439208984375,0.8092193603515625,-0.615570068359375
-0.668060302734375,0.7979583740234375,-0.713348388671875
-0.740692138671875,0.828887939453125,-0.593902587890625
-0.7157745361328125,0.908050537109375,-0.52679443359375
-0.6594696044921875,0.9743804931640624,-0.5078582763671875
-0.6246795654296875,1.0017242431640625,-0.428863525390625
-0.6248779296875,1.042877197265625,-0.31842041015625
-0.61077880859375,1.0881500244140625,-0.2648162841796875
-0.51385498046875,1.0730438232421875,-0.2651214599609375
-0.427734375,1.019561767578125,-0.3154296875
-0.326446533203125,0.920562744140625,-0.353759765625
-0.316986083984375,0.8681640625,-0.258453369140625
-0.281768798828125,0.9304046630859376,-0.1848602294921875
-0.2062225341796875,0.9036102294921876,-0.2226715087890625
-0.2546539306640625,0.7590179443359375,-0.1222381591796875
-0.3055572509765625,0.6533203125,-0.023101806640625
-0.3494873046875,0.828094482421875,-0.0637664794921875
-0.374755859375,0.9371490478515624,-0.0612335205078125
-0.4857635498046875,0.9394683837890624,0.053924560546875
-0.5733489990234375,0.967620849609375,0.1078033447265625
-0.6059417724609375,1.0118408203125,0.0279998779296875
-0.6571197509765625,0.99932861328125,-0.0272674560546875
-0.7002105712890625,0.9885101318359376,-0.005706787109375
-0.735504150390625,0.97723388671875,0.01385498046875
-0.7484893798828125,0.93328857421875,0.0126495361328125
-0.785064697265625,0.9068145751953124,-0.0470733642578125
-0.8026885986328125,0.9415130615234376,-0.14556884765625
-0.7958221435546875,0.8864288330078125,-0.2187652587890625
-0.851318359375,0.9017791748046876,-0.30487060546875
-0.828521728515625,0.90264892578125,-0.3508148193359375
-0.7440643310546875,0.786224365234375,-0.2678375244140625
-0.792755126953125,0.8590240478515625,-0.1812896728515625
-0.777130126953125,0.988433837890625,-0.1888885498046875
-0.7462158203125,1.0648193359375,-0.334228515625
-0.6775970458984375,1.0822601318359375,-0.392547607421875
-0.6305084228515625,1.1073760986328125,-0.40313720703125
-0.53857421875,1.1494140625,-0.3404693603515625
-0.389892578125,1.101654052734375,-0.2771148681640625
-0.2979583740234375,0.9956207275390624,-0.2301483154296875
-0.305023193359375,0.93841552734375,-0.1694183349609375
-0.3115234375,0.957305908203125,-0.1083831787109375
-0.224761962890625,0.88592529296875,-0.044677734375
-0.2698822021484375,0.773223876953125,-0.054443359375
-0.302825927734375,0.8862152099609375,-0.0464630126953125
-0.2656097412109375,0.84893798828125,-0.1314544677734375
-0.47943115234375,0.7942352294921875,-0.0568084716796875
-0.629364013671875,0.937744140625,0.02880859375
-0.62518310546875,1.04443359375,-0.023468017578125
-0.55731201171875,0.9547271728515624,-0.181549072265625
-0.552215576171875,0.8767547607421875,-0.2529449462890625
-0.559234619140625,0.8833465576171875,-0.2262115478515625
-0.610565185546875,0.899261474609375,-0.1580963134765625
-0.6753997802734375,0.8529205322265625,-0.1037139892578125
-0.7560272216796875,0.886444091796875,-0.187652587890625
-0.8035430908203125,0.9896087646484376,-0.313262939453125
-0.831298828125,0.9517364501953124,-0.33868408203125
-0.8191986083984375,0.79150390625,-0.3208465576171875
-0.80731201171875,0.79534912109375,-0.2612762451171875
-0.702606201171875,0.9113006591796876,-0.2061767578125
-0.5940399169921875,0.8998870849609375,-0.205963134765625
-0.6708526611328125,0.8978271484375,-0.26220703125
-0.7679443359375,0.9303131103515624,-0.3329620361328125
-0.73931884765625,0.9826507568359376,-0.235015869140625
-0.68719482421875,0.992645263671875,-0.217987060546875
-0.6667633056640625,1.0153350830078125,-0.2240447998046875
-0.5872344970703125,1.0524749755859375,-0.203216552734375
-0.464019775390625,1.035614013671875,-0.1866912841796875
-0.366912841796875,0.9420623779296876,-0.1450042724609375
-0.3141937255859375,0.877777099609375,-0.1142120361328125
-0.2841339111328125,0.8587646484375,-0.0868988037109375
-0.2445526123046875,0.8677978515625,-0.113006591796875
-0.2701263427734375,0.7822418212890625,-0.209442138671875
-0.4657440185546875,0.920166015625,-0.1444244384765625
-0.3627471923828125,0.961456298828125,-0.195648193359375
-0.3341522216796875,0.879791259765625,-0.352447509765625
-0.48602294921875,0.883026123046875,-0.3187713623046875
-0.5984954833984375,0.980560302734375,-0.2988128662109375
-0.610137939453125,0.998016357421875,-0.286041259765625
-0.589569091796875,0.87823486328125,-0.264617919921875
-0.6178741455078125,0.8349151611328125,-0.2764739990234375
-0.619384765625,0.8408050537109375,-0.351287841796875
-0.5824737548828125,0.8202667236328125,-0.2897491455078125
-0.5921173095703125,0.8964080810546875,-0.2523345947265625
-0.7241058349609375,0.942840576171875,-0.2710418701171875
-0.884552001953125,0.8870849609375,-0.2939453125
-1.047607421875,0.88336181640625,-0.3231048583984375
-0.9415740966796876,0.871826171875,-0.1472625732421875
-0.78204345703125,0.9501800537109376,-0.05682373046875
-0.7238006591796875,1.1905670166015625,-0.0475921630859375
-0.640350341796875,1.235137939453125,-0.1154632568359375
-0.689849853515625,1.040496826171875,-0.2769622802734375
-0.6607208251953125,1.0381927490234375,-0.3028411865234375
-0.5829925537109375,1.1422576904296875,-0.3087921142578125
-0.4146881103515625,1.187835693359375,-0.2993011474609375
-0.3408355712890625,1.043701171875,-0.32366943359375
-0.2928466796875,0.9262237548828124,-0.33251953125
-0.2599639892578125,0.8299102783203125,-0.240692138671875
-0.2484588623046875,0.7743072509765625,-0.1501922607421875
-0.2172088623046875,0.749725341796875,-0.0894317626953125
-0.226898193359375,0.781036376953125,-0.07293701171875
-0.272186279296875,0.877044677734375,-0.072845458984375
-0.316650390625,0.918731689453125,-0.07666015625
-0.46136474609375,0.94464111328125,-0.0089111328125
-0.5093231201171875,1.029144287109375,0.095733642578125
-0.4549713134765625,1.04046630859375,-0.1226348876953125
-0.627288818359375,1.05877685546875,-0.167694091796875
-0.718963623046875,1.08746337890625,-0.099365234375
-0.6463623046875,0.914459228515625,-0.0670928955078125
-0.594512939453125,0.7196807861328125,-0.1417694091796875
-0.5756988525390625,0.6803741455078125,-0.2239532470703125
-0.53594970703125,0.7659454345703125,-0.261566162109375
-0.4751739501953125,0.819580078125,-0.2285919189453125
-0.5274505615234375,0.8012237548828125,-0.2646942138671875
-0.611328125,0.803863525390625,-0.255462646484375
-0.7125244140625,0.874969482421875,-0.2042083740234375
-0.7648773193359375,0.9071502685546876,-0.2225341796875
-0.7660369873046875,0.825286865234375,-0.2337188720703125
-0.8860321044921875,1.04876708984375,-0.2727813720703125
-0.7790374755859375,1.161712646484375,-0.265380859375
-0.67724609375,0.956878662109375,-0.240325927734375
-0.7177734375,1.0039825439453125,-0.2428436279296875
-0.681884765625,1.139984130859375,-0.209716796875
-0.5426483154296875,1.1566009521484375,-0.240936279296875
-0.5020904541015625,1.0561981201171875,-0.3162994384765625
-0.4742279052734375,0.9929962158203124,-0.302215576171875
-0.4024658203125,0.9506988525390624,-0.253570556640625
-0.318603515625,0.837432861328125,-0.191131591796875
-0.292510986328125,0.78167724609375,-0.110992431640625
-0.2660369873046875,0.789031982421875,-0.09832763671875
-0.2465972900390625,0.8650360107421875,-0.1031494140625
-0.20831298828125,0.842376708984375,-0.1239471435546875
-0.3997802734375,0.979461669921875,-0.0914306640625
-0.3673553466796875,0.999786376953125,-0.1457977294921875
-0.425872802734375,0.8665618896484375,-0.1882476806640625
-0.6351165771484375,0.8974456787109375,-0.1160430908203125
-0.7008209228515625,1.0506439208984375,-0.1103057861328125
-0.6177825927734375,1.0088043212890625,-0.17706298828125
-0.5894317626953125,0.856536865234375,-0.254608154296875
-0.6118011474609375,0.85150146484375,-0.319488525390625
-0.58526611328125,0.8616485595703125,-0.3261260986328125
-0.5798797607421875,0.8186798095703125,-0.2125244140625
-0.5827789306640625,0.7612762451171875,-0.1666717529296875
-0.626495361328125,0.8133697509765625,-0.1711578369140625
-0.6566619873046875,0.8721466064453125,-0.173095703125
-0.705810546875,0.890960693359375,-0.1969757080078125
-0.715545654296875,0.84674072265625,-0.2667236328125
-0.8111114501953125,0.9147796630859376,-0.2742767333984375
-0.873046875,1.044403076171875,-0.34771728515625
-0.812896728515625,0.8907623291015625,-0.351226806640625
-0.845062255859375,0.882537841796875,-0.3428497314453125
-0.8036956787109375,1.0723419189453125,-0.2743682861328125
-0.7195281982421875,1.2479248046875,-0.27203369140625
-0.5943145751953125,1.2473907470703125,-0.3779144287109375
-0.52777099609375,1.1417236328125,-0.463287353515625
-0.462890625,1.077667236328125,-0.404571533203125
-0.354827880859375,1.0176544189453125,-0.273284912109375
-0.2394256591796875,0.890045166015625,-0.16046142578125
-0.20758056640625,0.78656005859375,-0.0863037109375
-0.2336883544921875,0.771820068359375,-0.05322265625
-0.204620361328125,0.8089447021484375,-0.0910491943359375
-0.19268798828125,0.7606658935546875,-0.13555908203125
-0.35028076171875,0.87237548828125,-0.0966339111328125
-0.355682373046875,1.016204833984375,-0.16851806640625
-0.44390869140625,0.9691162109375,-0.2663116455078125
-0.6462554931640625,1.0104827880859375,-0.2596893310546875
-0.7649383544921875,1.1167144775390625,-0.26519775390625
-0.723480224609375,1.0225982666015625,-0.16412353515625
-0.6937713623046875,0.8436126708984375,-0.1352691650390625
-0.671600341796875,0.7857208251953125,-0.1507568359375
-0.6873626708984375,0.8217010498046875,-0.1352996826171875
-0.7086639404296875,0.7866973876953125,-0.173797607421875
-0.7999420166015625,0.738311767578125,-0.25396728515625
-0.926055908203125,0.813934326171875,-0.3437957763671875
-0.952911376953125,0.8929443359375,-0.361907958984375
-0.86346435546875,0.9327545166015624,-0.245697021484375
-0.8300628662109375,0.95135498046875,-0.1970367431640625
-0.8524932861328125,1.2047271728515625,-0.1591644287109375
-0.6267242431640625,1.1662445068359375,-0.116424560546875
-0.6516571044921875,0.9645843505859376,-0.195037841796875
-0.742218017578125,1.140899658203125,-0.2186126708984375
-0.647125244140625,1.295562744140625,-0.1778106689453125
-0.40289306640625,1.144287109375,-0.133819580078125
-0.3624267578125,0.9289398193359376,-0.0592803955078125
-0.3510284423828125,0.793121337890625,-0.041900634765625
-0.2374267578125,0.7078399658203125,-0.040130615234375
-0.1650848388671875,0.632415771484375,-0.03277587890625
-0.1928253173828125,0.6226959228515625,-0.004608154296875
-0.267425537109375,0.68670654296875,-0.01763916015625
-0.3555755615234375,0.81781005859375,-0.0985565185546875
-0.4357452392578125,0.9760284423828124,-0.1990966796875
-0.521820068359375,1.0514068603515625,-0.2857818603515625
-0.6766357421875,1.2305755615234375,-0.30206298828125
-0.5832061767578125,1.27032470703125,-0.410888671875
-0.566162109375,1.0497894287109375,-0.5190887451171875
-0.8261871337890625,1.127105712890625,-0.4310302734375
-0.84234619140625,1.0736083984375,-0.2595062255859375
-0.74530029296875,0.771026611328125,-0.211212158203125
-0.7147064208984375,0.5768280029296875,-0.2350921630859375
-0.668243408203125,0.594512939453125,-0.1717987060546875
-0.54693603515625,0.7105560302734375,-0.1121673583984375
-0.41986083984375,0.7525177001953125,-0.15289306640625
-0.4201202392578125,0.76336669921875,-0.2543182373046875
-0.545074462890625,0.8759765625,-0.291534423828125
-0.67431640625,0.9761199951171876,-0.228912353515625
-0.7129669189453125,0.943817138671875,-0.208160400390625
-0.7734832763671875,0.858489990234375,-0.1980133056640625
-0.820892333984375,1.0119781494140625,-0.110565185546875
-0.732513427734375,1.2161102294921875,-0.168701171875
-0.62786865234375,1.1014556884765625,-0.2745819091796875
-0.7102203369140625,1.09112548828125,-0.350555419921875
-0.6722564697265625,1.1512298583984375,-0.2696075439453125
-0.536224365234375,1.1533050537109375,-0.2541351318359375
-0.391021728515625,1.0217132568359375,-0.31610107421875
-0.3373260498046875,0.9199981689453124,-0.337554931640625
-0.298553466796875,0.8710784912109375,-0.2762603759765625
-0.31158447265625,0.81744384765625,-0.1318206787109375
-0.3572998046875,0.7245330810546875,0.0627899169921875
-0.3158416748046875,0.71429443359375,0.008026123046875
-0.26983642578125,0.77301025390625,-0.1782073974609375
-0.3162841796875,0.8848724365234375,-0.1894073486328125
-0.3512725830078125,0.859954833984375,-0.0363311767578125
-0.6382904052734375,1.0330963134765625,0.05303955078125
-0.58709716796875,1.0557098388671875,-0.1556549072265625
-0.61187744140625,0.9526214599609376,-0.1901702880859375
-0.8243408203125,0.864959716796875,-0.1623077392578125
-0.9916229248046876,0.8528900146484375,-0.0777130126953125
-0.899017333984375,0.7802886962890625,-0.11444091796875
-0.8499908447265625,0.6461639404296875,-0.210174560546875
-0.8290557861328125,0.5445098876953125,-0.387542724609375
-0.7558746337890625,0.5495452880859375,-0.302581787109375
-0.731353759765625,0.6348114013671875,-0.261138916015625
-0.6880950927734375,0.6894989013671875,-0.2689971923828125
-0.67999267578125,0.605133056640625,-0.2680206298828125
-0.7647552490234375,0.7592315673828125,-0.177276611328125
-0.664794921875,0.7256317138671875,-0.29278564453125
-0.68511962890625,0.74554443359375,-0.2524261474609375
-0.826080322265625,0.8238983154296875,-0.2753753662109375
-0.942962646484375,0.941253662109375,-0.287109375
-0.8759918212890625,0.8856201171875,-0.2557373046875
-0.78546142578125,0.6868743896484375,-0.279632568359375
-0.7682037353515625,0.742034912109375,-0.2744598388671875
-0.806121826171875,1.005126953125,-0.2693328857421875
-0.73309326171875,1.1208953857421875,-0.364105224609375
-0.68463134765625,0.98272705078125,-0.3907928466796875
-0.655517578125,0.9309844970703124,-0.3367156982421875
-0.523284912109375,0.9131317138671876,-0.3073272705078125
-0.3787841796875,0.8243255615234375,-0.2298736572265625
-0.29266357421875,0.7010955810546875,-0.165374755859375
-0.241851806640625,0.6474151611328125,-0.1532745361328125
-0.2198028564453125,0.651123046875,-0.144317626953125
-0.2779998779296875,0.676239013671875,-0.1324615478515625
-0.389190673828125,0.7255096435546875,-0.0853729248046875
-0.58966064453125,0.853546142578125,0.002288818359375
-0.65142822265625,0.9864654541015624,-0.006317138671875
-0.6964874267578125,1.1107635498046875,-0.2530670166015625
-0.790069580078125,0.95770263671875,-0.32867431640625
-0.957061767578125,0.8578643798828125,-0.1443023681640625
-1.07415771484375,0.8603668212890625,-0.061492919921875
-1.152496337890625,0.8289337158203125,-0.0886077880859375
-1.0600738525390625,0.70263671875,-0.17730712890625
-0.90789794921875,0.69110107421875,-0.2509002685546875
-0.753326416015625,0.705810546875,-0.249114990234375
-0.6590576171875,0.665771484375,-0.216766357421875
-0.6063079833984375,0.6309051513671875,-0.2023773193359375
-0.619659423828125,0.62359619140625,-0.2171630859375
-0.6352996826171875,0.7192840576171875,-0.2681884765625
-0.618804931640625,0.838836669921875,-0.387908935546875
-0.594879150390625,0.9086456298828124,-0.488800048828125
-0.562408447265625,0.92669677734375,-0.5123291015625
-0.4403076171875,0.9115447998046876,-0.4929046630859375
-0.3427886962890625,0.8730926513671875,-0.4132080078125
-0.360870361328125,0.85394287109375,-0.373321533203125
-0.368743896484375,0.8277435302734375,-0.3339996337890625
-0.4690399169921875,0.846710205078125,-0.3255615234375
-0.642333984375,0.9796142578125,-0.3355255126953125
-0.71343994140625,0.928955078125,-0.361541748046875
-0.74200439453125,0.80914306640625,-0.4442138671875
-0.7431488037109375,0.7781524658203125,-0.51123046875
-0.7917633056640625,0.8175506591796875,-0.4951171875
-0.654998779296875,0.8120269775390625,-0.553924560546875
-0.6286163330078125,0.6533355712890625,-0.6929931640625
-0.8290252685546875,0.7325897216796875,-1.0148773193359375
-0.846771240234375,0.8403167724609375,-0.8086700439453125
-0.71136474609375,0.8464508056640625,-0.7400970458984375
-0.598907470703125,0.810882568359375,-0.743804931640625
-0.4779815673828125,0.44952392578125,-0.8101806640625
-0.5541229248046875,0.2001800537109375,-0.8705902099609375
-0.644012451171875,0.1872406005859375,-0.849884033203125
-0.2521514892578125,-0.3076171875,-0.746673583984375
-0.0213470458984375,-0.69915771484375,-0.42059326171875
0.188018798828125,-0.8016815185546875,-0.3568878173828125
-0.0406951904296875,-0.7274169921875,-0.7551116943359375
-0.1670684814453125,-0.6796722412109375,-0.9018402099609376
0.004486083984375,-0.549407958984375,-0.989990234375
0.2056427001953125,-0.504669189453125,-0.9642486572265624
0.1196136474609375,-0.4456939697265625,-0.5670013427734375
0.087371826171875,-0.54534912109375,-0.4120025634765625
0.0387115478515625,-0.7165374755859375,-0.48248291015625
-0.0262451171875,-0.665618896484375,-0.8048553466796875
0.02459716796875,-0.709442138671875,-0.882781982421875
-0.083984375,-0.7380218505859375,-0.824737548828125
-0.088775634765625,-0.5882110595703125,-0.7623748779296875
-0.0353240966796875,-0.5671234130859375,-0.9073944091796876
-0.104766845703125,-0.5270233154296875,-0.6886444091796875
-0.1251678466796875,-0.5224151611328125,-0.66943359375
-0.1398162841796875,-0.5255584716796875,-0.7120361328125
-0.1161041259765625,-0.59429931640625,-0.74395751953125
-0.1232452392578125,-0.594146728515625,-0.5794219970703125
-0.1001434326171875,-0.592559814453125,-0.907379150390625
-0.0858612060546875,-0.6243438720703125,-0.9095001220703124
