AccelerationX,AccelerationY,AccelerationZ
-0.435089111328125,0.794921875,-0.3785247802734375
-0.4578704833984375,0.7650299072265625,-0.2833251953125
-0.5257110595703125,0.8035125732421875,-0.4170379638671875
-0.4735107421875,0.7857208251953125,-0.3714599609375
-0.44598388671875,0.772552490234375,-0.2977294921875
-0.4644317626953125,0.804595947265625,-0.4222412109375
-0.4610137939453125,0.7979278564453125,-0.403656005859375
-0.4704742431640625,0.776458740234375,-0.3157196044921875
-0.4762115478515625,0.7710723876953125,-0.38775634765625
-0.4756317138671875,0.7789154052734375,-0.407623291015625
-0.4988555908203125,0.790985107421875,-0.399810791015625
-0.4560699462890625,0.7668914794921875,-0.355377197265625
-0.4775848388671875,0.7637786865234375,-0.411529541015625
-0.475372314453125,0.7766876220703125,-0.3770294189453125
-0.494903564453125,0.77740478515625,-0.4133758544921875
-0.471893310546875,0.7633514404296875,-0.37286376953125
-0.457305908203125,0.7706756591796875,-0.3796539306640625
-0.471588134765625,0.7852630615234375,-0.441619873046875
-0.4799346923828125,0.766510009765625,-0.3913726806640625
-0.46820068359375,0.7459869384765625,-0.346893310546875
-0.4811248779296875,0.7701263427734375,-0.41015625
-0.479400634765625,0.77740478515625,-0.414520263671875
-0.4640655517578125,0.7772064208984375,-0.3973541259765625
-0.463043212890625,0.77191162109375,-0.4149169921875
-0.467132568359375,0.7809906005859375,-0.418792724609375
-0.459686279296875,0.7598876953125,-0.41326904296875
-0.4777374267578125,0.7650604248046875,-0.391754150390625
-0.460296630859375,0.7730560302734375,-0.4171142578125
-0.4608306884765625,0.7700653076171875,-0.3882904052734375
-0.483367919921875,0.7801513671875,-0.4066619873046875
-0.474884033203125,0.7708587646484375,-0.41180419921875
-0.4809417724609375,0.7647552490234375,-0.4051666259765625
-0.4519500732421875,0.76092529296875,-0.3701019287109375
-0.478240966796875,0.7789154052734375,-0.40020751953125
-0.49102783203125,0.770355224609375,-0.395660400390625
-0.4760589599609375,0.7599334716796875,-0.3828582763671875
-0.47100830078125,0.8013153076171875,-0.427154541015625
-0.45172119140625,0.78839111328125,-0.4192047119140625
-0.4583282470703125,0.750640869140625,-0.3636016845703125
-0.5186309814453125,0.7666168212890625,-0.4387969970703125
-0.48272705078125,0.728729248046875,-0.4210205078125
-0.469146728515625,0.7532958984375,-0.43359375
-0.5229949951171875,0.7808685302734375,-0.4202117919921875
-0.4706268310546875,0.75592041015625,-0.328094482421875
-0.4861602783203125,0.71630859375,-0.2861785888671875
-0.5472564697265625,0.77313232421875,-0.300048828125
-0.6082611083984375,0.787139892578125,-0.3055877685546875
-0.6475830078125,0.7889556884765625,-0.2370758056640625
-0.7427520751953125,0.714019775390625,-0.2191925048828125
-0.7115020751953125,0.6369781494140625,-0.1521148681640625
-0.7063446044921875,0.623992919921875,-0.171905517578125
-0.6880645751953125,0.6738433837890625,-0.2021942138671875
-0.6678619384765625,0.668365478515625,-0.2057647705078125
-0.70947265625,0.6803131103515625,-0.174407958984375
-0.72662353515625,0.6632537841796875,-0.1259765625
-0.7031402587890625,0.6653594970703125,-0.0890350341796875
-0.6820068359375,0.683746337890625,-0.05096435546875
-0.73089599609375,0.678375244140625,-0.0604095458984375
-0.82513427734375,0.6608734130859375,-0.090972900390625
-0.7864990234375,0.64501953125,-0.0731353759765625
-0.843170166015625,0.6569671630859375,-0.0376739501953125
-0.8356781005859375,0.7240447998046875,-0.1433868408203125
-0.811248779296875,0.7441864013671875,-0.3500518798828125
-0.7850799560546875,0.7498626708984375,-0.3910675048828125
-0.6658477783203125,0.6124725341796875,-0.2022705078125
-0.5937957763671875,0.5831451416015625,-0.12249755859375
-0.75091552734375,0.71490478515625,-0.172698974609375
-0.672637939453125,0.7980499267578125,-0.184051513671875
-0.58306884765625,0.6962890625,-0.1067352294921875
-0.587493896484375,0.65948486328125,-0.12591552734375
-0.5329132080078125,0.67498779296875,-0.14422607421875
-0.4873809814453125,0.7107391357421875,-0.0574798583984375
-0.5305023193359375,0.7308807373046875,-0.0656890869140625
-0.6159515380859375,0.779541015625,-0.0822906494140625
-0.746429443359375,0.923828125,-0.0404815673828125
-0.758819580078125,0.881866455078125,-0.065460205078125
-0.679534912109375,0.7817230224609375,-0.069061279296875
-0.7269439697265625,0.7678375244140625,0.0352935791015625
-0.752288818359375,0.910736083984375,-0.0560760498046875
-0.5950927734375,0.81353759765625,-0.295928955078125
-0.65692138671875,0.6920623779296875,-0.1404266357421875
-0.66455078125,0.712432861328125,-0.0489501953125
-0.6505279541015625,0.707122802734375,-0.0765838623046875
-0.5849456787109375,0.580413818359375,-0.023651123046875
-0.65155029296875,0.56475830078125,0.0574188232421875
-0.72967529296875,0.6121063232421875,-0.0060882568359375
-0.697998046875,0.6449432373046875,-0.064910888671875
-0.741424560546875,0.611083984375,-0.0931854248046875
-0.7776336669921875,0.66949462890625,-0.106170654296875
-0.73138427734375,0.85302734375,-0.0595550537109375
-0.6827850341796875,0.8044891357421875,-0.0717620849609375
-0.73797607421875,0.791717529296875,-0.148895263671875
-0.7562408447265625,0.93133544921875,-0.1757965087890625
-0.7109375,0.9014129638671876,-0.201690673828125
-0.626007080078125,0.7435760498046875,-0.1918792724609375
-0.5835113525390625,0.735870361328125,-0.14971923828125
-0.6682586669921875,0.7786102294921875,-0.197265625
-0.6433563232421875,0.773406982421875,-0.146820068359375
-0.4496612548828125,0.724609375,0.00555419921875
-0.468475341796875,0.68096923828125,-0.0389251708984375
-0.5471038818359375,0.6890411376953125,-0.1122283935546875
-0.52581787109375,0.66778564453125,-0.0422821044921875
-0.514007568359375,0.6850433349609375,0.04351806640625
-0.586578369140625,0.7366485595703125,-0.0301513671875
-0.6986083984375,0.8703155517578125,-0.146820068359375
-0.7286529541015625,0.879302978515625,-0.222412109375
-0.720367431640625,0.8587493896484375,-0.114715576171875
-0.8560638427734375,0.9107666015625,-0.1018218994140625
-0.746795654296875,0.7412872314453125,-0.1678466796875
-0.6501922607421875,0.5539398193359375,-0.1403045654296875
-0.734130859375,0.5929412841796875,-0.0639495849609375
-0.8445587158203125,0.7228240966796875,-0.137939453125
-0.7791748046875,0.67742919921875,-0.2116546630859375
-0.713897705078125,0.555999755859375,-0.14801025390625
-0.6867523193359375,0.5861663818359375,-0.0263214111328125
-0.63433837890625,0.6435546875,0.0439605712890625
-0.6075592041015625,0.657318115234375,0.00091552734375
-0.7014007568359375,0.6793060302734375,-0.058349609375
-0.740814208984375,0.7281951904296875,-0.0024261474609375
-0.7432403564453125,0.754669189453125,-0.0244903564453125
-0.760223388671875,0.7720794677734375,-0.0603485107421875
-0.7781524658203125,0.759979248046875,-0.0963287353515625
-0.830841064453125,0.830291748046875,-0.146270751953125
-0.746673583984375,0.917266845703125,-0.1883087158203125
-0.62127685546875,0.79266357421875,-0.134033203125
-0.665679931640625,0.6751708984375,-0.105224609375
-0.6020965576171875,0.744720458984375,-0.2001953125
-0.6203155517578125,0.8017425537109375,-0.172454833984375
-0.5995635986328125,0.673980712890625,-0.1303558349609375
-0.5672454833984375,0.5725250244140625,-0.118377685546875
-0.5689544677734375,0.6150665283203125,-0.1363372802734375
-0.568756103515625,0.6639251708984375,-0.09661865234375
-0.6034088134765625,0.70025634765625,-0.0720367431640625
-0.6516876220703125,0.716766357421875,-0.024871826171875
-0.6587371826171875,0.742156982421875,-0.049896240234375
-0.7078704833984375,0.7624664306640625,-0.03070068359375
-0.7118988037109375,0.768646240234375,-0.008331298828125
-0.6829681396484375,0.7482452392578125,-0.095916748046875
-0.787078857421875,0.98919677734375,-0.0735015869140625
-0.695465087890625,0.70574951171875,-0.217498779296875
-0.768524169921875,0.541259765625,-0.1408538818359375
-0.7664031982421875,0.664794921875,-0.03515625
-0.6945343017578125,0.777923583984375,-0.0843658447265625
-0.63214111328125,0.6764068603515625,-0.1907501220703125
-0.5850067138671875,0.598388671875,-0.1021575927734375
-0.5571136474609375,0.627838134765625,0.0066375732421875
-0.5532989501953125,0.67529296875,0.002044677734375
-0.592559814453125,0.6625518798828125,-0.1482696533203125
-0.69378662109375,0.630615234375,-0.18292236328125
-0.787506103515625,0.679168701171875,-0.0890350341796875
-0.857086181640625,0.813873291015625,-0.1435089111328125
-0.834625244140625,0.8236541748046875,-0.2302093505859375
-0.866241455078125,0.7880706787109375,-0.13623046875
-0.8424835205078125,0.8903656005859375,-0.1826629638671875
-0.7206268310546875,0.8356781005859375,-0.2144927978515625
-0.6929931640625,0.7024078369140625,-0.1075592041015625
-0.6247100830078125,0.7887115478515625,-0.09710693359375
-0.5555572509765625,0.8333892822265625,-0.0971221923828125
-0.545684814453125,0.71307373046875,-0.091644287109375
-0.5561065673828125,0.645111083984375,-0.08453369140625
-0.4787139892578125,0.6653900146484375,-0.095062255859375
-0.488739013671875,0.6877593994140625,-0.0608062744140625
-0.5399932861328125,0.7154998779296875,-0.0530853271484375
-0.5662078857421875,0.744537353515625,-0.099456787109375
-0.6701507568359375,0.8158416748046875,-0.1090087890625
-0.7571563720703125,0.91473388671875,-0.09814453125
-0.6948699951171875,0.8496246337890625,-0.1014404296875
-0.8047332763671875,0.9698028564453124,-0.0749664306640625
-0.674102783203125,0.8685302734375,-0.1806182861328125
-0.5891876220703125,0.6498260498046875,-0.264404296875
-0.6475830078125,0.6115264892578125,-0.055084228515625
-0.6589508056640625,0.70782470703125,0.05206298828125
-0.6394500732421875,0.716827392578125,-0.08319091796875
-0.574249267578125,0.6330108642578125,-0.1240692138671875
-0.5800323486328125,0.6074676513671875,-0.06109619140625
-0.6185455322265625,0.618988037109375,-0.0013580322265625
-0.6532440185546875,0.628570556640625,0.0504608154296875
-0.7102813720703125,0.638763427734375,-0.00836181640625
-0.7753143310546875,0.6533966064453125,-0.066192626953125
-0.825286865234375,0.7396392822265625,-0.09014892578125
-0.8696136474609375,0.782440185546875,-0.0698699951171875
-0.7987518310546875,0.7899627685546875,-0.0442352294921875
-0.7875518798828125,0.9233245849609376,-0.05108642578125
-0.7291717529296875,0.9441680908203124,-0.14697265625
-0.656707763671875,0.7606964111328125,-0.178466796875
-0.6448822021484375,0.7227630615234375,-0.0850830078125
-0.5769500732421875,0.839508056640625,-0.0896148681640625
-0.5712432861328125,0.8205413818359375,-0.0821380615234375
-0.5761566162109375,0.7261962890625,-0.167144775390625
-0.544525146484375,0.688690185546875,-0.1326751708984375
-0.5897369384765625,0.661468505859375,-0.03082275390625
-0.592498779296875,0.678741455078125,-0.0052947998046875
-0.468719482421875,0.7300567626953125,-0.0060577392578125
-0.413116455078125,0.779144287109375,-0.01654052734375
-0.5609893798828125,0.8267974853515625,-0.090179443359375
-0.6888427734375,0.9045867919921876,-0.0822601318359375
-0.72442626953125,0.889617919921875,-0.0787506103515625
-0.787567138671875,1.055023193359375,-0.1060943603515625
-0.6083831787109375,0.7929840087890625,-0.242431640625
-0.5823516845703125,0.5565185546875,-0.15985107421875
-0.746429443359375,0.63665771484375,0.0206146240234375
-0.8583831787109375,0.7889556884765625,-0.0230560302734375
-0.782928466796875,0.694976806640625,-0.1477813720703125
-0.6587982177734375,0.585174560546875,-0.21197509765625
-0.6261138916015625,0.5831451416015625,-0.0940093994140625
-0.64794921875,0.61773681640625,0.0466156005859375
-0.60321044921875,0.630615234375,0.120361328125
-0.5775604248046875,0.642364501953125,0.051239013671875
-0.7156829833984375,0.66912841796875,-0.050445556640625
-0.8581085205078125,0.808624267578125,-0.009521484375
-0.9049224853515624,0.920684814453125,-0.0254669189453125
-0.7828216552734375,0.8810577392578125,-0.1068878173828125
-0.698394775390625,0.9542999267578124,-0.0802459716796875
-0.6766357421875,0.858856201171875,-0.090423583984375
-0.6442413330078125,0.6337127685546875,-0.151275634765625
-0.6616668701171875,0.6616058349609375,-0.2231903076171875
-0.636016845703125,0.775238037109375,-0.2062835693359375
-0.56207275390625,0.7688140869140625,-0.1073150634765625
-0.499176025390625,0.6716156005859375,-0.0828399658203125
-0.5207366943359375,0.64080810546875,-0.145355224609375
-0.528106689453125,0.631256103515625,-0.1496124267578125
-0.4959564208984375,0.68096923828125,-0.0325469970703125
-0.4561614990234375,0.73077392578125,0.0022125244140625
-0.5872650146484375,0.7598724365234375,0.01953125
-0.7369842529296875,0.93182373046875,-0.0290985107421875
-0.7216949462890625,0.9180755615234376,-0.063507080078125
-0.717529296875,0.7762298583984375,-0.0384368896484375
-0.7958526611328125,0.93670654296875,0.0157318115234375
-0.7034912109375,0.7443084716796875,-0.161590576171875
-0.689056396484375,0.55224609375,-0.111297607421875
-0.761749267578125,0.6597442626953125,-0.0254364013671875
-0.7728271484375,0.747894287109375,-0.1056976318359375
-0.678466796875,0.6944732666015625,-0.1793975830078125
-0.6085052490234375,0.6494598388671875,-0.18792724609375
-0.59320068359375,0.682769775390625,-0.1463775634765625
-0.574188232421875,0.656982421875,-0.1294097900390625
-0.61712646484375,0.6731719970703125,-0.1086273193359375
-0.6815643310546875,0.7063140869140625,-0.0340576171875
-0.6994781494140625,0.7320709228515625,-0.01263427734375
-0.64178466796875,0.75567626953125,-0.0682830810546875
-0.6246337890625,0.7554473876953125,-0.10540771484375
-0.7304229736328125,0.7966156005859375,-0.0391998291015625
-0.8016204833984375,1.08856201171875,-0.0972900390625
-0.6903228759765625,0.8849639892578125,-0.15313720703125
-0.7021636962890625,0.754425048828125,-0.0373077392578125
-0.619110107421875,0.89422607421875,-0.1124420166015625
-0.5236358642578125,0.851104736328125,-0.12249755859375
-0.5659027099609375,0.7208099365234375,-0.15313720703125
-0.5374755859375,0.6835784912109375,-0.1378936767578125
-0.489593505859375,0.689208984375,-0.0499420166015625
-0.50225830078125,0.679718017578125,-0.02337646484375
-0.543304443359375,0.6934051513671875,-0.082977294921875
-0.5033721923828125,0.75311279296875,-0.1001739501953125
-0.61627197265625,0.816680908203125,-0.0067901611328125
-0.747467041015625,0.9430389404296876,-0.0421295166015625
-0.697052001953125,0.920379638671875,-0.1187286376953125
-0.7162322998046875,1.040069580078125,-0.1435394287109375
-0.6231842041015625,0.8675994873046875,-0.2073516845703125
-0.56744384765625,0.5699615478515625,-0.0744781494140625
-0.670867919921875,0.6367034912109375,0.040740966796875
-0.704925537109375,0.7840118408203125,0.023406982421875
-0.6112823486328125,0.7153778076171875,-0.1514129638671875
-0.529144287109375,0.6002349853515625,-0.192962646484375
-0.532623291015625,0.589447021484375,-0.068145751953125
-0.583984375,0.6220245361328125,0.015350341796875
-0.6270904541015625,0.6390533447265625,0.023468017578125
-0.6980743408203125,0.6446533203125,-0.0877227783203125
-0.798675537109375,0.70135498046875,-0.1576995849609375
-0.838592529296875,0.785552978515625,-0.1314239501953125
-0.8354034423828125,0.7997589111328125,-0.0829925537109375
-0.862518310546875,0.8727569580078125,-0.0907135009765625
-0.7878570556640625,0.8936004638671875,-0.174957275390625
-0.7403106689453125,0.8238983154296875,-0.2003631591796875
-0.740264892578125,0.7382659912109375,-0.0991668701171875
-0.65191650390625,0.859619140625,-0.1328125
-0.6170654296875,0.9083709716796876,-0.1340179443359375
-0.5609283447265625,0.7616119384765625,-0.133697509765625
-0.5019378662109375,0.686859130859375,-0.0997161865234375
-0.4709320068359375,0.6865234375,-0.092376708984375
-0.4947967529296875,0.693267822265625,-0.0500946044921875
-0.4647979736328125,0.6778411865234375,0.007171630859375
-0.4746856689453125,0.70599365234375,-0.031005859375
-0.5897216796875,0.8210296630859375,-0.0828399658203125
-0.6833953857421875,0.9207000732421876,-0.120574951171875
-0.69036865234375,0.8726043701171875,-0.0733642578125
-0.723663330078125,1.01348876953125,-0.0355072021484375
-0.6363983154296875,0.8517303466796875,-0.1852569580078125
-0.56182861328125,0.6400604248046875,-0.1678009033203125
-0.677459716796875,0.639007568359375,-0.01678466796875
-0.6645660400390625,0.792572021484375,0.021636962890625
-0.5827484130859375,0.8516082763671875,-0.1030120849609375
-0.5008544921875,0.7656097412109375,-0.1925048828125
-0.5152130126953125,0.666778564453125,-0.1141510009765625
-0.6031341552734375,0.60174560546875,-0.045135498046875
-0.6944122314453125,0.58673095703125,-0.01885986328125
-0.7656707763671875,0.6239471435546875,-0.018524169921875
-0.776397705078125,0.6591796875,-0.0367431640625
-0.8651885986328125,0.7269134521484375,-0.069976806640625
-0.930755615234375,0.7447357177734375,-0.049407958984375
-0.9576568603515624,0.7467498779296875,-0.027252197265625
-0.9212646484375,0.8363037109375,-0.1196746826171875
-0.8190155029296875,0.8725738525390625,-0.1836700439453125
-0.7299346923828125,0.7731781005859375,-0.2678070068359375
-0.7230682373046875,0.7054443359375,-0.23663330078125
-0.7205657958984375,0.8256988525390625,-0.1161041259765625
-0.615234375,0.9121551513671876,-0.2031707763671875
-0.58660888671875,0.7999267578125,-0.22723388671875
-0.621063232421875,0.6743621826171875,-0.12554931640625
-0.609283447265625,0.6492156982421875,-0.16632080078125
-0.539276123046875,0.7069549560546875,-0.1504669189453125
-0.548553466796875,0.6600341796875,-0.0884857177734375
-0.6378173828125,0.61566162109375,-0.0109710693359375
-0.69232177734375,0.6220245361328125,-0.004241943359375
-0.7770843505859375,0.6277313232421875,0.05596923828125
-0.837799072265625,0.72918701171875,0.0299072265625
-0.7472381591796875,0.6450042724609375,-0.06610107421875
-0.7812652587890625,0.474853515625,-0.195892333984375
-0.8060455322265625,0.4698486328125,-0.104888916015625
-0.82855224609375,0.6558074951171875,-0.0367431640625
-0.874267578125,0.7408294677734375,-0.0392303466796875
-0.90216064453125,0.595916748046875,-0.044525146484375
-0.8487701416015625,0.563934326171875,-0.2420654296875
-0.7103424072265625,0.541534423828125,-0.311370849609375
-0.69622802734375,0.5383758544921875,-0.1574859619140625
-0.7311553955078125,0.5507965087890625,0.0059814453125
-0.6685638427734375,0.602783203125,-0.04376220703125
-0.7292938232421875,0.6634979248046875,-0.1158447265625
-0.802093505859375,0.6344146728515625,-0.150360107421875
-0.7661285400390625,0.6862945556640625,-0.1585845947265625
-0.6882171630859375,0.723724365234375,-0.1170196533203125
-0.6541595458984375,0.6879730224609375,-0.059814453125
-0.7324981689453125,0.60986328125,-0.152618408203125
-0.7655792236328125,0.5989227294921875,-0.2399139404296875
-0.8529510498046875,0.6429595947265625,-0.3607635498046875
-0.8556976318359375,0.624237060546875,-0.4637298583984375
-0.850006103515625,0.644195556640625,-0.4657440185546875
-0.8427886962890625,0.6446533203125,-0.5126190185546875
-0.826263427734375,0.6506195068359375,-0.46881103515625
-0.7772216796875,0.71234130859375,-0.327972412109375
-0.69659423828125,0.725494384765625,-0.288482666015625
-0.658538818359375,0.6986541748046875,-0.3363189697265625
-0.6637420654296875,0.7056427001953125,-0.306182861328125
-0.653533935546875,0.7319793701171875,-0.28570556640625
-0.6107025146484375,0.7518310546875,-0.337890625
-0.7205352783203125,0.8297119140625,-0.291168212890625
-0.7233734130859375,0.9391937255859376,-0.2733001708984375
-0.5550994873046875,0.834869384765625,-0.203704833984375
-0.5142822265625,0.7514801025390625,-0.044830322265625
-0.5456085205078125,0.7020111083984375,0.0740509033203125
-0.5984954833984375,0.81500244140625,0.0298004150390625
-0.6045684814453125,0.896728515625,-0.0406646728515625
-0.5789337158203125,0.82916259765625,-0.0805816650390625
-0.5360565185546875,0.740020751953125,-0.114288330078125
-0.4919891357421875,0.695465087890625,-0.0469970703125
-0.50848388671875,0.695037841796875,0.070159912109375
-0.588836669921875,0.722747802734375,0.0138092041015625
-0.689422607421875,0.7398834228515625,-0.04949951171875
-0.8139190673828125,0.690093994140625,-0.075927734375
-0.8672637939453125,0.638702392578125,-0.0507659912109375
-0.885162353515625,0.63983154296875,-0.080810546875
-0.8834991455078125,0.6981658935546875,-0.14794921875
-0.8420257568359375,0.6973876953125,-0.188995361328125
-0.9374237060546876,0.8220672607421875,-0.1751708984375
-0.8669891357421875,0.8294830322265625,-0.2019805908203125
-0.762481689453125,0.708404541015625,-0.200225830078125
-0.751922607421875,0.695465087890625,-0.1862640380859375
-0.6669921875,0.8006134033203125,-0.2103729248046875
-0.624786376953125,0.886383056640625,-0.2104339599609375
-0.55682373046875,0.81744384765625,-0.138214111328125
-0.472869873046875,0.7447052001953125,-0.1263885498046875
-0.5248260498046875,0.7589111328125,-0.166107177734375
-0.5634765625,0.7873687744140625,-0.031890869140625
-0.46221923828125,0.754547119140625,0.0662078857421875
-0.4407196044921875,0.696197509765625,0.0106658935546875
-0.6014556884765625,0.742919921875,-0.149200439453125
-0.738861083984375,0.87933349609375,-0.1761016845703125
-0.6226348876953125,0.8618011474609375,-0.073394775390625
-0.7604217529296875,0.9566650390625,-0.0390472412109375
-0.6968536376953125,0.9300994873046876,-0.1283111572265625
-0.5790557861328125,0.7636871337890625,-0.2198638916015625
-0.620819091796875,0.6862945556640625,-0.064239501953125
-0.6298980712890625,0.694610595703125,0.047088623046875
-0.64129638671875,0.6894989013671875,0.0113983154296875
-0.5923309326171875,0.6403045654296875,-0.0749664306640625
-0.5669097900390625,0.6013336181640625,-0.117767333984375
-0.6428375244140625,0.58551025390625,-0.0340576171875
-0.6980743408203125,0.576019287109375,0.05859375
-0.7420196533203125,0.584686279296875,0.0276947021484375
-0.8384552001953125,0.6505584716796875,-0.0548553466796875
-0.9091949462890624,0.8289947509765625,-0.061248779296875
-0.912017822265625,0.8818206787109375,0.0489349365234375
-0.7753753662109375,0.7818756103515625,0.0377197265625
-0.851593017578125,0.926361083984375,-0.19866943359375
-0.8753509521484375,0.9250946044921876,-0.247955322265625
-0.725128173828125,0.76690673828125,-0.1536407470703125
-0.6181182861328125,0.7880401611328125,-0.0668182373046875
-0.5433502197265625,0.807861328125,-0.07574462890625
-0.546417236328125,0.752838134765625,-0.1832733154296875
-0.5023345947265625,0.7137603759765625,-0.124908447265625
-0.480560302734375,0.70611572265625,-0.0303192138671875
-0.547882080078125,0.6845550537109375,0.0221710205078125
-0.5952301025390625,0.6560211181640625,-0.0066375732421875
-0.6063995361328125,0.70477294921875,-0.068634033203125
-0.64886474609375,0.7685699462890625,-0.0859527587890625
-0.6410064697265625,0.8832244873046875,0.0131988525390625
-0.6450347900390625,0.8753814697265625,-0.0625152587890625
-0.6430816650390625,0.7575531005859375,-0.1678466796875
-0.6326141357421875,0.87994384765625,-0.05499267578125
-0.5846099853515625,0.905303955078125,-0.1279449462890625
-0.59063720703125,0.7364349365234375,-0.2144622802734375
-0.6789398193359375,0.7410125732421875,-0.1797332763671875
-0.695556640625,0.79571533203125,-0.2181243896484375
-0.650970458984375,0.728302001953125,-0.200408935546875
-0.618316650390625,0.5982208251953125,-0.0764617919921875
-0.633331298828125,0.5514984130859375,0.0100555419921875
-0.6706085205078125,0.5826263427734375,0.06341552734375
-0.695770263671875,0.63092041015625,-0.004608154296875
-0.758514404296875,0.6342010498046875,-0.091033935546875
-0.8565673828125,0.6830291748046875,-0.1123809814453125
-0.9142913818359376,0.7621612548828125,-0.069061279296875
-0.927581787109375,0.7647552490234375,-0.0292816162109375
-0.8684539794921875,0.72381591796875,-0.04937744140625
-0.8414459228515625,0.8312225341796875,-0.1140899658203125
-0.79937744140625,0.9194488525390624,-0.16802978515625
-0.8037261962890625,0.76373291015625,-0.1743011474609375
-0.8217315673828125,0.7718505859375,-0.1323699951171875
-0.692474365234375,0.8501739501953125,-0.08868408203125
-0.5802154541015625,0.84033203125,-0.0399322509765625
-0.6096038818359375,0.7635955810546875,-0.191497802734375
-0.59674072265625,0.6949920654296875,-0.2215576171875
-0.497314453125,0.6815643310546875,-0.036041259765625
-0.374908447265625,0.6346435546875,0.0411376953125
-0.3359527587890625,0.6015167236328125,0.02252197265625
-0.48956298828125,0.61395263671875,-0.1203765869140625
-0.6797637939453125,0.7070159912109375,-0.02545166015625
-0.79302978515625,0.79962158203125,0.0334625244140625
-0.8159027099609375,0.765777587890625,-0.1315155029296875
-0.91131591796875,0.835540771484375,-0.1828460693359375
-0.8507080078125,0.8814239501953125,-0.2153167724609375
-0.70458984375,0.6828155517578125,-0.1891632080078125
-0.7338409423828125,0.5744171142578125,-0.14093017578125
-0.6889190673828125,0.6577911376953125,-0.0789337158203125
-0.618011474609375,0.7142486572265625,-0.085235595703125
-0.5950775146484375,0.6199188232421875,-0.0557861328125
-0.5868072509765625,0.5694427490234375,-0.06085205078125
-0.686126708984375,0.5849609375,-0.1240692138671875
-0.73895263671875,0.5719451904296875,-0.0825958251953125
-0.75213623046875,0.590545654296875,-0.129669189453125
-0.777130126953125,0.6067047119140625,-0.1461029052734375
-0.8362274169921875,0.6567840576171875,-0.0847625732421875
-0.8824310302734375,0.7252197265625,-0.0966033935546875
-0.93328857421875,0.732757568359375,-0.1155548095703125
-1.008544921875,0.88519287109375,-0.1338348388671875
-0.96441650390625,0.8895721435546875,-0.2306976318359375
-0.8429107666015625,0.7490997314453125,-0.2796173095703125
-0.757080078125,0.6901092529296875,-0.2736968994140625
-0.6776123046875,0.808380126953125,-0.2693023681640625
-0.541839599609375,0.88848876953125,-0.177154541015625
-0.40753173828125,0.7359771728515625,-0.04669189453125
-0.442840576171875,0.63067626953125,-0.052032470703125
-0.412384033203125,0.6190032958984375,-0.12677001953125
-0.4300689697265625,0.6425323486328125,-0.146484375
-0.493743896484375,0.6693267822265625,-0.1074371337890625
-0.5684814453125,0.7028656005859375,-0.062255859375
-0.659515380859375,0.781494140625,-0.075103759765625
-0.7135009765625,0.880828857421875,-0.1112060546875
-0.6946258544921875,0.859649658203125,-0.076873779296875
-0.82403564453125,0.9837799072265624,-0.10931396484375
-0.7725982666015625,0.9080810546875,-0.0432891845703125
-0.6386260986328125,0.6452484130859375,-0.1383209228515625
-0.7793731689453125,0.6415557861328125,-0.113525390625
-0.8030242919921875,0.7295684814453125,-0.056396484375
-0.7609710693359375,0.7126007080078125,-0.0839080810546875
-0.6787567138671875,0.589508056640625,-0.1229248046875
-0.5579986572265625,0.593353271484375,-0.1196746826171875
-0.496734619140625,0.64312744140625,-0.0579376220703125
-0.527862548828125,0.657745361328125,-0.01934814453125
-0.6209716796875,0.670074462890625,-0.0993804931640625
-0.7086639404296875,0.70806884765625,-0.0874176025390625
-0.7864227294921875,0.795562744140625,-0.0882720947265625
-0.829132080078125,0.8250274658203125,-0.140899658203125
-0.887420654296875,0.8150482177734375,-0.14306640625
-0.934112548828125,0.9261016845703124,-0.1839447021484375
-0.84515380859375,0.896881103515625,-0.2104339599609375
-0.7103271484375,0.73492431640625,-0.192962646484375
-0.6838531494140625,0.7892608642578125,-0.1491546630859375
-0.5903167724609375,0.874664306640625,-0.107666015625
-0.4813995361328125,0.787139892578125,-0.1214599609375
-0.4893341064453125,0.682159423828125,-0.1855926513671875
-0.4565582275390625,0.6306304931640625,-0.159454345703125
-0.4246063232421875,0.619476318359375,-0.0699615478515625
-0.476531982421875,0.6190948486328125,-0.0218658447265625
-0.5161590576171875,0.641876220703125,-0.0094451904296875
-0.5338897705078125,0.736297607421875,-0.1251220703125
-0.624267578125,0.8702850341796875,-0.1031494140625
-0.676361083984375,0.847900390625,-0.097564697265625
-0.7826690673828125,0.8475799560546875,-0.1159210205078125
-0.8104248046875,1.05682373046875,-0.1284332275390625
-0.707244873046875,0.8957672119140625,-0.233184814453125
-0.611846923828125,0.6577606201171875,-0.184326171875
-0.62872314453125,0.6624298095703125,-0.0868988037109375
-0.6741180419921875,0.746490478515625,-0.0388946533203125
-0.657318115234375,0.702911376953125,0.006439208984375
-0.5785980224609375,0.6430816650390625,-0.0179595947265625
-0.550628662109375,0.6434326171875,-0.04583740234375
-0.61077880859375,0.66009521484375,-0.0950775146484375
-0.6483917236328125,0.6208648681640625,-0.076385498046875
-0.699737548828125,0.63568115234375,-0.0159454345703125
-0.7958984375,0.728240966796875,-0.0005340576171875
-0.8536834716796875,0.778076171875,-0.0348663330078125
-0.85491943359375,0.7790679931640625,-0.0807647705078125
-0.854095458984375,0.7233734130859375,-0.1178436279296875
-0.8125,0.8530731201171875,-0.090728759765625
-0.7370147705078125,0.93902587890625,-0.1509246826171875
-0.7503662109375,0.78118896484375,-0.1369171142578125
-0.76007080078125,0.8018646240234375,-0.084136962890625
-0.6711273193359375,0.870208740234375,-0.095733642578125
-0.5444488525390625,0.800689697265625,-0.10321044921875
-0.6131591796875,0.7021484375,-0.063629150390625
-0.5514068603515625,0.66497802734375,0.032257080078125
-0.46832275390625,0.6828765869140625,0.013275146484375
-0.479217529296875,0.7212066650390625,0.003570556640625
-0.516571044921875,0.6967315673828125,-0.045684814453125
-0.5211029052734375,0.7144622802734375,-0.1073760986328125
-0.59808349609375,0.7939605712890625,-0.112060546875
-0.6743316650390625,0.8547210693359375,-0.18267822265625
-0.665374755859375,0.7698822021484375,-0.2313232421875
-0.702423095703125,0.8128814697265625,-0.177642822265625
-0.6646270751953125,0.882843017578125,-0.1764678955078125
-0.60540771484375,0.755096435546875,-0.2404327392578125
-0.699432373046875,0.653106689453125,-0.2048797607421875
-0.7748565673828125,0.7129974365234375,-0.2320556640625
-0.7651214599609375,0.713043212890625,-0.207672119140625
-0.7124176025390625,0.6419830322265625,-0.12939453125
-0.6349334716796875,0.6170654296875,-0.0863494873046875
-0.6160888671875,0.6164703369140625,0.0133819580078125
-0.600311279296875,0.6165924072265625,0.0626983642578125
-0.77789306640625,0.627960205078125,-0.102691650390625
-0.8368072509765625,0.642486572265625,-0.080474853515625
-0.7921905517578125,0.7556915283203125,-0.151580810546875
-0.7905426025390625,0.7588043212890625,-0.1319732666015625
-0.8311920166015625,0.699798583984375,-0.0665740966796875
-0.8365936279296875,0.83685302734375,-0.20361328125
-0.8055419921875,0.893218994140625,-0.314178466796875
-0.7540740966796875,0.8248138427734375,-0.2487335205078125
-0.6516876220703125,0.8470458984375,-0.19305419921875
-0.585723876953125,0.8173828125,-0.2128448486328125
-0.519989013671875,0.7512359619140625,-0.2463226318359375
-0.5328216552734375,0.713104248046875,-0.2303466796875
-0.6077423095703125,0.6904449462890625,-0.0152740478515625
-0.573211669921875,0.6667938232421875,-0.023345947265625
-0.4716644287109375,0.6519927978515625,-0.201995849609375
-0.4892730712890625,0.7047882080078125,-0.2008209228515625
-0.5352325439453125,0.759124755859375,-0.0576934814453125
-0.6152191162109375,0.8530426025390625,-0.032318115234375
-0.6728515625,0.9288482666015624,-0.1176300048828125
-0.726348876953125,0.8365631103515625,-0.1394805908203125
-0.8765869140625,0.9326934814453124,-0.0702362060546875
-0.634490966796875,0.910186767578125,-0.1525115966796875
-0.4629364013671875,0.647674560546875,-0.1936492919921875
-0.5662994384765625,0.5889892578125,0.0278778076171875
-0.61248779296875,0.703216552734375,0.067230224609375
-0.629241943359375,0.77386474609375,-0.1172637939453125
-0.5744476318359375,0.7108917236328125,-0.1539459228515625
-0.5906829833984375,0.64306640625,-0.1980133056640625
-0.66455078125,0.638214111328125,-0.1800689697265625
-0.7069549560546875,0.6392669677734375,-0.061614990234375
-0.7045135498046875,0.674102783203125,-0.03887939453125
-0.75244140625,0.7025909423828125,-0.13836669921875
-0.8654327392578125,0.695770263671875,-0.156005859375
-0.84222412109375,0.7589263916015625,-0.079254150390625
-0.7870330810546875,0.8005218505859375,-0.0957183837890625
-0.8010101318359375,0.808990478515625,-0.1147918701171875
-0.8226776123046875,0.8996124267578125,-0.150909423828125
-0.8247528076171875,0.94805908203125,-0.1725006103515625
-0.714080810546875,0.738616943359375,-0.254364013671875
-0.675201416015625,0.76397705078125,-0.2667083740234375
-0.5818023681640625,0.84698486328125,-0.2078094482421875
-0.498199462890625,0.840667724609375,-0.11199951171875
-0.5225067138671875,0.7402191162109375,-0.119781494140625
-0.5246734619140625,0.6913604736328125,-0.1748199462890625
-0.511871337890625,0.665924072265625,-0.1267547607421875
-0.5142974853515625,0.669403076171875,-0.06036376953125
-0.491119384765625,0.70074462890625,-0.07586669921875
-0.48248291015625,0.7187652587890625,-0.120758056640625
-0.5449676513671875,0.7061309814453125,-0.066131591796875
-0.626953125,0.769561767578125,-0.005523681640625
-0.6494140625,0.8127899169921875,-0.0304107666015625
-0.6666259765625,0.783050537109375,-0.0809326171875
-0.7693634033203125,0.9748687744140624,-0.0594940185546875
-0.78546142578125,0.99566650390625,-0.1000518798828125
-0.7550811767578125,0.6822662353515625,-0.08233642578125
-0.83477783203125,0.4715728759765625,0.0170745849609375
-0.875885009765625,0.5293731689453125,0.0326690673828125
-0.8944244384765625,0.6688995361328125,-0.0384521484375
-0.8728485107421875,0.7146453857421875,-0.1380157470703125
-0.784576416015625,0.7622528076171875,-0.2779998779296875
-0.65771484375,0.76373291015625,-0.3331756591796875
-0.587921142578125,0.7254486083984375,-0.21734619140625
-0.5605010986328125,0.696441650390625,-0.2003173828125
-0.5229339599609375,0.701873779296875,-0.186370849609375
-0.5582427978515625,0.7125244140625,-0.1050262451171875
-0.7198638916015625,0.739044189453125,-0.0268096923828125
-0.7873077392578125,0.7283782958984375,-0.077789306640625
-0.79278564453125,0.7531280517578125,-0.1351776123046875
-0.7548980712890625,0.761871337890625,-0.1932525634765625
-0.72259521484375,0.774261474609375,-0.1923980712890625
-0.6774139404296875,0.8453521728515625,-0.2415771484375
-0.649169921875,1.005859375,-0.2855682373046875
-0.49139404296875,0.8726959228515625,-0.2575531005859375
-0.4631500244140625,0.6939697265625,-0.166412353515625
-0.442657470703125,0.627716064453125,-0.103912353515625
-0.434051513671875,0.679962158203125,-0.11505126953125
-0.4243621826171875,0.764495849609375,-0.109161376953125
-0.52093505859375,0.8047027587890625,-0.1644287109375
-0.6621246337890625,0.79351806640625,-0.2579498291015625
-0.6763458251953125,0.712066650390625,-0.2379150390625
-0.6838836669921875,0.703826904296875,-0.3132476806640625
-0.6668548583984375,0.7651214599609375,-0.4203033447265625
-0.7199554443359375,0.7918853759765625,-0.40008544921875
-0.758758544921875,0.744171142578125,-0.2913818359375
-0.71270751953125,0.808197021484375,-0.2049713134765625
-0.526824951171875,0.8571319580078125,-0.0073089599609375
-0.5337371826171875,0.8599700927734375,0.001190185546875
-0.5990142822265625,0.930145263671875,-0.14288330078125
-0.54339599609375,0.883575439453125,-0.122589111328125
-0.580535888671875,0.7630615234375,-0.0935211181640625
-0.566558837890625,0.7226715087890625,0.034423828125
-0.488677978515625,0.68310546875,0.087615966796875
-0.558197021484375,0.8040618896484375,0.0612640380859375
-0.7013092041015625,0.9252777099609376,-0.075897216796875
-0.6980133056640625,0.742462158203125,-0.0605316162109375
-0.65435791015625,0.6359100341796875,-0.034637451171875
-0.57421875,0.649200439453125,-0.0339813232421875
-0.6655120849609375,0.691925048828125,-0.040863037109375
-0.7296600341796875,0.696746826171875,-0.0650787353515625
-0.68597412109375,0.71490478515625,-0.0574493408203125
-0.628753662109375,0.735504150390625,-0.074981689453125
-0.6240234375,0.72027587890625,-0.056732177734375
-0.7077178955078125,0.6777191162109375,-0.036407470703125
-0.70526123046875,0.6737213134765625,-0.0629730224609375
-0.596832275390625,0.7778472900390625,-0.099884033203125
-0.6712799072265625,0.789886474609375,-0.11285400390625
-0.7664337158203125,0.7757720947265625,-0.10870361328125
-0.7903900146484375,0.9147186279296876,-0.15997314453125
-0.778961181640625,0.95263671875,-0.2365570068359375
-0.7282562255859375,0.7592926025390625,-0.2701568603515625
-0.7305755615234375,0.7929229736328125,-0.205322265625
-0.6659698486328125,0.95172119140625,-0.2099761962890625
-0.5826873779296875,0.9471893310546876,-0.1533355712890625
-0.4925079345703125,0.821990966796875,-0.0735015869140625
-0.429290771484375,0.729888916015625,-0.181854248046875
-0.40185546875,0.7403717041015625,-0.164825439453125
-0.47332763671875,0.7269287109375,-0.0541839599609375
-0.5469818115234375,0.6961517333984375,-0.0160980224609375
-0.559295654296875,0.70147705078125,-0.0566864013671875
-0.5564117431640625,0.702056884765625,-0.1219635009765625
-0.63616943359375,0.783721923828125,-0.06573486328125
-0.70556640625,0.836883544921875,0.0214996337890625
-0.6613922119140625,0.799102783203125,-0.0228271484375
-0.7348480224609375,0.976226806640625,-0.1186065673828125
-0.6910858154296875,0.9416656494140624,-0.195068359375
-0.6147003173828125,0.7613067626953125,-0.2244415283203125
-0.6870269775390625,0.615509033203125,-0.171295166015625
-0.7354278564453125,0.67987060546875,-0.074371337890625
-0.7062225341796875,0.7782135009765625,-0.0825347900390625
-0.6172332763671875,0.706268310546875,-0.144989013671875
-0.5969696044921875,0.65869140625,-0.1421966552734375
-0.589111328125,0.6326446533203125,-0.0707550048828125
-0.5926666259765625,0.638519287109375,-0.0769805908203125
-0.6115875244140625,0.6608123779296875,-0.0846099853515625
-0.684173583984375,0.69439697265625,-0.0844573974609375
-0.7526397705078125,0.7354278564453125,-0.07476806640625
-0.7822265625,0.8285675048828125,-0.102142333984375
-0.8102569580078125,0.813262939453125,-0.159149169921875
-0.7934417724609375,0.7348785400390625,-0.11346435546875
-0.7367095947265625,0.8387298583984375,-0.07421875
-0.6950531005859375,0.9253692626953124,-0.1371612548828125
-0.7336273193359375,0.7961578369140625,-0.174468994140625
-0.7392425537109375,0.7020263671875,-0.1658935546875
-0.693328857421875,0.7654571533203125,-0.2289886474609375
-0.615264892578125,0.81536865234375,-0.1595001220703125
-0.594146728515625,0.7303466796875,-0.097747802734375
-0.56072998046875,0.6475677490234375,-0.1135406494140625
-0.5088958740234375,0.645843505859375,-0.1258697509765625
-0.510833740234375,0.6314697265625,-0.070587158203125
-0.5019378662109375,0.6329803466796875,-0.0019989013671875
-0.5138397216796875,0.7189178466796875,-0.1106109619140625
-0.579864501953125,0.8428192138671875,-0.1482086181640625
-0.6841888427734375,0.93243408203125,-0.100555419921875
-0.69366455078125,0.8799896240234375,-0.071014404296875
-0.661102294921875,0.8200225830078125,-0.1243896484375
-0.704376220703125,0.9247589111328124,-0.1028594970703125
-0.6219940185546875,0.825042724609375,-0.110015869140625
-0.53375244140625,0.6318511962890625,-0.086181640625
-0.6342315673828125,0.683990478515625,-0.0509033203125
-0.7786407470703125,0.8355865478515625,-0.116607666015625
-0.8192596435546875,0.726959228515625,-0.11224365234375
-0.7898712158203125,0.608001708984375,-0.1302337646484375
-0.7321319580078125,0.6108551025390625,-0.1104888916015625
-0.7029876708984375,0.6190185546875,-0.0447845458984375
-0.7202301025390625,0.6094512939453125,-0.0297393798828125
-0.6876678466796875,0.689361572265625,-0.06170654296875
-0.6836700439453125,0.7360992431640625,-0.114776611328125
-0.750274658203125,0.731689453125,-0.101318359375
-0.7704315185546875,0.781158447265625,-0.075103759765625
-0.791473388671875,0.8123016357421875,-0.0319976806640625
-0.7751312255859375,0.848968505859375,-0.041473388671875
-0.737060546875,0.97613525390625,-0.189666748046875
-0.71124267578125,0.9295654296875,-0.3104400634765625
-0.6299591064453125,0.6777496337890625,-0.203826904296875
-0.672393798828125,0.6602783203125,-0.032379150390625
-0.663330078125,0.7878570556640625,-0.0297698974609375
-0.5525054931640625,0.803070068359375,-0.1497955322265625
-0.51025390625,0.7156829833984375,-0.2121124267578125
-0.5109100341796875,0.6640167236328125,-0.2056427001953125
-0.5354156494140625,0.6318817138671875,-0.074951171875
-0.5636749267578125,0.5970306396484375,-0.0457305908203125
-0.5480499267578125,0.6652679443359375,-0.013336181640625
-0.5429534912109375,0.797515869140625,-0.01373291015625
-0.626373291015625,0.865264892578125,-0.0665435791015625
-0.688934326171875,0.85986328125,-0.063873291015625
-0.69732666015625,0.8106536865234375,-0.132720947265625
-0.8108978271484375,0.9544677734375,-0.055816650390625
-0.7004241943359375,0.870819091796875,-0.0998382568359375
-0.6129302978515625,0.564483642578125,-0.1281890869140625
-0.7269134521484375,0.5820159912109375,-0.0111236572265625
-0.65771484375,0.7384796142578125,0.0601654052734375
-0.5654144287109375,0.7784423828125,-0.014801025390625
-0.5659942626953125,0.708953857421875,-0.1667327880859375
-0.5888519287109375,0.6656036376953125,-0.202484130859375
-0.6090087890625,0.6680755615234375,-0.162933349609375
-0.630401611328125,0.6959075927734375,-0.1092987060546875
-0.6666717529296875,0.7018585205078125,-0.1118316650390625
-0.723052978515625,0.694610595703125,-0.0357513427734375
-0.7646484375,0.74407958984375,-0.0548553466796875
-0.7611083984375,0.797760009765625,-0.135772705078125
-0.7891845703125,0.7835693359375,-0.15789794921875
-0.840118408203125,0.7566680908203125,-0.034271240234375
-0.868316650390625,0.90570068359375,-0.056396484375
-0.7978515625,0.9216156005859376,-0.1506195068359375
-0.743133544921875,0.7259063720703125,-0.1629791259765625
-0.7265625,0.7803802490234375,-0.1782379150390625
-0.6070556640625,0.9028167724609376,-0.187652587890625
-0.50146484375,0.8898162841796875,-0.1787567138671875
-0.5056304931640625,0.7890625,-0.147552490234375
-0.4057159423828125,0.7337188720703125,-0.07122802734375
-0.3536529541015625,0.715057373046875,-0.0763397216796875
-0.439483642578125,0.712310791015625,-0.1246185302734375
-0.474700927734375,0.7210845947265625,-0.103057861328125
-0.4965972900390625,0.751708984375,-0.106353759765625
-0.573028564453125,0.8224334716796875,-0.1143341064453125
-0.667327880859375,0.918304443359375,-0.05474853515625
-0.6747894287109375,0.8527069091796875,-0.0606689453125
-0.8408203125,1.0047760009765625,-0.073455810546875
-0.698486328125,0.965301513671875,-0.1744842529296875
-0.6051788330078125,0.744232177734375,-0.293487548828125
-0.6587677001953125,0.6041107177734375,-0.180999755859375
-0.6580352783203125,0.659423828125,-0.0092620849609375
-0.675994873046875,0.72900390625,-0.0272369384765625
-0.584930419921875,0.6955108642578125,-0.16015625
-0.526580810546875,0.63677978515625,-0.1522216796875
-0.597412109375,0.6351165771484375,-0.099853515625
-0.581085205078125,0.679656982421875,-0.0437469482421875
-0.618621826171875,0.664031982421875,-0.13555908203125
-0.6698150634765625,0.6728668212890625,-0.1478271484375
-0.7119140625,0.7290802001953125,-0.062408447265625
-0.748992919921875,0.73309326171875,-0.1168212890625
-0.7733612060546875,0.7510528564453125,-0.080902099609375
-0.786590576171875,0.7744598388671875,-0.026824951171875
-0.8181304931640625,0.947540283203125,-0.036041259765625
-0.8452301025390625,1.04095458984375,-0.0598907470703125
-0.836212158203125,0.8038482666015625,-0.02398681640625
-0.770294189453125,0.912200927734375,0.0091094970703125
-0.5311431884765625,0.99945068359375,0.019866943359375
-0.491424560546875,0.9558258056640624,0.0942535400390625
-0.425262451171875,0.8023681640625,0.2139129638671875
-0.4196929931640625,0.7338409423828125,0.073486328125
-0.550994873046875,0.75390625,-0.05718994140625
-0.600982666015625,0.7481231689453125,-0.1065673828125
-0.608367919921875,0.7364959716796875,-0.1769256591796875
-0.579315185546875,0.731842041015625,-0.204315185546875
-0.6115264892578125,0.725616455078125,-0.1227569580078125
-0.6842193603515625,0.7872161865234375,0.0260162353515625
-0.637542724609375,0.784942626953125,-0.06195068359375
-0.611083984375,0.83233642578125,-0.2299652099609375
-0.6843719482421875,0.9333648681640624,-0.2425384521484375
-0.67724609375,0.8909149169921875,-0.2104339599609375
-0.605621337890625,0.7014007568359375,-0.2494659423828125
-0.692596435546875,0.69354248046875,-0.234954833984375
-0.7096405029296875,0.70318603515625,-0.1844329833984375
-0.6113739013671875,0.6572265625,-0.0305023193359375
-0.49755859375,0.628570556640625,-0.0378570556640625
-0.4588165283203125,0.6670074462890625,-0.0688629150390625
-0.49493408203125,0.6871490478515625,-0.0469818115234375
-0.6298828125,0.6874237060546875,-0.01153564453125
-0.770172119140625,0.7231597900390625,-0.01568603515625
-0.899627685546875,0.724578857421875,-0.0751953125
-0.8912200927734375,0.7728729248046875,-0.1055755615234375
-0.8491058349609375,0.8085784912109375,-0.120513916015625
-0.8366241455078125,0.7454986572265625,-0.08172607421875
-0.7844390869140625,0.7814788818359375,-0.15521240234375
-0.77008056640625,0.8238677978515625,-0.2705230712890625
-0.7879638671875,0.675048828125,-0.169677734375
-0.8042144775390625,0.6815338134765625,0.005859375
-0.712677001953125,0.874298095703125,-0.0972900390625
-0.575775146484375,0.957183837890625,-0.1881866455078125
-0.4618988037109375,0.8952178955078125,-0.2162017822265625
-0.4002532958984375,0.857940673828125,-0.1663665771484375
-0.3831634521484375,0.8256072998046875,-0.0665740966796875
-0.3644866943359375,0.8174285888671875,0.005279541015625
-0.3457183837890625,0.796295166015625,0.0240325927734375
-0.425079345703125,0.777984619140625,-0.118377685546875
-0.5567474365234375,0.8324737548828125,-0.1575164794921875
-0.6528167724609375,0.888580322265625,-0.0810089111328125
-0.670013427734375,0.8576507568359375,-0.0386505126953125
-0.666412353515625,0.861724853515625,-0.027557373046875
-0.6682281494140625,0.9901885986328124,-0.1158599853515625
-0.606048583984375,0.9440765380859376,-0.2340240478515625
-0.507904052734375,0.6859588623046875,-0.1793365478515625
-0.5322723388671875,0.6154327392578125,-0.0399932861328125
-0.6043548583984375,0.738494873046875,0.043060302734375
-0.590179443359375,0.8318939208984375,-0.013671875
-0.555389404296875,0.765625,-0.183502197265625
-0.524810791015625,0.67218017578125,-0.164764404296875
-0.5396881103515625,0.6495208740234375,-0.015350341796875
-0.582275390625,0.67510986328125,-0.0214691162109375
-0.6599884033203125,0.7190704345703125,-0.0456085205078125
-0.7315521240234375,0.7305450439453125,-0.0438385009765625
-0.7656707763671875,0.7785797119140625,-0.096649169921875
-0.7322235107421875,0.819122314453125,-0.1420440673828125
-0.7133026123046875,0.8426666259765625,-0.11370849609375
-0.7304229736328125,0.8207244873046875,-0.08038330078125
-0.773101806640625,0.9740447998046876,-0.1237640380859375
-0.6961669921875,0.9982147216796876,-0.1440582275390625
-0.6676025390625,0.7203521728515625,-0.1262664794921875
-0.7030487060546875,0.68017578125,-0.12713623046875
-0.675445556640625,0.836334228515625,-0.200347900390625
-0.5721435546875,0.8852996826171875,-0.2454681396484375
-0.5733795166015625,0.7998046875,-0.230926513671875
-0.5737152099609375,0.7156982421875,-0.1643218994140625
-0.5297393798828125,0.7027740478515625,-0.1593017578125
-0.45672607421875,0.679901123046875,-0.128204345703125
-0.4115142822265625,0.69842529296875,-0.134307861328125
-0.40948486328125,0.7536773681640625,-0.1476593017578125
-0.4780731201171875,0.8113555908203125,-0.1167449951171875
-0.6100921630859375,0.840545654296875,-0.044647216796875
-0.70660400390625,0.7967529296875,0.0372314453125
-0.8373260498046875,1.0204925537109375,0.0713958740234375
-0.7154693603515625,0.8893280029296875,-0.1050872802734375
-0.7029266357421875,0.550933837890625,-0.0959320068359375
-0.7808074951171875,0.545745849609375,0.0226898193359375
-0.748992919921875,0.713409423828125,0.0712890625
-0.7737274169921875,0.7872314453125,0.016815185546875
-0.7441864013671875,0.6934661865234375,-0.079071044921875
-0.724212646484375,0.6436309814453125,-0.1836395263671875
-0.650115966796875,0.6641387939453125,-0.1281585693359375
-0.6186676025390625,0.6367034912109375,-0.1105194091796875
-0.638702392578125,0.6676025390625,-0.1490478515625
-0.6973724365234375,0.6982421875,-0.0624542236328125
-0.7222747802734375,0.6712799072265625,-0.0494842529296875
-0.732666015625,0.7228240966796875,-0.1088409423828125
-0.7190399169921875,0.736480712890625,-0.1295928955078125
-0.71868896484375,0.7686309814453125,-0.1224212646484375
-0.7765960693359375,0.9754638671875,-0.151458740234375
-0.758331298828125,0.9990081787109376,-0.2174835205078125
-0.6797637939453125,0.7418365478515625,-0.1910858154296875
-0.6721038818359375,0.6932373046875,-0.1961822509765625
-0.614654541015625,0.8028411865234375,-0.1807403564453125
-0.5615081787109375,0.8235626220703125,-0.2103729248046875
-0.5138092041015625,0.7416229248046875,-0.2452239990234375
-0.504730224609375,0.730499267578125,-0.25787353515625
-0.5308074951171875,0.772003173828125,-0.17755126953125
-0.558837890625,0.808868408203125,-0.14697265625
-0.565887451171875,0.8025054931640625,-0.123809814453125
-0.6065826416015625,0.815277099609375,-0.100555419921875
-0.5333251953125,0.800750732421875,-0.1000518798828125
-0.5115509033203125,0.7775115966796875,-0.1069488525390625
-0.6099853515625,0.8911590576171875,-0.0034027099609375
-0.5698699951171875,1.02203369140625,0.042572021484375
-0.5180816650390625,0.8168792724609375,-0.067138671875
-0.6046142578125,0.6333465576171875,0.063720703125
-0.6266021728515625,0.6627044677734375,0.19952392578125
-0.6161346435546875,0.87261962890625,0.05035400390625
-0.6339111328125,0.8760223388671875,-0.0491485595703125
-0.6834564208984375,0.77642822265625,-0.083892822265625
-0.697357177734375,0.6689910888671875,-0.0756378173828125
-0.6921234130859375,0.6322174072265625,-0.0346832275390625
-0.68707275390625,0.6496734619140625,-0.0042572021484375
-0.6511383056640625,0.6537933349609375,-0.0633544921875
-0.6573944091796875,0.607330322265625,-0.0791778564453125
-0.6951751708984375,0.5339202880859375,0.005889892578125
-0.67755126953125,0.5481719970703125,0.03302001953125
-0.63946533203125,0.5485687255859375,-0.0010223388671875
-0.602569580078125,0.46075439453125,0.017181396484375
-0.5587158203125,0.4727935791015625,0.0253448486328125
-0.5052337646484375,0.5598297119140625,-0.012451171875
-0.4973297119140625,0.674652099609375,-0.0587005615234375
-0.6375274658203125,0.97039794921875,-0.131988525390625
-0.8219451904296875,1.364013671875,-0.1692352294921875
-0.9803466796875,1.91387939453125,-0.2496185302734375
-0.6889495849609375,1.3915557861328125,-0.2677459716796875
-0.6615142822265625,0.97125244140625,-0.069366455078125
-0.5782012939453125,0.8390045166015625,-0.11639404296875
-0.4715423583984375,0.6545562744140625,-0.0590667724609375
-0.4264984130859375,0.4249114990234375,0.0679779052734375
-0.470123291015625,0.282012939453125,0.17291259765625
-0.4126129150390625,0.2086181640625,0.2256622314453125
-0.40191650390625,0.234588623046875,0.1310882568359375
-0.411468505859375,0.365020751953125,-0.02093505859375
-0.40240478515625,0.38385009765625,-0.1239166259765625
-0.53662109375,0.443328857421875,-0.1397552490234375
-1.0358428955078125,1.528411865234375,-0.092620849609375
-1.2439117431640625,2.1168670654296875,-0.2170562744140625
-1.1812286376953125,1.5999755859375,-0.3564453125
-0.820068359375,0.9247283935546876,-0.217559814453125
-0.5283660888671875,0.71466064453125,0.286376953125
-0.3591461181640625,0.4307403564453125,0.4849700927734375
-0.3882293701171875,0.2979736328125,0.1703033447265625
-0.4949951171875,0.267791748046875,0.0648651123046875
-0.4838714599609375,0.2670745849609375,0.0146331787109375
-0.4602813720703125,0.3100433349609375,-0.030914306640625
-0.5587921142578125,0.3690185546875,-0.043365478515625
-0.6747589111328125,0.47998046875,0.0101470947265625
-0.979827880859375,1.015411376953125,-0.0379791259765625
-1.105224609375,1.290374755859375,-0.131103515625
-1.3386077880859375,1.8176727294921875,-0.3775177001953125
-0.965240478515625,1.885223388671875,-0.51470947265625
-0.4545745849609375,1.3589324951171875,-0.3890380859375
-0.297149658203125,0.942291259765625,-0.2108917236328125
-0.23980712890625,0.6240386962890625,0.012115478515625
-0.21563720703125,0.432403564453125,0.1919403076171875
-0.2283935546875,0.36163330078125,0.2086181640625
-0.30206298828125,0.3929901123046875,0.164276123046875
-0.3194122314453125,0.4570770263671875,0.122100830078125
-0.2899169921875,0.488433837890625,0.0587158203125
-0.3082427978515625,0.54461669921875,0.0041046142578125
-0.3679656982421875,0.5829925537109375,-0.057037353515625
-0.6206512451171875,0.9626312255859376,0.058013916015625
-0.9522247314453124,1.7147674560546875,-0.0561981201171875
-1.237762451171875,2.216156005859375,-0.380340576171875
-0.8658599853515625,1.0829925537109375,-0.52569580078125
-0.8971405029296875,0.773468017578125,0.043670654296875
-0.6696319580078125,0.6749725341796875,0.4444732666015625
-0.5885772705078125,0.462493896484375,0.3897857666015625
-0.6177215576171875,0.42559814453125,0.04132080078125
-0.530120849609375,0.4006195068359375,-0.14117431640625
-0.547393798828125,0.4013671875,-0.20989990234375
-0.56219482421875,0.4492034912109375,-0.1885833740234375
-0.675750732421875,0.4970703125,-0.087188720703125
-0.673431396484375,0.3879547119140625,0.014312744140625
-0.69427490234375,0.457000732421875,0.035552978515625
-0.9341583251953124,1.044525146484375,-0.12188720703125
-1.0222015380859375,1.7053375244140625,-0.2796783447265625
-0.8985748291015625,1.9186859130859373,-0.23211669921875
-0.6516265869140625,1.79998779296875,-0.2988128662109375
-0.235931396484375,1.2202911376953125,-0.141937255859375
-0.1374664306640625,0.7958984375,0.0696868896484375
-0.141204833984375,0.5444488525390625,0.1707000732421875
-0.1814422607421875,0.3862152099609375,0.12725830078125
-0.246795654296875,0.3611907958984375,0.1033172607421875
-0.3935546875,0.375213623046875,0.20849609375
-0.473907470703125,0.3747406005859375,0.225128173828125
-0.524993896484375,0.4416961669921875,0.091064453125
-0.6291656494140625,0.6298065185546875,-0.024810791015625
-0.9488372802734376,1.310272216796875,-0.0781402587890625
-0.9567413330078124,1.4840850830078125,0.0708770751953125
-1.2094879150390625,2.0540313720703125,-0.2064971923828125
-0.802459716796875,1.380523681640625,-0.5675201416015625
-0.620941162109375,0.6483612060546875,0.2512969970703125
-0.3977508544921875,0.4233551025390625,0.6360015869140625
-0.2651214599609375,0.3383941650390625,0.4588165283203125
-0.3339996337890625,0.389007568359375,0.0320892333984375
-0.3892669677734375,0.38775634765625,-0.1730499267578125
-0.46807861328125,0.3425140380859375,-0.1807098388671875
-0.5085906982421875,0.4090118408203125,-0.0561370849609375
-0.62506103515625,0.600494384765625,0.005950927734375
-0.8413238525390625,1.1293487548828125,0.0395660400390625
-0.859100341796875,1.6953277587890625,-0.0214996337890625
-0.811981201171875,1.9791717529296875,0.035308837890625
-0.712005615234375,1.519561767578125,-0.247467041015625
-0.512603759765625,1.3119964599609375,-0.413604736328125
-0.1592559814453125,0.95001220703125,-0.251953125
-0.104736328125,0.7109527587890625,0.0343780517578125
-0.289947509765625,0.5476226806640625,0.260101318359375
-0.4793853759765625,0.4058380126953125,0.3132476806640625
-0.6178436279296875,0.3587646484375,0.214691162109375
-0.62774658203125,0.4190216064453125,0.056671142578125
-0.6345062255859375,0.4913482666015625,0.010284423828125
-0.7090606689453125,0.5224456787109375,-0.063507080078125
-0.9109344482421876,0.4286041259765625,-0.0586395263671875
-1.328216552734375,0.694122314453125,-0.0353851318359375
-1.1444244384765625,1.12701416015625,-0.1400909423828125
-0.96630859375,1.076385498046875,-0.4556427001953125
-1.1878509521484375,0.8079681396484375,-0.4663543701171875
-1.0438385009765625,0.48846435546875,-0.378387451171875
-0.653564453125,0.5607147216796875,-0.175872802734375
-0.2612457275390625,0.4274139404296875,-0.389007568359375
-0.230712890625,0.3030242919921875,-0.3987884521484375
-0.5227203369140625,0.235687255859375,-0.366912841796875
-0.467681884765625,0.224395751953125,-0.1779937744140625
-0.4013519287109375,0.2170562744140625,-0.3349609375
-0.4286041259765625,0.3725433349609375,-0.7560577392578125
-0.3479766845703125,0.570648193359375,-0.953277587890625
-0.4503631591796875,0.619049072265625,-1.1281585693359375
-0.39300537109375,0.5335845947265625,-1.4287567138671875
-0.495941162109375,0.5675506591796875,-1.1974639892578125
-0.364410400390625,0.31951904296875,-0.9959869384765624
-0.2002105712890625,0.0179901123046875,-1.169403076171875
-0.718292236328125,-0.011016845703125,-1.8073272705078125
-0.049835205078125,0.0499420166015625,-1.956390380859375
0.068267822265625,0.0796661376953125,-1.617218017578125
0.0083160400390625,-0.1220855712890625,-1.291259765625
-0.0234832763671875,-0.236083984375,-1.1351165771484375
0.00262451171875,-0.2906646728515625,-0.98052978515625
-0.0069427490234375,-0.281402587890625,-0.8149566650390625
-0.0254364013671875,-0.3263702392578125,-0.7662353515625
-0.0519866943359375,-0.3835906982421875,-0.781402587890625
-0.103607177734375,-0.40386962890625,-0.8267974853515625
-0.133209228515625,-0.4445343017578125,-0.4390716552734375
-0.1374969482421875,-0.4589691162109375,-0.5753173828125
