AccelerationX,AccelerationY,AccelerationZ
-0.430084228515625,0.6490020751953125,-0.5729522705078125
-0.440185546875,0.64788818359375,-0.5582122802734375
-0.4489288330078125,0.6536102294921875,-0.619598388671875
-0.4444427490234375,0.6413116455078125,-0.6085662841796875
-0.4543914794921875,0.64227294921875,-0.614044189453125
-0.4286651611328125,0.6425628662109375,-0.6020355224609375
-0.4468536376953125,0.6314239501953125,-0.5944976806640625
-0.451934814453125,0.6461181640625,-0.6358795166015625
-0.4404144287109375,0.6568756103515625,-0.611785888671875
-0.436279296875,0.6505126953125,-0.58331298828125
-0.4347381591796875,0.6331787109375,-0.600982666015625
-0.440948486328125,0.6370391845703125,-0.582550048828125
-0.457672119140625,0.6423187255859375,-0.6113433837890625
-0.479766845703125,0.64398193359375,-0.6175079345703125
-0.4852752685546875,0.634674072265625,-0.5619354248046875
-0.46807861328125,0.66253662109375,-0.6469573974609375
-0.4248046875,0.64996337890625,-0.6750030517578125
-0.4248046875,0.5876922607421875,-0.4906768798828125
-0.4150543212890625,0.541534423828125,-0.430755615234375
-0.5835418701171875,0.6513671875,-0.737274169921875
-0.70404052734375,0.61541748046875,-0.6056976318359375
-0.6985626220703125,0.50640869140625,-0.3563995361328125
-0.72930908203125,0.52142333984375,-0.4116363525390625
-0.8620758056640625,0.5687713623046875,-0.3604278564453125
-0.81036376953125,0.486663818359375,-0.1657867431640625
-0.88916015625,0.5376434326171875,-0.2642974853515625
-0.903564453125,0.5206298828125,-0.2317047119140625
-0.826812744140625,0.5297393798828125,-0.0992889404296875
-0.772125244140625,0.4944305419921875,0.0407257080078125
-0.727386474609375,0.6118011474609375,-0.0606689453125
-0.735931396484375,0.691925048828125,-0.1829833984375
-0.7258758544921875,0.7403411865234375,-0.1256103515625
-0.6927947998046875,0.65093994140625,0.063720703125
-0.70599365234375,0.6573028564453125,0.1400299072265625
-0.7795257568359375,0.7286224365234375,0.19891357421875
-0.64312744140625,0.8028411865234375,0.0153350830078125
-0.639862060546875,0.7712860107421875,0.084625244140625
-0.731719970703125,0.7948455810546875,0.1529541015625
-0.6557159423828125,0.8914947509765625,0.0538177490234375
-0.549072265625,0.7133331298828125,-0.0847930908203125
-0.775421142578125,0.6841583251953125,-0.0813751220703125
-0.71734619140625,0.6389312744140625,-0.0563812255859375
-0.66241455078125,0.8470306396484375,-0.0334320068359375
-0.5635833740234375,0.6470184326171875,-0.0806732177734375
-0.5957794189453125,0.597442626953125,0.0124969482421875
-0.59259033203125,0.617889404296875,0.0182342529296875
-0.6235809326171875,0.6490325927734375,0.062957763671875
-0.6678314208984375,0.6400909423828125,0.099945068359375
-0.747039794921875,0.7557830810546875,0.040802001953125
-0.8484954833984375,0.8877105712890625,-0.0437469482421875
-0.8668060302734375,0.8767242431640625,-0.120330810546875
-0.8466949462890625,0.798492431640625,-0.111236572265625
-0.8000335693359375,0.843475341796875,-0.0677947998046875
-0.777923583984375,0.92730712890625,-0.056396484375
-0.671630859375,0.8251800537109375,-0.1218109130859375
-0.7278289794921875,0.7574310302734375,-0.1308746337890625
-0.7640533447265625,0.92657470703125,-0.1510772705078125
-0.6446990966796875,1.0123748779296875,-0.08270263671875
-0.5692138671875,0.8694610595703125,-0.0261993408203125
-0.5846405029296875,0.73516845703125,0.0399932861328125
-0.5452423095703125,0.698211669921875,0.002349853515625
-0.4432525634765625,0.6946563720703125,-0.0194091796875
-0.4184722900390625,0.713104248046875,0.006317138671875
-0.4535064697265625,0.8482513427734375,0.0094146728515625
-0.4828643798828125,1.0377655029296875,-0.01727294921875
-0.4743194580078125,0.97796630859375,-0.0277557373046875
-0.5673828125,0.8199005126953125,0.019805908203125
-0.638427734375,0.800567626953125,0.089691162109375
-0.5806121826171875,0.8443756103515625,0.076751708984375
-0.49334716796875,0.7570953369140625,0.014739990234375
-0.64453125,0.82818603515625,0.0162811279296875
-0.733001708984375,0.9207763671875,0.0269012451171875
-0.7355499267578125,0.7942047119140625,0.0081787109375
-0.811126708984375,0.6328582763671875,0.03094482421875
-0.83685302734375,0.5832977294921875,0.1194915771484375
-0.721099853515625,0.6063232421875,0.131622314453125
-0.7413177490234375,0.6074676513671875,0.0955047607421875
-0.890625,0.6207122802734375,0.0032501220703125
-0.977813720703125,0.72467041015625,0.0203857421875
-1.0148468017578125,0.779815673828125,0.0096435546875
-0.9561920166015624,0.76824951171875,-0.0581817626953125
-0.967071533203125,0.7964935302734375,-0.03509521484375
-0.8936767578125,0.937957763671875,0.0011444091796875
-0.743194580078125,0.8405303955078125,-0.0720062255859375
-0.7416229248046875,0.7609710693359375,-0.09979248046875
-0.769866943359375,0.8698577880859375,-0.1207122802734375
-0.6788177490234375,0.9320068359375,-0.074554443359375
-0.57379150390625,0.8261260986328125,-0.05462646484375
-0.560394287109375,0.6912384033203125,-0.0583038330078125
-0.5844573974609375,0.66302490234375,-0.0392303466796875
-0.5131988525390625,0.6320953369140625,0.0117034912109375
-0.4617767333984375,0.6184844970703125,0.0319976806640625
-0.460296630859375,0.7117156982421875,0.0463714599609375
-0.459930419921875,0.8093719482421875,0.085296630859375
-0.4708099365234375,0.8127899169921875,0.105712890625
-0.5578460693359375,0.7740325927734375,0.053924560546875
-0.6639251708984375,0.8270263671875,0.049041748046875
-0.568603515625,0.8533782958984375,-0.0066375732421875
-0.55023193359375,0.711212158203125,-0.05291748046875
-0.715087890625,0.794586181640625,-0.0593109130859375
-0.7989654541015625,0.9561004638671876,-0.112762451171875
-0.8406219482421875,0.8892364501953125,-0.1306915283203125
-0.87969970703125,0.7341766357421875,-0.110595703125
-0.882598876953125,0.6459503173828125,-0.1089019775390625
-0.818695068359375,0.6479644775390625,-0.086761474609375
-0.7222137451171875,0.6863555908203125,-0.0431365966796875
-0.7018585205078125,0.7483367919921875,-0.0530853271484375
-0.7565155029296875,0.822723388671875,-0.112091064453125
-0.780242919921875,0.8866119384765625,-0.1338958740234375
-0.7817840576171875,0.88848876953125,-0.1604156494140625
-0.797607421875,0.83038330078125,-0.1356658935546875
-0.87841796875,0.9631195068359376,-0.1043701171875
-0.8249359130859375,0.990386962890625,-0.1688995361328125
-0.7620849609375,0.95880126953125,-0.25213623046875
-0.7075958251953125,0.988983154296875,-0.4015045166015625
-0.5919036865234375,0.98370361328125,-0.4501800537109375
-0.516448974609375,0.8553466796875,-0.28363037109375
-0.5213775634765625,0.7559356689453125,-0.1623382568359375
-0.524505615234375,0.7277984619140625,-0.166961669921875
-0.506744384765625,0.744781494140625,-0.156982421875
-0.4508514404296875,0.81280517578125,-0.14459228515625
-0.3878936767578125,0.8860626220703125,-0.131744384765625
-0.491973876953125,0.96258544921875,-0.151336669921875
-0.5495758056640625,0.996307373046875,-0.05322265625
-0.4193115234375,0.8468475341796875,0.02325439453125
-0.413482666015625,0.878662109375,0.001068115234375
-0.274261474609375,0.8334197998046875,-0.085113525390625
-0.3474884033203125,0.7930908203125,0.01483154296875
-0.527008056640625,0.9859161376953124,0.1630859375
-0.6385955810546875,1.0346221923828125,0.088897705078125
-0.6505126953125,0.8427886962890625,-0.03338623046875
-0.67388916015625,0.6878814697265625,0.034698486328125
-0.6419830322265625,0.6892242431640625,0.049224853515625
-0.625732421875,0.799102783203125,0.0095672607421875
-0.6610107421875,0.845977783203125,-0.004302978515625
-0.76837158203125,0.8720855712890625,-0.00543212890625
-0.8545379638671875,0.9458770751953124,-0.004974365234375
-0.8697357177734375,0.9049835205078124,0.0183563232421875
-0.8232421875,0.794647216796875,-0.0048980712890625
-0.8418426513671875,0.8087005615234375,0.05755615234375
-0.7916259765625,0.9737701416015624,-0.02386474609375
-0.667572021484375,0.8600616455078125,-0.0682525634765625
-0.76373291015625,0.8203125,-0.0655517578125
-0.8015594482421875,0.9070892333984376,-0.0430755615234375
-0.7276153564453125,0.982208251953125,-0.066680908203125
-0.6664886474609375,0.948883056640625,-0.147552490234375
-0.6844329833984375,0.9212493896484376,-0.153900146484375
-0.6475372314453125,0.9336700439453124,-0.067413330078125
-0.5292205810546875,0.9125823974609376,-0.02886962890625
-0.4370574951171875,0.8985443115234375,-0.055908203125
-0.408905029296875,0.8961029052734375,-0.0935516357421875
-0.3569793701171875,0.89892578125,-0.0380401611328125
-0.3302001953125,0.8762359619140625,-0.0413055419921875
-0.3448028564453125,0.73626708984375,0.0135345458984375
-0.503692626953125,0.7522430419921875,0.09613037109375
-0.512969970703125,0.9445953369140624,0.133270263671875
-0.41943359375,0.866424560546875,-0.0207366943359375
-0.5889739990234375,0.8911590576171875,-0.042877197265625
-0.7049102783203125,0.916656494140625,-0.0080413818359375
-0.68426513671875,0.8339691162109375,0.080657958984375
-0.65826416015625,0.72802734375,0.103424072265625
-0.693756103515625,0.711151123046875,0.0424652099609375
-0.735595703125,0.7609100341796875,-0.026458740234375
-0.756744384765625,0.70257568359375,-0.0674591064453125
-0.8656005859375,0.7187347412109375,-0.10546875
-0.9162750244140624,0.8630218505859375,-0.0110931396484375
-0.91412353515625,0.908233642578125,0.0005645751953125
-0.89202880859375,0.8505706787109375,-0.0493927001953125
-0.877960205078125,0.7944183349609375,-0.0784759521484375
-0.901153564453125,0.9949188232421876,-0.0639495849609375
-0.7546539306640625,1.002716064453125,-0.049468994140625
-0.7351837158203125,0.86517333984375,-0.069793701171875
-0.7480926513671875,0.994598388671875,-0.160186767578125
-0.628875732421875,1.0369873046875,-0.115020751953125
-0.522369384765625,0.9634246826171876,-0.0142059326171875
-0.4876251220703125,0.842498779296875,0.04718017578125
-0.469696044921875,0.7827301025390625,0.01458740234375
-0.440582275390625,0.6896209716796875,0.0193634033203125
-0.3892974853515625,0.623931884765625,0.0834197998046875
-0.3543548583984375,0.6632537841796875,0.1422576904296875
-0.43109130859375,0.711944580078125,0.103515625
-0.5041351318359375,0.7333526611328125,0.0694122314453125
-0.4951934814453125,0.7474517822265625,0.0476837158203125
-0.589813232421875,0.6905059814453125,0.0322265625
-0.8553619384765625,0.8105926513671875,0.0095367431640625
-0.6671295166015625,0.8489227294921875,-0.0816497802734375
-0.7378387451171875,0.87432861328125,-0.1304779052734375
-0.8978118896484375,1.0027618408203125,-0.223541259765625
-0.89373779296875,0.940704345703125,-0.257720947265625
-0.832275390625,0.722198486328125,-0.2147979736328125
-0.7509918212890625,0.620941162109375,-0.12066650390625
-0.713836669921875,0.677490234375,0.0326995849609375
-0.6804656982421875,0.6996612548828125,0.0435333251953125
-0.607177734375,0.66534423828125,-0.0516815185546875
-0.653350830078125,0.71575927734375,-0.16241455078125
-0.722320556640625,0.7873992919921875,-0.231292724609375
-0.7879486083984375,0.84210205078125,-0.297698974609375
-0.8095703125,0.815643310546875,-0.3225250244140625
-0.843902587890625,0.86328125,-0.31689453125
-0.796295166015625,1.0008544921875,-0.320159912109375
-0.6921844482421875,1.026458740234375,-0.3058013916015625
-0.674713134765625,0.900360107421875,-0.2382049560546875
-0.690643310546875,0.855560302734375,-0.2357940673828125
-0.6662445068359375,0.864166259765625,-0.2888031005859375
-0.5873870849609375,0.8224639892578125,-0.3130645751953125
-0.561767578125,0.776214599609375,-0.2970733642578125
-0.56024169921875,0.83026123046875,-0.2813720703125
-0.560638427734375,0.8681182861328125,-0.2956390380859375
-0.5247650146484375,0.89501953125,-0.271942138671875
-0.4673309326171875,0.9104461669921876,-0.2536163330078125
-0.5165557861328125,0.940948486328125,-0.211822509765625
-0.51513671875,0.914306640625,-0.179046630859375
-0.4584197998046875,0.8118743896484375,-0.1669464111328125
-0.490234375,0.83416748046875,-0.1495208740234375
-0.4248046875,0.7776031494140625,-0.0733795166015625
-0.403045654296875,0.619598388671875,0.0676727294921875
-0.533660888671875,0.7403717041015625,0.1228790283203125
-0.571136474609375,0.901031494140625,0.035675048828125
-0.5839691162109375,0.833770751953125,-0.0508270263671875
-0.654937744140625,0.72320556640625,-0.105987548828125
-0.697509765625,0.720855712890625,-0.0778961181640625
-0.7003021240234375,0.78466796875,-0.025390625
-0.6870269775390625,0.8140411376953125,-0.042205810546875
-0.7430877685546875,0.8325653076171875,-0.096710205078125
-0.8554534912109375,0.95843505859375,-0.13580322265625
-0.90972900390625,1.0069580078125,-0.215423583984375
-0.9091339111328124,0.8300323486328125,-0.2216033935546875
-0.9853668212890624,0.7984466552734375,-0.211669921875
-0.959716796875,0.890167236328125,-0.2145843505859375
-0.7721099853515625,0.812957763671875,-0.1243743896484375
-0.804290771484375,0.859771728515625,-0.1484832763671875
-0.7857666015625,0.91070556640625,-0.1614532470703125
-0.71746826171875,0.912750244140625,-0.195281982421875
-0.6870880126953125,0.8933563232421875,-0.24920654296875
-0.7021331787109375,0.9212188720703124,-0.255462646484375
-0.65142822265625,0.9791259765625,-0.2211151123046875
-0.5295257568359375,0.967529296875,-0.227569580078125
-0.4551544189453125,0.9420166015625,-0.2209320068359375
-0.4180908203125,0.9320526123046876,-0.1772613525390625
-0.37847900390625,0.945465087890625,-0.131072998046875
-0.29193115234375,0.862457275390625,-0.1175689697265625
-0.36956787109375,0.720947265625,-0.090728759765625
-0.4965972900390625,0.7978057861328125,-0.002288818359375
-0.388580322265625,0.786773681640625,-0.019775390625
-0.4997711181640625,0.7489471435546875,0.0115814208984375
-0.6169281005859375,0.853668212890625,0.0805511474609375
-0.638916015625,0.9764862060546876,-0.0313873291015625
-0.6453094482421875,0.882293701171875,-0.137298583984375
-0.700836181640625,0.7988739013671875,-0.15789794921875
-0.718505859375,0.79437255859375,-0.124847412109375
-0.7265625,0.830230712890625,-0.055328369140625
-0.73028564453125,0.81439208984375,-0.026702880859375
-0.7627410888671875,0.837554931640625,-0.0074005126953125
-0.81158447265625,0.9597625732421876,-0.0486907958984375
-0.8037567138671875,0.8927764892578125,-0.0932159423828125
-0.86749267578125,0.8087158203125,-0.1424102783203125
-0.9447174072265624,0.862884521484375,-0.1493072509765625
-0.897003173828125,0.8401947021484375,-0.112579345703125
-0.7905426025390625,0.7197723388671875,-0.1315460205078125
-0.780914306640625,0.8029022216796875,-0.140533447265625
-0.7515411376953125,0.9781494140625,-0.1316070556640625
-0.6758575439453125,1.0142364501953125,-0.1990509033203125
-0.676605224609375,0.9356536865234376,-0.2515106201171875
-0.69744873046875,0.9253082275390624,-0.246429443359375
-0.649322509765625,0.98065185546875,-0.2159881591796875
-0.547332763671875,0.9610443115234376,-0.20916748046875
-0.46783447265625,0.9006500244140625,-0.2429046630859375
-0.436065673828125,0.886444091796875,-0.2364501953125
-0.3819122314453125,0.8531341552734375,-0.1863250732421875
-0.3483123779296875,0.78558349609375,-0.11370849609375
-0.3456573486328125,0.7751617431640625,-0.0577850341796875
-0.3049774169921875,0.75006103515625,-0.044708251953125
-0.3280792236328125,0.739532470703125,-0.077392578125
-0.41961669921875,0.717041015625,-0.026519775390625
-0.5972137451171875,0.7896270751953125,0.1107635498046875
-0.671783447265625,1.0102081298828125,0.1555633544921875
-0.76483154296875,1.09613037109375,0.1172637939453125
-0.8763427734375,0.99755859375,0.0953369140625
-0.875701904296875,0.82958984375,0.1348724365234375
-0.8218841552734375,0.754425048828125,0.1756439208984375
-0.7412109375,0.7315216064453125,0.203948974609375
-0.6622467041015625,0.7106781005859375,0.2216033935546875
-0.673126220703125,0.7131195068359375,0.171112060546875
-0.6947479248046875,0.709716796875,0.0988922119140625
-0.674652099609375,0.8062591552734375,-0.02935791015625
-0.509521484375,0.851715087890625,-0.0525970458984375
-0.5367889404296875,0.7886505126953125,-0.032745361328125
-0.55242919921875,0.889984130859375,-0.15594482421875
-0.5627288818359375,0.954132080078125,-0.1822052001953125
-0.5923614501953125,0.895843505859375,-0.3223876953125
-0.616607666015625,0.7766265869140625,-0.4941864013671875
-0.6737213134765625,0.7801513671875,-0.518585205078125
-0.705108642578125,0.8137359619140625,-0.4841156005859375
-0.7285614013671875,0.8585052490234375,-0.5062255859375
-0.6830596923828125,0.923675537109375,-0.4364776611328125
-0.728424072265625,0.935699462890625,-0.349761962890625
-0.877471923828125,0.9075164794921876,-0.122161865234375
-0.867340087890625,1.0579376220703125,-0.2296600341796875
-0.7104034423828125,1.2384185791015625,-0.376220703125
-0.577178955078125,1.1822052001953125,-0.482421875
-0.51666259765625,1.0591583251953125,-0.368408203125
-0.3519287109375,1.04583740234375,-0.2412872314453125
-0.1826171875,0.97900390625,-0.2161865234375
-0.1728057861328125,0.9401092529296876,-0.260223388671875
-0.1744384765625,0.953094482421875,-0.2814178466796875
-0.1944732666015625,0.8094482421875,-0.1921844482421875
-0.368072509765625,0.7857666015625,-0.0025177001953125
-0.333099365234375,0.913116455078125,0.1205902099609375
-0.163421630859375,0.97882080078125,0.182891845703125
-0.2512664794921875,0.9667510986328124,0.0989990234375
-0.364166259765625,0.9923553466796876,0.0457763671875
-0.47381591796875,1.051849365234375,0.1243438720703125
-0.6000213623046875,1.1053924560546875,0.1114959716796875
-0.689208984375,1.0636749267578125,0.1434478759765625
-0.742340087890625,0.97186279296875,0.162567138671875
-0.7741241455078125,0.927032470703125,0.160614013671875
-0.735565185546875,0.978118896484375,0.0893707275390625
-0.70892333984375,0.9471282958984376,-0.0609588623046875
-0.8404541015625,0.9172515869140624,-0.169219970703125
-0.9080963134765624,0.9420166015625,-0.234161376953125
-0.8217926025390625,0.79022216796875,-0.0842132568359375
-0.85797119140625,0.8204193115234375,-0.01239013671875
-0.8578643798828125,1.0138702392578125,-0.04022216796875
-0.7545623779296875,1.13983154296875,-0.1601104736328125
-0.73699951171875,1.167327880859375,-0.2804107666015625
-0.7318267822265625,1.1930999755859375,-0.288055419921875
-0.6688079833984375,1.2358856201171875,-0.2253265380859375
-0.5353851318359375,1.197509765625,-0.180206298828125
-0.427886962890625,1.157806396484375,-0.190704345703125
-0.366546630859375,1.1269683837890625,-0.1849212646484375
-0.3070831298828125,1.0637054443359375,-0.12164306640625
-0.225555419921875,0.898101806640625,-0.0524749755859375
-0.197967529296875,0.718719482421875,-0.0257720947265625
-0.2118377685546875,0.7335968017578125,0.0334320068359375
-0.1109771728515625,0.7574920654296875,0.06024169921875
-0.2536163330078125,0.79766845703125,0.0655364990234375
-0.454498291015625,0.9975738525390624,0.0330352783203125
-0.555999755859375,1.1886444091796875,0.0063323974609375
-0.619476318359375,1.1020660400390625,-0.0458526611328125
-0.7207489013671875,0.9980316162109376,-0.08087158203125
-0.7564544677734375,0.9934234619140624,-0.1060791015625
-0.7656402587890625,1.0380401611328125,-0.1201019287109375
-0.7586822509765625,0.9906005859375,-0.14892578125
-0.826934814453125,0.910980224609375,-0.1428375244140625
-0.88726806640625,0.9197540283203124,-0.0912017822265625
-0.7993927001953125,0.9286041259765624,-0.0163726806640625
-0.6823272705078125,0.7992706298828125,-0.078643798828125
-0.7640838623046875,0.7787322998046875,-0.1144256591796875
-0.8626861572265625,1.0211334228515625,-0.07269287109375
-0.739471435546875,0.902313232421875,-0.0872039794921875
-0.87945556640625,0.89190673828125,-0.1636810302734375
-0.85791015625,1.0496826171875,-0.0364837646484375
-0.739776611328125,1.2352752685546875,-0.1085052490234375
-0.679779052734375,1.239166259765625,-0.281280517578125
-0.6682586669921875,1.1675262451171875,-0.2504119873046875
-0.5926666259765625,1.0976409912109375,-0.0956878662109375
-0.4733123779296875,1.0379791259765625,-0.0269927978515625
-0.377532958984375,0.982421875,-0.0077667236328125
-0.31671142578125,0.92669677734375,-0.0359649658203125
-0.2711334228515625,0.8671417236328125,-0.05615234375
-0.2148284912109375,0.756103515625,-0.0420989990234375
-0.267852783203125,0.6528472900390625,0.018218994140625
-0.339813232421875,0.773956298828125,0.151519775390625
-0.216094970703125,0.907257080078125,-0.0035400390625
-0.30810546875,0.9647369384765624,-0.158782958984375
-0.63916015625,1.1454010009765625,-0.188232421875
-0.8098297119140625,1.27471923828125,-0.1864471435546875
-0.774810791015625,1.125457763671875,-0.1902313232421875
-0.775146484375,0.938568115234375,-0.1778106689453125
-0.8981170654296875,0.7865447998046875,-0.1224212646484375
-0.9349365234375,0.7146148681640625,-0.104766845703125
-0.8498992919921875,0.7537994384765625,-0.1783294677734375
-0.879852294921875,0.8027191162109375,-0.1664886474609375
-0.9941558837890624,0.9405364990234376,-0.162628173828125
-0.971527099609375,1.09600830078125,0.002471923828125
-0.794830322265625,1.035003662109375,0.31243896484375
-0.7953033447265625,1.049041748046875,0.453857421875
-0.742095947265625,1.3509674072265625,0.0637664794921875
-0.5600738525390625,1.3150177001953125,-0.004058837890625
-0.5309906005859375,1.0307769775390625,0.066436767578125
-0.53326416015625,1.088409423828125,0.155181884765625
-0.4370880126953125,1.159454345703125,0.075042724609375
-0.323486328125,1.0530853271484375,0.0327301025390625
-0.2449798583984375,0.88970947265625,0.056121826171875
-0.240570068359375,0.7316436767578125,0.1251373291015625
-0.207244873046875,0.6653900146484375,0.1279449462890625
-0.2288055419921875,0.6200714111328125,0.133453369140625
-0.3468780517578125,0.6389312744140625,0.2031097412109375
-0.4377899169921875,0.7192230224609375,0.15179443359375
-0.537689208984375,0.803253173828125,0.0504913330078125
-0.592376708984375,0.977569580078125,-0.118682861328125
-0.6096649169921875,0.967315673828125,-0.0831756591796875
-0.7954559326171875,0.861358642578125,0.0137786865234375
-0.6904449462890625,0.9145050048828124,-0.104705810546875
-0.5764617919921875,0.8164215087890625,-0.1616668701171875
-0.73974609375,0.8016510009765625,-0.034759521484375
-0.8005218505859375,0.82525634765625,0.017822265625
-0.7481689453125,0.75518798828125,-0.02716064453125
-0.7291259765625,0.670074462890625,-0.0950775146484375
-0.7246246337890625,0.67437744140625,-0.1246795654296875
-0.6473541259765625,0.73651123046875,-0.098541259765625
-0.612640380859375,0.750579833984375,-0.0849456787109375
-0.6508331298828125,0.7645263671875,-0.0810089111328125
-0.737823486328125,0.866546630859375,-0.0656280517578125
-0.7082672119140625,0.961212158203125,-0.0984344482421875
-0.652862548828125,0.8997955322265625,-0.1735992431640625
-0.6861572265625,0.8355712890625,-0.2146453857421875
-0.77178955078125,1.05975341796875,-0.2454071044921875
-0.7083892822265625,1.04779052734375,-0.2415924072265625
-0.7801666259765625,0.9243011474609376,-0.227142333984375
-0.8505401611328125,1.01171875,-0.2635650634765625
-0.751861572265625,1.1085052490234375,-0.207733154296875
-0.6121978759765625,1.087646484375,-0.2198638916015625
-0.55718994140625,1.03729248046875,-0.225128173828125
-0.496917724609375,1.007110595703125,-0.2290496826171875
-0.3934326171875,0.92230224609375,-0.169586181640625
-0.293792724609375,0.8239593505859375,-0.087646484375
-0.2607879638671875,0.7846221923828125,-0.0113372802734375
-0.224639892578125,0.7812347412109375,0.010040283203125
-0.2248382568359375,0.81231689453125,0.012542724609375
-0.24468994140625,0.7720489501953125,-0.0457305908203125
-0.4430999755859375,0.8160552978515625,-0.0220947265625
-0.497161865234375,0.9556732177734376,0.053680419921875
-0.4839019775390625,0.982147216796875,-0.0361328125
-0.7299957275390625,1.10186767578125,-0.0604705810546875
-0.813323974609375,1.197357177734375,-0.1539764404296875
-0.7753448486328125,0.9996795654296876,-0.2391510009765625
-0.7693634033203125,0.7322540283203125,-0.1873779296875
-0.739471435546875,0.6842041015625,-0.1053009033203125
-0.65545654296875,0.7449188232421875,-0.021331787109375
-0.585723876953125,0.7264862060546875,-0.0045623779296875
-0.6060028076171875,0.730804443359375,-0.0725250244140625
-0.6729888916015625,0.9008941650390624,-0.149749755859375
-0.721923828125,1.0263671875,-0.18389892578125
-0.7317657470703125,0.978607177734375,-0.287567138671875
-0.7884368896484375,0.8529205322265625,-0.332366943359375
-0.872222900390625,0.9113311767578124,-0.30487060546875
-0.74114990234375,0.9218597412109376,-0.18377685546875
-0.7160797119140625,0.8895416259765625,-0.1455230712890625
-0.788360595703125,1.0322418212890625,-0.1905364990234375
-0.76141357421875,1.122894287109375,-0.1950531005859375
-0.6085662841796875,1.026214599609375,-0.239898681640625
-0.55841064453125,0.933624267578125,-0.2493438720703125
-0.5225067138671875,0.9183502197265624,-0.216156005859375
-0.400787353515625,0.923553466796875,-0.16265869140625
-0.2955780029296875,0.840789794921875,-0.1220245361328125
-0.292205810546875,0.8080902099609375,-0.066680908203125
-0.3570098876953125,0.894256591796875,-0.0968017578125
-0.3874359130859375,0.9535675048828124,-0.114898681640625
-0.3795623779296875,0.8295440673828125,-0.119140625
-0.537689208984375,0.878204345703125,-0.073974609375
-0.4416351318359375,0.9069061279296876,-0.0578460693359375
-0.4291229248046875,0.842315673828125,-0.1130828857421875
-0.5841522216796875,0.9000091552734375,-0.062713623046875
-0.6681976318359375,1.0057373046875,-0.0658721923828125
-0.6738433837890625,0.9057464599609376,-0.0655059814453125
-0.7439117431640625,0.7080078125,-0.032623291015625
-0.89337158203125,0.6635894775390625,-0.014007568359375
-0.9161529541015624,0.703765869140625,-0.0968017578125
-0.86468505859375,0.6537017822265625,-0.1075592041015625
-0.9109649658203124,0.72027587890625,-0.208892822265625
-0.9743804931640624,0.8826446533203125,-0.240875244140625
-0.896728515625,0.96429443359375,-0.198883056640625
-0.82403564453125,0.9296417236328124,-0.13446044921875
-0.8961639404296875,1.0836181640625,0.0338287353515625
-0.7650146484375,1.17181396484375,0.0872344970703125
-0.635040283203125,0.917022705078125,-0.030242919921875
-0.7510986328125,1.0302886962890625,0.0423736572265625
-0.707611083984375,1.1298675537109375,0.105987548828125
-0.5671234130859375,1.06707763671875,0.103851318359375
-0.4741058349609375,0.940460205078125,0.036224365234375
-0.3643035888671875,0.812591552734375,0.0248565673828125
-0.2516326904296875,0.7366180419921875,0.08428955078125
-0.1988372802734375,0.710479736328125,0.1590423583984375
-0.2119903564453125,0.740386962890625,0.1627197265625
-0.2501983642578125,0.7910003662109375,0.199493408203125
-0.314666748046875,0.8772430419921875,0.0765533447265625
-0.46856689453125,1.026031494140625,-0.093719482421875
-0.567474365234375,1.0537567138671875,-0.1153411865234375
-0.6580963134765625,1.1001739501953125,-0.158416748046875
-0.5261993408203125,1.1224212646484375,-0.358001708984375
-0.563995361328125,1.0340423583984375,-0.34686279296875
-0.7276611328125,1.09783935546875,-0.1816864013671875
-0.75360107421875,1.1088104248046875,-0.156341552734375
-0.7191314697265625,0.9004364013671875,-0.24658203125
-0.7671356201171875,0.716888427734375,-0.29278564453125
-0.8071441650390625,0.7022552490234375,-0.2292938232421875
-0.77734375,0.7412567138671875,0.001495361328125
-0.67633056640625,0.753814697265625,0.1417236328125
-0.6619110107421875,0.78289794921875,0.071685791015625
-0.7173614501953125,0.8855438232421875,-0.0406036376953125
-0.7144775390625,0.9779205322265624,-0.1295013427734375
-0.708984375,0.954132080078125,-0.161834716796875
-0.78729248046875,1.06787109375,-0.111053466796875
-0.731353759765625,1.091888427734375,-0.07696533203125
-0.715484619140625,0.9206695556640624,-0.065155029296875
-0.80560302734375,1.003936767578125,-0.0386962890625
-0.7994842529296875,1.1862945556640625,-0.0630950927734375
-0.6728057861328125,1.2117919921875,-0.1522216796875
-0.599822998046875,1.113800048828125,-0.209869384765625
-0.57525634765625,1.0398406982421875,-0.196258544921875
-0.4781341552734375,0.9932403564453124,-0.1509857177734375
-0.343719482421875,0.902984619140625,-0.1298065185546875
-0.3013916015625,0.84356689453125,-0.0847625732421875
-0.2510223388671875,0.833251953125,-0.09075927734375
-0.2396697998046875,0.855133056640625,-0.107147216796875
-0.2028961181640625,0.8133697509765625,-0.092315673828125
-0.365753173828125,0.8572845458984375,-0.000457763671875
-0.4199676513671875,0.9356231689453124,0.0581512451171875
-0.4177398681640625,0.87347412109375,0.0010986328125
-0.593048095703125,0.9518890380859376,0.00933837890625
-0.6758575439453125,1.0953826904296875,-0.0267486572265625
-0.633056640625,1.0647735595703125,-0.03887939453125
-0.6414337158203125,0.9356231689453124,-0.0753326416015625
-0.6770477294921875,0.887908935546875,-0.117523193359375
-0.7025604248046875,0.9316558837890624,-0.083953857421875
-0.6833343505859375,0.9214630126953124,-0.0198211669921875
-0.6913299560546875,0.882293701171875,-0.028350830078125
-0.775177001953125,0.9482421875,-0.0169830322265625
-0.796295166015625,0.9948272705078124,0.0044708251953125
-0.78253173828125,0.84930419921875,-0.0855865478515625
-0.9149627685546876,0.822540283203125,-0.223419189453125
-0.856231689453125,0.9439697265625,-0.1676788330078125
-0.70916748046875,0.923126220703125,-0.065399169921875
-0.8111419677734375,1.0160675048828125,-0.2575836181640625
-0.8142852783203125,1.1213836669921875,-0.174713134765625
-0.7232208251953125,1.2023162841796875,-0.2061004638671875
-0.6273651123046875,1.138458251953125,-0.371368408203125
-0.4748077392578125,1.083526611328125,-0.341156005859375
-0.5606231689453125,1.1135101318359375,-0.3563232421875
-0.5030670166015625,1.0414581298828125,-0.2922210693359375
-0.4292755126953125,0.9569854736328124,-0.1199188232421875
-0.3967437744140625,0.844573974609375,-0.1702423095703125
-0.4727935791015625,0.830596923828125,-0.18487548828125
-0.3984222412109375,0.8118743896484375,-0.17572021484375
-0.4528656005859375,0.7378997802734375,-0.07965087890625
-0.4999847412109375,0.6971588134765625,0.1964874267578125
-0.4541778564453125,0.7729034423828125,0.1039276123046875
-0.566497802734375,0.6793365478515625,0.1204833984375
-0.7886810302734375,0.6468048095703125,0.2049102783203125
-0.8729400634765625,0.8545379638671875,0.2418975830078125
-0.8302459716796875,0.9181365966796876,0.0742340087890625
-0.88671875,0.8516082763671875,-0.0386199951171875
-0.956085205078125,0.77398681640625,-0.074676513671875
-0.936981201171875,0.7487030029296875,-0.0780029296875
-0.79510498046875,0.6468963623046875,-0.111328125
-0.7982025146484375,0.67626953125,-0.164215087890625
-0.817474365234375,0.696441650390625,-0.1150970458984375
-0.752899169921875,0.7489776611328125,-0.0431060791015625
-0.693756103515625,0.7925872802734375,-0.005035400390625
-0.6920928955078125,0.8391265869140625,-0.0092620849609375
-0.7057342529296875,0.881011962890625,-0.0628814697265625
-0.7061614990234375,0.8149871826171875,-0.07891845703125
-0.678009033203125,0.776031494140625,-0.118072509765625
-0.6282196044921875,0.8064727783203125,-0.2969512939453125
-0.4871063232421875,0.8298797607421875,-0.5498199462890625
-0.4550933837890625,0.79791259765625,-0.668182373046875
-0.532623291015625,0.7529754638671875,-0.651641845703125
-0.6473846435546875,0.723876953125,-0.7153472900390625
-0.6185150146484375,0.7679290771484375,-0.691925048828125
-0.7067108154296875,0.8573455810546875,-0.7594757080078125
-0.8025360107421875,0.8795013427734375,-0.638397216796875
-0.860198974609375,0.846282958984375,-0.5239410400390625
-0.8919525146484375,0.86376953125,-0.4917144775390625
-0.859100341796875,0.9131622314453124,-0.4190216064453125
-0.7611541748046875,0.986785888671875,-0.4219512939453125
-0.6300811767578125,0.9623260498046876,-0.4157257080078125
-0.52960205078125,0.91302490234375,-0.3569793701171875
-0.3730926513671875,0.845245361328125,-0.311920166015625
-0.3376007080078125,0.776275634765625,-0.213592529296875
-0.3545379638671875,0.724090576171875,-0.1331024169921875
-0.4424896240234375,0.7605743408203125,-0.0860137939453125
-0.445892333984375,0.8382415771484375,0.0395965576171875
-0.494720458984375,0.9589691162109376,0.0307159423828125
-0.4966583251953125,0.995025634765625,-0.0797882080078125
-0.4250335693359375,0.909942626953125,0.0735626220703125
-0.4073486328125,0.905303955078125,0.2019805908203125
-0.518157958984375,0.9122161865234376,0.1429443359375
-0.6004486083984375,0.9791259765625,0.0655670166015625
-0.6854248046875,1.0312652587890625,-0.0453338623046875
-0.7611541748046875,0.96612548828125,-0.0590667724609375
-0.8212890625,0.9251556396484376,0.036712646484375
-0.840057373046875,0.889556884765625,0.12774658203125
-0.915740966796875,0.86895751953125,0.0453033447265625
-0.9232025146484376,0.7889862060546875,-0.140289306640625
-1.056640625,0.860870361328125,-0.2469482421875
-1.0196380615234375,0.893157958984375,-0.2222900390625
-0.83428955078125,0.724365234375,-0.113037109375
-0.8782958984375,0.835968017578125,-0.0413665771484375
-0.9023284912109376,1.078948974609375,-0.0409393310546875
-0.8409881591796875,1.2008209228515625,-0.1798858642578125
-0.82806396484375,1.2093048095703125,-0.338592529296875
-0.813323974609375,1.1847381591796875,-0.296844482421875
-0.7191925048828125,1.15411376953125,-0.148223876953125
-0.53765869140625,1.074920654296875,-0.1098480224609375
-0.400238037109375,0.98333740234375,-0.1488800048828125
-0.3381500244140625,0.941650390625,-0.2255401611328125
-0.268646240234375,0.9298095703125,-0.1998443603515625
-0.20343017578125,0.824951171875,-0.0992584228515625
-0.2753448486328125,0.71087646484375,-0.0025634765625
-0.40557861328125,0.7729949951171875,0.1091461181640625
-0.3732147216796875,0.8862457275390625,0.1093902587890625
-0.423553466796875,0.939697265625,0.149383544921875
-0.64208984375,1.0435943603515625,0.21075439453125
-0.7668609619140625,1.138580322265625,0.0558013916015625
-0.7493743896484375,1.06939697265625,-0.118682861328125
-0.716094970703125,0.924468994140625,-0.1273956298828125
-0.7451019287109375,0.89959716796875,-0.127655029296875
-0.727569580078125,0.8939666748046875,-0.0648956298828125
-0.7869415283203125,0.85223388671875,0.065155029296875
-0.904541015625,0.8161773681640625,0.0694580078125
-1.0040130615234375,0.8784637451171875,-0.0700836181640625
-0.9622039794921876,0.8760528564453125,-0.1939544677734375
-0.92010498046875,0.837158203125,-0.187225341796875
-0.973236083984375,0.9660186767578124,-0.124664306640625
-0.853271484375,1.0288238525390625,-0.085845947265625
-0.6961822509765625,0.9111328125,-0.0483856201171875
-0.71588134765625,0.96734619140625,-0.136383056640625
-0.66107177734375,1.1162261962890625,-0.166015625
-0.5044097900390625,1.1133880615234375,-0.19085693359375
-0.4341583251953125,0.970245361328125,-0.1582794189453125
-0.4535064697265625,0.8597869873046875,-0.0665283203125
-0.472442626953125,0.75885009765625,-0.0072021484375
-0.44891357421875,0.7062835693359375,0.0426025390625
-0.38336181640625,0.7446746826171875,0.07763671875
-0.3467254638671875,0.781158447265625,0.0320281982421875
-0.3542022705078125,0.8698883056640625,-0.03741455078125
-0.3263397216796875,0.888031005859375,-0.06182861328125
-0.451141357421875,0.975128173828125,-0.0392303466796875
-0.500518798828125,1.032257080078125,0.000152587890625
-0.44915771484375,0.8299713134765625,-0.061431884765625
-0.6689605712890625,0.8952789306640625,0.0080413818359375
-0.7493743896484375,1.091888427734375,-0.016143798828125
-0.7446136474609375,1.0383758544921875,-0.094085693359375
-0.786163330078125,0.8585205078125,-0.111724853515625
-0.8218994140625,0.7808380126953125,-0.1008453369140625
-0.7549896240234375,0.7765045166015625,-0.035675048828125
-0.668487548828125,0.766326904296875,0.0158538818359375
-0.6684417724609375,0.7230377197265625,0.004241943359375
-0.6845245361328125,0.797393798828125,-0.012786865234375
-0.7288665771484375,0.8985137939453125,-0.026641845703125
-0.7700347900390625,0.9412078857421876,-0.1138763427734375
-0.7883453369140625,0.9395904541015624,-0.166900634765625
-0.812042236328125,1.08734130859375,-0.12457275390625
-0.77703857421875,1.08154296875,-0.1930084228515625
-0.7548675537109375,1.0099334716796875,-0.2988433837890625
-0.7414398193359375,1.02703857421875,-0.3224334716796875
-0.650482177734375,1.0727996826171875,-0.217987060546875
-0.5146026611328125,0.9874114990234376,-0.1702423095703125
-0.53326416015625,0.867431640625,-0.1952056884765625
-0.569000244140625,0.852752685546875,-0.263641357421875
-0.54547119140625,0.901031494140625,-0.218292236328125
-0.4571075439453125,0.878753662109375,-0.185760498046875
-0.4290618896484375,0.9139556884765624,-0.09503173828125
-0.341461181640625,0.9814910888671876,-0.1273651123046875
-0.254119873046875,0.9419097900390624,-0.1840667724609375
-0.23968505859375,0.780426025390625,-0.1660003662109375
-0.3715667724609375,0.7432098388671875,-0.0058135986328125
-0.389801025390625,0.8055267333984375,0.1634368896484375
-0.411865234375,0.9386444091796876,0.0499725341796875
-0.5395660400390625,1.1265716552734375,-0.1160125732421875
-0.6572418212890625,1.1041259765625,-0.1040802001953125
-0.708343505859375,0.9210662841796876,-0.11590576171875
-0.7296600341796875,0.812896728515625,-0.0232696533203125
-0.67559814453125,0.8214874267578125,0.083648681640625
-0.6781463623046875,0.864166259765625,0.11151123046875
-0.6946258544921875,0.8741912841796875,-0.044036865234375
-0.723663330078125,0.8850860595703125,-0.129638671875
-0.7165679931640625,0.9456329345703124,-0.112640380859375
-0.70135498046875,0.9665985107421876,-0.0879364013671875
-0.6938934326171875,0.8485260009765625,-0.1243743896484375
-0.827301025390625,0.951629638671875,-0.175323486328125
-0.751678466796875,0.9250640869140624,-0.1602325439453125
-0.7737274169921875,0.8469696044921875,-0.1226348876953125
-0.8289642333984375,0.932708740234375,-0.1215362548828125
-0.790008544921875,1.005645751953125,-0.12164306640625
-0.778076171875,1.0427093505859375,-0.2103729248046875
-0.7832183837890625,1.05023193359375,-0.245452880859375
-0.77618408203125,1.0747222900390625,-0.23980712890625
-0.6946868896484375,1.1168060302734375,-0.19500732421875
-0.529296875,1.0811920166015625,-0.1596527099609375
-0.36834716796875,0.999786376953125,-0.1862945556640625
-0.39263916015625,0.90997314453125,-0.19476318359375
-0.3655242919921875,0.831207275390625,-0.1261749267578125
-0.244232177734375,0.6928863525390625,-0.0771331787109375
-0.3759765625,0.7301025390625,0.022491455078125
-0.3170166015625,0.752685546875,0.043548583984375
-0.457672119140625,0.7866973876953125,-0.0077362060546875
-0.6834259033203125,0.9688568115234376,-0.0379486083984375
-0.824188232421875,1.108123779296875,-0.1281585693359375
-0.8336639404296875,0.933746337890625,-0.217254638671875
-0.8763275146484375,0.7468719482421875,-0.219696044921875
-0.91192626953125,0.7018890380859375,-0.1808013916015625
-0.8351593017578125,0.73516845703125,-0.05572509765625
-0.7886810302734375,0.698974609375,0.0180816650390625
-0.8028717041015625,0.6636505126953125,-0.025299072265625
-0.9003143310546875,0.7371673583984375,-0.12298583984375
-0.968475341796875,0.7999267578125,-0.2196044921875
-0.917755126953125,0.780181884765625,-0.22216796875
-0.9096527099609376,0.8132171630859375,-0.2119140625
-0.9314727783203124,0.99127197265625,-0.2311248779296875
-0.7914886474609375,1.02105712890625,-0.2258148193359375
-0.69482421875,0.8349151611328125,-0.268157958984375
-0.759796142578125,0.9224395751953124,-0.3140411376953125
-0.7064208984375,0.9869537353515624,-0.2063751220703125
-0.5968017578125,0.95037841796875,-0.1577301025390625
-0.5237274169921875,0.83197021484375,-0.170867919921875
-0.5005340576171875,0.7372589111328125,-0.19598388671875
-0.4336090087890625,0.711700439453125,-0.135711669921875
-0.3209228515625,0.696258544921875,-0.0555267333984375
-0.2553253173828125,0.6807708740234375,-0.007171630859375
-0.29620361328125,0.70684814453125,0.01080322265625
-0.3516998291015625,0.7967987060546875,-0.0116729736328125
-0.4236297607421875,0.8545379638671875,-0.101806640625
-0.6148223876953125,0.9124755859375,-0.1814117431640625
-0.801544189453125,1.024383544921875,-0.103240966796875
-0.6938934326171875,0.934844970703125,-0.1761932373046875
-0.7350616455078125,0.9148406982421876,-0.2591552734375
-0.90167236328125,0.9610137939453124,-0.327423095703125
-0.970611572265625,0.8581390380859375,-0.2972259521484375
-0.9480438232421876,0.6808929443359375,-0.249481201171875
-0.796051025390625,0.641357421875,-0.1572113037109375
-0.654693603515625,0.7109375,-0.0608673095703125
-0.4805450439453125,0.7514801025390625,-0.0267791748046875
-0.42974853515625,0.7366180419921875,-0.0564727783203125
-0.5090179443359375,0.7463531494140625,-0.1228179931640625
-0.58251953125,0.814727783203125,-0.1201019287109375
-0.715118408203125,0.8843536376953125,-0.134490966796875
-0.811859130859375,0.837982177734375,-0.2431182861328125
-0.9251861572265624,0.8186492919921875,-0.2497100830078125
-0.9728851318359376,0.9035186767578124,-0.2158355712890625
-0.8300323486328125,0.8921661376953125,-0.2010955810546875
-0.7963104248046875,0.884857177734375,-0.231842041015625
-0.7515716552734375,0.914459228515625,-0.259552001953125
-0.6655120849609375,0.90509033203125,-0.2592010498046875
-0.588623046875,0.825286865234375,-0.31280517578125
-0.6128387451171875,0.8104705810546875,-0.334075927734375
-0.63311767578125,0.873382568359375,-0.3264617919921875
-0.6224822998046875,0.9437713623046876,-0.32940673828125
-0.582611083984375,0.99395751953125,-0.3073272705078125
-0.5636749267578125,1.0109100341796875,-0.2824554443359375
-0.51776123046875,0.99371337890625,-0.2711029052734375
-0.39874267578125,0.87890625,-0.2308197021484375
-0.3955230712890625,0.8562774658203125,-0.15740966796875
-0.3106231689453125,0.846923828125,-0.043853759765625
-0.221893310546875,0.7019805908203125,0.083343505859375
-0.45880126953125,0.7263641357421875,0.1353607177734375
-0.5390167236328125,0.9001312255859375,0.0975189208984375
-0.542449951171875,0.965850830078125,0.0989227294921875
-0.6083984375,0.857666015625,0.0679168701171875
-0.65484619140625,0.8515167236328125,0.0290679931640625
-0.6729888916015625,0.933349609375,-0.01123046875
-0.6885833740234375,0.9069061279296876,-0.0483245849609375
-0.7395782470703125,0.8831024169921875,-0.0738525390625
-0.837127685546875,0.920501708984375,-0.1121826171875
-0.856109619140625,0.987335205078125,-0.100128173828125
-0.796966552734375,0.8942718505859375,-0.1496734619140625
-0.8159942626953125,0.8200225830078125,-0.2044677734375
-0.90203857421875,0.94427490234375,-0.2840423583984375
-0.7744598388671875,0.8748016357421875,-0.300628662109375
-0.7570037841796875,0.7686920166015625,-0.2869873046875
-0.83551025390625,0.84393310546875,-0.1946258544921875
-0.8650665283203125,0.9607391357421876,-0.1299896240234375
-0.8079681396484375,0.9951019287109376,-0.16009521484375
-0.8204803466796875,1.029998779296875,-0.2423553466796875
-0.7748565673828125,1.0920257568359375,-0.24273681640625
-0.6278228759765625,1.1207275390625,-0.203399658203125
-0.457916259765625,1.0526580810546875,-0.1734161376953125
-0.3235931396484375,0.9723663330078124,-0.15997314453125
-0.2403411865234375,0.925048828125,-0.1801300048828125
-0.223541259765625,0.865478515625,-0.1531524658203125
-0.282684326171875,0.7641448974609375,-0.1116485595703125
-0.466766357421875,0.84307861328125,0.022308349609375
-0.426116943359375,0.879486083984375,-0.0296783447265625
-0.472991943359375,0.8226470947265625,-0.0708770751953125
-0.6254119873046875,0.86492919921875,0.0206298828125
-0.6665496826171875,0.9662933349609376,-0.0323333740234375
-0.580322265625,0.9556884765625,-0.14703369140625
-0.6138763427734375,0.8975677490234375,-0.2073822021484375
-0.6740570068359375,0.8809356689453125,-0.1705474853515625
-0.7003173828125,0.90557861328125,-0.1303253173828125
-0.735382080078125,0.8737640380859375,-0.0835113525390625
-0.7882843017578125,0.8159332275390625,-0.0285186767578125
-0.8872528076171875,0.80718994140625,-0.0331268310546875
-0.8669281005859375,0.8980712890625,-0.1212615966796875
-0.8815765380859375,0.7958831787109375,-0.1911773681640625
-0.99365234375,0.8444366455078125,-0.2137451171875
-0.9438934326171876,0.843719482421875,-0.13055419921875
-0.822174072265625,0.781097412109375,-0.0735321044921875
-0.859649658203125,0.8717803955078125,-0.104736328125
-0.87359619140625,1.012359619140625,-0.142333984375
-0.8473052978515625,1.079498291015625,-0.1910858154296875
-0.8106231689453125,1.0245208740234375,-0.262176513671875
-0.7689056396484375,0.9948577880859376,-0.242095947265625
-0.715301513671875,0.982025146484375,-0.187774658203125
-0.6220855712890625,0.9570159912109376,-0.161285400390625
-0.46771240234375,0.8963165283203125,-0.2175140380859375
-0.4387054443359375,0.809326171875,-0.20782470703125
-0.3989410400390625,0.7210235595703125,-0.14599609375
-0.4106903076171875,0.6402130126953125,-0.0882720947265625
-0.4662017822265625,0.6894683837890625,-0.10394287109375
-0.4693603515625,0.7570953369140625,-0.0714569091796875
-0.4391021728515625,0.7404632568359375,-0.026275634765625
-0.5750274658203125,0.759765625,0.0395050048828125
-0.8123626708984375,0.903778076171875,0.080078125
-0.898834228515625,1.0947723388671875,0.127288818359375
-0.854278564453125,1.03955078125,0.1093597412109375
-0.8477935791015625,0.897979736328125,0.07147216796875
-0.8261566162109375,0.829986572265625,0.0709991455078125
-0.75885009765625,0.7802276611328125,0.07379150390625
-0.6966552734375,0.8118743896484375,0.217193603515625
-0.6258544921875,0.768402099609375,0.1783447265625
-0.666046142578125,0.799072265625,0.0901336669921875
-0.64776611328125,0.8197021484375,0.0462646484375
-0.6006927490234375,0.7790069580078125,0.0290985107421875
-0.6060638427734375,0.837493896484375,-0.0360565185546875
-0.630462646484375,0.9259490966796876,-0.11175537109375
-0.6064453125,0.923553466796875,-0.1614990234375
-0.5814971923828125,0.8346405029296875,-0.2021636962890625
-0.5765380859375,0.7950592041015625,-0.34002685546875
-0.502227783203125,0.779327392578125,-0.447540283203125
-0.46368408203125,0.8289642333984375,-0.58160400390625
-0.4990386962890625,0.8464508056640625,-0.7047119140625
-0.5771331787109375,0.807647705078125,-0.722625732421875
-0.612396240234375,0.7589111328125,-0.6048126220703125
-0.616424560546875,0.7923736572265625,-0.436126708984375
-0.613616943359375,0.848175048828125,-0.2157440185546875
-0.6769256591796875,0.8610687255859375,-0.294891357421875
-0.471710205078125,1.020904541015625,-0.4405059814453125
-0.662139892578125,1.042572021484375,-0.255859375
-0.5889434814453125,1.0964813232421875,-0.3465423583984375
-0.4669189453125,1.107025146484375,-0.39361572265625
-0.5004425048828125,1.002288818359375,-0.28692626953125
-0.5748291015625,1.0665435791015625,-0.1874542236328125
-0.411102294921875,1.150543212890625,-0.218597412109375
-0.25433349609375,1.057525634765625,-0.3169708251953125
-0.1865997314453125,0.9107666015625,-0.317596435546875
-0.3065338134765625,0.860992431640625,-0.1317596435546875
-0.2399139404296875,0.947723388671875,-0.078399658203125
-0.1070709228515625,0.910797119140625,-0.0739288330078125
-0.1241607666015625,0.84918212890625,0.0474700927734375
-0.2388916015625,0.8729705810546875,0.084442138671875
-0.347747802734375,0.926666259765625,0.073089599609375
-0.4479217529296875,0.9950408935546876,0.056732177734375
-0.6192626953125,1.08526611328125,0.0522613525390625
-0.7866668701171875,1.1096649169921875,0.0539398193359375
-0.9670257568359376,1.066864013671875,0.02044677734375
-1.04888916015625,0.9828033447265624,-0.072418212890625
-0.984710693359375,0.86212158203125,-0.1374969482421875
-0.9441375732421876,0.8840484619140625,-0.21630859375
-0.8939056396484375,0.838531494140625,-0.3447723388671875
-0.9317626953125,0.7778472900390625,-0.3292388916015625
-0.9798126220703124,0.9414520263671876,-0.3227996826171875
-0.9011993408203124,1.0776214599609375,-0.329254150390625
-0.776123046875,1.05450439453125,-0.323211669921875
-0.7116546630859375,1.0575103759765625,-0.318756103515625
-0.6171722412109375,1.1494598388671875,-0.3031005859375
-0.530181884765625,1.1602783203125,-0.2736663818359375
-0.4651947021484375,1.074127197265625,-0.16888427734375
-0.4071807861328125,0.953582763671875,-0.0996856689453125
-0.4069061279296875,0.9041595458984376,-0.0723419189453125
-0.3927459716796875,0.9411773681640624,-0.1023406982421875
-0.2454833984375,0.845611572265625,-0.1129913330078125
-0.2539215087890625,0.70330810546875,-0.0992889404296875
-0.37005615234375,0.7448577880859375,-0.049468994140625
-0.3764801025390625,0.7768096923828125,-0.0933380126953125
-0.5371856689453125,0.772735595703125,-0.1301422119140625
-0.67498779296875,0.8773040771484375,-0.0622100830078125
-0.802581787109375,1.016632080078125,-0.095703125
-0.7547149658203125,0.9783782958984376,-0.245758056640625
-0.7133026123046875,0.8669586181640625,-0.27667236328125
-0.6807861328125,0.816680908203125,-0.218658447265625
-0.639556884765625,0.811187744140625,-0.163421630859375
-0.6184539794921875,0.763275146484375,-0.123046875
-0.656524658203125,0.8198699951171875,-0.119354248046875
-0.73944091796875,0.9337005615234376,-0.2193756103515625
-0.802001953125,0.9803924560546876,-0.3192138671875
-0.8126983642578125,0.8843536376953125,-0.378021240234375
-0.9010772705078124,0.8332977294921875,-0.3508453369140625
-0.9049072265625,1.01837158203125,-0.2889556884765625
-0.7300567626953125,0.972015380859375,-0.266632080078125
-0.749481201171875,0.871978759765625,-0.244720458984375
-0.7969970703125,0.9427032470703124,-0.1989288330078125
-0.7574310302734375,1.0186309814453125,-0.130767822265625
-0.657379150390625,1.0537567138671875,-0.212188720703125
-0.6183013916015625,1.0556488037109375,-0.330108642578125
-0.570770263671875,1.03228759765625,-0.3128814697265625
-0.4474639892578125,1.0010223388671875,-0.1862335205078125
-0.291473388671875,0.92144775390625,-0.0441741943359375
-0.2416839599609375,0.845123291015625,-0.0453338623046875
-0.263458251953125,0.816802978515625,-0.0956878662109375
-0.2293243408203125,0.79791259765625,-0.0745086669921875
-0.2204742431640625,0.72344970703125,-0.0492401123046875
-0.42791748046875,0.815765380859375,0.0250396728515625
-0.4362030029296875,0.9938507080078124,-0.0107269287109375
-0.4428558349609375,1.065185546875,-0.1733551025390625
-0.6585235595703125,1.12274169921875,-0.1680755615234375
-0.850128173828125,1.150543212890625,-0.13970947265625
-0.8149261474609375,0.954559326171875,-0.0193634033203125
-0.7667083740234375,0.7666168212890625,0.0577392578125
-0.7171478271484375,0.774261474609375,0.080718994140625
-0.6276702880859375,0.8431396484375,0.0548248291015625
-0.5579986572265625,0.7905731201171875,0.0454559326171875
-0.6757354736328125,0.735260009765625,-0.1137847900390625
-0.844482421875,0.80291748046875,-0.22186279296875
-0.925537109375,0.9292144775390624,-0.16693115234375
-0.922088623046875,0.9075927734375,-0.07684326171875
-0.87451171875,0.9539794921875,-0.031707763671875
-0.85687255859375,1.1375732421875,-0.0672454833984375
-0.689971923828125,1.14239501953125,0.0408935546875
-0.6479644775390625,0.9881744384765624,0.079925537109375
-0.7147979736328125,1.0673065185546875,0.0870361328125
-0.5579986572265625,1.1942901611328125,0.06005859375
-0.421356201171875,1.099822998046875,-0.0473175048828125
-0.386627197265625,0.92205810546875,-0.1585693359375
-0.3050537109375,0.789337158203125,-0.1327972412109375
-0.238616943359375,0.6941070556640625,-0.01904296875
-0.204315185546875,0.6461944580078125,0.0511322021484375
-0.2084197998046875,0.64532470703125,0.047454833984375
-0.2473297119140625,0.712066650390625,0.0083770751953125
-0.21710205078125,0.847412109375,-0.0372314453125
-0.2613677978515625,1.0435791015625,-0.1380462646484375
-0.402557373046875,1.1737823486328125,-0.283782958984375
-0.62030029296875,1.366546630859375,-0.28668212890625
-0.69219970703125,1.400634765625,-0.25238037109375
-0.7948760986328125,1.130096435546875,-0.106231689453125
-0.8990478515625,0.9752349853515624,0.00994873046875
-0.8375244140625,0.8802032470703125,-0.040557861328125
-0.7341156005859375,0.806182861328125,-0.1216278076171875
-0.6125335693359375,0.753326416015625,-0.1768341064453125
-0.51531982421875,0.7674407958984375,-0.2295074462890625
-0.4808502197265625,0.7702789306640625,-0.2341156005859375
-0.490692138671875,0.7220458984375,-0.1830902099609375
-0.4706573486328125,0.7483367919921875,-0.143707275390625
-0.4590606689453125,0.84112548828125,-0.160919189453125
-0.4371337890625,0.9470367431640624,-0.132232666015625
-0.43780517578125,1.0007476806640625,-0.16046142578125
-0.536865234375,0.94415283203125,-0.199066162109375
-0.697296142578125,0.9847564697265624,-0.161163330078125
-0.7041168212890625,1.0452880859375,-0.229583740234375
-0.7122344970703125,0.98760986328125,-0.303955078125
-0.800384521484375,1.0353240966796875,-0.306396484375
-0.74932861328125,1.0994873046875,-0.305694580078125
-0.6470489501953125,1.0573883056640625,-0.3169708251953125
-0.5816802978515625,0.9781646728515624,-0.313262939453125
-0.5151214599609375,0.95758056640625,-0.307464599609375
-0.401275634765625,0.902923583984375,-0.222686767578125
-0.306610107421875,0.81353759765625,-0.1287994384765625
-0.2094268798828125,0.736602783203125,-0.0501861572265625
-0.1759033203125,0.73193359375,-0.0777435302734375
-0.1754913330078125,0.814788818359375,-0.10693359375
-0.1190948486328125,0.912261962890625,-0.0708465576171875
-0.2315826416015625,0.9730682373046876,-0.0767974853515625
-0.381683349609375,1.1179962158203125,-0.0587615966796875
-0.484222412109375,1.1422119140625,-0.2048492431640625
-0.695587158203125,1.1399078369140625,-0.152191162109375
-0.8233184814453125,1.2337493896484375,-0.137420654296875
-0.8114776611328125,1.118988037109375,-0.1225433349609375
-0.71868896484375,0.83233642578125,-0.1195068359375
-0.6926116943359375,0.7375335693359375,-0.083984375
-0.6387176513671875,0.7591094970703125,-0.02093505859375
-0.5390472412109375,0.7640533447265625,-0.0204620361328125
-0.5007171630859375,0.7268524169921875,-0.12060546875
-0.5654754638671875,0.78338623046875,-0.1378326416015625
-0.63507080078125,0.961944580078125,-0.0587005615234375
-0.592254638671875,1.01904296875,-0.0570220947265625
-0.5999755859375,0.93475341796875,-0.1975250244140625
-0.6500244140625,0.8461761474609375,-0.234771728515625
-0.6710357666015625,0.9271697998046876,-0.171844482421875
-0.6082916259765625,0.955352783203125,-0.1664886474609375
-0.674102783203125,0.9143524169921876,-0.15826416015625
-0.719970703125,0.9797515869140624,-0.1901397705078125
-0.6887054443359375,1.035797119140625,-0.1880950927734375
-0.629791259765625,0.9856719970703124,-0.2255401611328125
-0.6266632080078125,0.9401397705078124,-0.2367095947265625
-0.604949951171875,0.98199462890625,-0.216827392578125
-0.4695587158203125,1.0257568359375,-0.2112579345703125
-0.35552978515625,0.986968994140625,-0.206787109375
-0.312225341796875,0.926239013671875,-0.1922760009765625
-0.3134918212890625,0.9219207763671876,-0.142669677734375
-0.2415771484375,0.9436492919921876,-0.088531494140625
-0.1854248046875,0.825164794921875,-0.122467041015625
-0.325592041015625,0.761993408203125,-0.082611083984375
-0.3543701171875,0.87799072265625,0.0416412353515625
-0.21295166015625,0.9150543212890624,-0.048980712890625
-0.4250946044921875,0.95941162109375,-0.1853485107421875
-0.575469970703125,1.101318359375,-0.1695404052734375
-0.6551361083984375,1.1336669921875,-0.126312255859375
-0.7233123779296875,0.949127197265625,-0.0747833251953125
-0.7844085693359375,0.793975830078125,-0.0081329345703125
-0.876220703125,0.7884979248046875,-0.040283203125
-0.917388916015625,0.6981964111328125,-0.0607757568359375
-0.9568634033203124,0.6835479736328125,-0.0948638916015625
-0.95428466796875,0.8213958740234375,-0.170562744140625
-0.8985595703125,0.92901611328125,-0.3074188232421875
-0.8703155517578125,0.9389190673828124,-0.324981689453125
-0.9231414794921876,1.0298919677734375,-0.2484588623046875
-0.8890838623046875,1.1121826171875,-0.18548583984375
-0.7412567138671875,0.89849853515625,-0.1241302490234375
-0.83404541015625,0.9033660888671876,-0.1234130859375
-0.8397674560546875,1.099578857421875,-0.0615081787109375
-0.644256591796875,1.1489715576171875,-0.0470123291015625
-0.52496337890625,1.036834716796875,-0.1096038818359375
-0.5381317138671875,0.92578125,-0.2236328125
-0.43597412109375,0.8445587158203125,-0.0854034423828125
-0.2858734130859375,0.7148590087890625,0.1048583984375
-0.2862091064453125,0.591339111328125,0.1511993408203125
-0.3824615478515625,0.565032958984375,0.1963043212890625
-0.4544525146484375,0.5785980224609375,0.244354248046875
-0.5087432861328125,0.685638427734375,0.12384033203125
-0.445526123046875,0.850677490234375,-0.13970947265625
-0.4957122802734375,0.980865478515625,-0.27117919921875
-0.58074951171875,1.1919403076171875,-0.3681640625
-0.52935791015625,1.2039642333984375,-0.5596923828125
-0.7026214599609375,1.1083221435546875,-0.52215576171875
-0.8430633544921875,1.0700531005859375,-0.3049468994140625
-0.8487548828125,0.9756317138671876,-0.23211669921875
-0.7812957763671875,0.7718658447265625,-0.2326202392578125
-0.7129364013671875,0.6730499267578125,-0.171112060546875
-0.6305389404296875,0.7676849365234375,-0.1136932373046875
-0.4761199951171875,0.8557586669921875,-0.0545806884765625
-0.38983154296875,0.83880615234375,-0.0410308837890625
-0.55194091796875,0.8755950927734375,-0.1079864501953125
-0.708587646484375,1.0084686279296875,-0.1937255859375
-0.7849884033203125,1.05157470703125,-0.261566162109375
-0.858154296875,0.909332275390625,-0.282928466796875
-0.9296875,0.796417236328125,-0.260498046875
-0.8820037841796875,0.7765655517578125,-0.156280517578125
-0.8774261474609375,0.8201751708984375,-0.051025390625
-0.934661865234375,1.0388946533203125,-0.08221435546875
-0.9309539794921876,1.158935546875,-0.1919097900390625
-0.9071807861328124,1.2358856201171875,-0.291717529296875
-0.878875732421875,1.289337158203125,-0.2878875732421875
-0.7825775146484375,1.3639984130859375,-0.240936279296875
-0.5804595947265625,1.349395751953125,-0.2367095947265625
-0.3582000732421875,1.1873321533203125,-0.2570343017578125
-0.2607269287109375,0.98834228515625,-0.2155914306640625
-0.2317047119140625,0.893218994140625,-0.17236328125
-0.1713409423828125,0.831329345703125,-0.117767333984375
-0.154022216796875,0.7367095947265625,-0.141571044921875
-0.2804107666015625,0.694732666015625,-0.163970947265625
-0.341766357421875,0.824188232421875,-0.0457916259765625
-0.293365478515625,0.8735809326171875,-0.1178436279296875
-0.4619140625,0.8839569091796875,-0.1715545654296875
-0.62725830078125,1.0279541015625,-0.1072998046875
-0.722808837890625,1.164459228515625,-0.085235595703125
-0.7502593994140625,1.11767578125,-0.1149749755859375
-0.775482177734375,0.98944091796875,-0.08758544921875
-0.7559661865234375,0.8997802734375,-0.0857696533203125
-0.711944580078125,0.8478851318359375,-0.1123199462890625
-0.65301513671875,0.7926025390625,-0.150909423828125
-0.6762847900390625,0.8411712646484375,-0.2099761962890625
-0.7756805419921875,0.9864044189453124,-0.2301788330078125
-0.7666015625,1.0149688720703125,-0.178375244140625
-0.7570648193359375,0.9604034423828124,-0.238006591796875
-0.713531494140625,0.88494873046875,-0.2754364013671875
-0.6446533203125,0.9466094970703124,-0.1514129638671875
-0.5418701171875,0.9974212646484376,-0.05462646484375
-0.5935211181640625,0.93841552734375,-0.193572998046875
-0.579620361328125,0.9755096435546876,-0.178253173828125
-0.4402618408203125,1.05029296875,-0.1168365478515625
-0.366363525390625,1.0278472900390625,-0.193878173828125
-0.3531951904296875,0.9612579345703124,-0.2546234130859375
-0.4202423095703125,0.9395904541015624,-0.2225341796875
-0.478240966796875,0.9614105224609376,-0.1646728515625
-0.4530181884765625,0.969329833984375,-0.199310302734375
-0.392791748046875,0.958984375,-0.2533111572265625
-0.3268280029296875,0.978118896484375,-0.2513275146484375
-0.3133087158203125,0.9553375244140624,-0.2607879638671875
-0.2786407470703125,0.863128662109375,-0.24542236328125
-0.281494140625,0.76043701171875,-0.2019805908203125
-0.3749237060546875,0.797393798828125,-0.0781097412109375
-0.45599365234375,0.97796630859375,0.0789031982421875
-0.4249267578125,0.9617462158203124,0.012908935546875
-0.5869293212890625,0.8104248046875,-0.0006866455078125
-0.775054931640625,0.8172607421875,0.081298828125
-0.9085693359375,0.8595123291015625,0.03704833984375
-0.909637451171875,0.8258514404296875,-0.0955047607421875
-0.8711090087890625,0.7124786376953125,-0.1607208251953125
-0.76544189453125,0.65301513671875,-0.1705169677734375
-0.6805267333984375,0.6314849853515625,-0.1363525390625
-0.6775054931640625,0.593719482421875,-0.1268768310546875
-0.73553466796875,0.5905609130859375,-0.1531982421875
-0.7350006103515625,0.5973968505859375,-0.196563720703125
-0.7532196044921875,0.606475830078125,-0.24298095703125
-0.827606201171875,0.60003662109375,-0.30877685546875
-0.8490447998046875,0.644195556640625,-0.337646484375
-0.824371337890625,0.7334442138671875,-0.3732452392578125
-0.75152587890625,0.7669219970703125,-0.4088592529296875
-0.724212646484375,0.7329864501953125,-0.4262237548828125
-0.752593994140625,0.6590576171875,-0.46234130859375
-0.7697906494140625,0.604034423828125,-0.4936065673828125
-0.6657867431640625,0.613311767578125,-0.5330963134765625
-0.6123046875,0.59503173828125,-0.631988525390625
-0.5592803955078125,0.497833251953125,-0.6053619384765625
-0.550872802734375,0.4998626708984375,-0.5436553955078125
-0.5582427978515625,0.46319580078125,-0.698944091796875
-0.5248565673828125,0.4013671875,-0.753387451171875
-0.560028076171875,0.351226806640625,-0.72076416015625
-0.591064453125,0.3465118408203125,-0.7514495849609375
-0.5548553466796875,0.351531982421875,-0.941009521484375
-0.507781982421875,0.3043365478515625,-0.9059600830078124
-0.4286346435546875,0.3046112060546875,-0.7994842529296875
-0.32916259765625,0.2650146484375,-0.7297821044921875
-0.3417816162109375,0.2384796142578125,-0.861785888671875
-0.385772705078125,0.3443145751953125,-1.1340789794921875
-0.268951416015625,0.304595947265625,-0.975128173828125
-0.2516326904296875,0.1992034912109375,-0.80584716796875
-0.2748260498046875,0.069610595703125,-0.934783935546875
-0.293365478515625,-0.0561065673828125,-1.0489654541015625
-0.391448974609375,-0.2118072509765625,-0.8694000244140625
-0.11187744140625,-0.5648956298828125,-0.743927001953125
0.1453399658203125,-0.8665924072265625,-0.720001220703125
-0.01934814453125,-0.7620849609375,-1.1441192626953125
0.0214691162109375,-0.6081695556640625,-1.082763671875
0.0564422607421875,-0.4376068115234375,-0.9765777587890624
-0.284576416015625,-0.399871826171875,-1.00244140625
-0.283050537109375,-0.4487457275390625,-0.902801513671875
-0.2041015625,-0.50531005859375,-0.7144012451171875
-0.2103118896484375,-0.576171875,-0.68048095703125
-0.0584869384765625,-0.5418548583984375,-0.7768707275390625
-0.116851806640625,-0.5566864013671875,-0.7496337890625
-0.069366455078125,-0.5818634033203125,-0.6215362548828125
-0.0875396728515625,-0.6016998291015625,-0.6832122802734375
-0.18603515625,-0.59765625,-0.854583740234375
-0.0407867431640625,-0.5706787109375,-0.6761932373046875
-0.0130615234375,-0.553131103515625,-0.7035980224609375
-0.0307769775390625,-0.5960845947265625,-0.7547607421875
-0.0818634033203125,-0.6592864990234375,-0.703277587890625
