AccelerationX,AccelerationY,AccelerationZ
-0.4079437255859375,0.6678009033203125,-0.5863800048828125
-0.3858795166015625,0.669403076171875,-0.548980712890625
-0.4498443603515625,0.6914825439453125,-0.625946044921875
-0.4347991943359375,0.6776885986328125,-0.5763397216796875
-0.4224395751953125,0.663177490234375,-0.5530853271484375
-0.4122161865234375,0.6730804443359375,-0.581390380859375
-0.4403228759765625,0.691680908203125,-0.5943450927734375
-0.4576873779296875,0.6681671142578125,-0.586273193359375
-0.475982666015625,0.655975341796875,-0.5506591796875
-0.4604644775390625,0.6699676513671875,-0.5609893798828125
-0.44049072265625,0.6699676513671875,-0.5812835693359375
-0.450286865234375,0.6519775390625,-0.5596160888671875
-0.489349365234375,0.6680755615234375,-0.606170654296875
-0.5156097412109375,0.6519622802734375,-0.61297607421875
-0.520355224609375,0.62335205078125,-0.514068603515625
-0.5353240966796875,0.616119384765625,-0.5033416748046875
-0.5308074951171875,0.6236724853515625,-0.4957733154296875
-0.548126220703125,0.6504364013671875,-0.4947662353515625
-0.554229736328125,0.6085357666015625,-0.3831787109375
-0.573883056640625,0.63433837890625,-0.3173828125
-0.6002960205078125,0.6317901611328125,-0.341827392578125
-0.700927734375,0.605987548828125,-0.20098876953125
-0.7344818115234375,0.60498046875,-0.0481719970703125
-0.80419921875,0.64794921875,-0.11322021484375
-0.850372314453125,0.6365814208984375,-0.110565185546875
-0.8868560791015625,0.6299896240234375,-0.05841064453125
-0.94537353515625,0.6357574462890625,-0.099853515625
-0.9132080078125,0.6480712890625,-0.1369476318359375
-0.904296875,0.6612548828125,-0.1311798095703125
-0.84283447265625,0.7022552490234375,-0.167266845703125
-0.8403167724609375,0.74066162109375,-0.1818084716796875
-0.822906494140625,0.7428131103515625,-0.2151336669921875
-0.7590179443359375,0.808319091796875,-0.3455657958984375
-0.6465606689453125,0.7300262451171875,-0.219268798828125
-0.6129913330078125,0.635345458984375,-0.2518310546875
-0.6266021728515625,0.765045166015625,-0.3320770263671875
-0.68218994140625,0.9693450927734376,-0.144439697265625
-0.644683837890625,0.83123779296875,-0.0679168701171875
-0.5295257568359375,0.7430877685546875,-0.179718017578125
-0.48675537109375,0.739227294921875,-0.18341064453125
-0.4793701171875,0.7214508056640625,-0.0785369873046875
-0.463714599609375,0.6991119384765625,-0.0318145751953125
-0.49591064453125,0.6945343017578125,-0.0617523193359375
-0.5598907470703125,0.7750091552734375,-0.053985595703125
-0.58282470703125,0.90771484375,-0.01788330078125
-0.6089935302734375,0.9160614013671876,-0.021881103515625
-0.68206787109375,0.9178466796875,-0.0158843994140625
-0.703338623046875,0.9277801513671876,0.00323486328125
-0.5937957763671875,0.7565460205078125,-0.043304443359375
-0.57879638671875,0.7064056396484375,-0.0829010009765625
-0.53753662109375,0.7198486328125,-0.0155487060546875
-0.531219482421875,0.9203033447265624,0.1409149169921875
-0.5937042236328125,0.934539794921875,-0.013336181640625
-0.5833282470703125,0.7682647705078125,-0.1403656005859375
-0.602325439453125,0.6599273681640625,-0.0940399169921875
-0.5880889892578125,0.6543731689453125,0.0009613037109375
-0.5626983642578125,0.7156219482421875,0.11566162109375
-0.5888824462890625,0.7752685546875,0.0478668212890625
-0.666473388671875,0.7697601318359375,-0.043701171875
-0.7866973876953125,0.8498382568359375,-0.08538818359375
-0.837615966796875,0.9487152099609376,-0.034515380859375
-0.7486114501953125,0.9186248779296876,0.0121002197265625
-0.7624053955078125,0.96234130859375,0.02227783203125
-0.721221923828125,1.02789306640625,-0.00213623046875
-0.6550140380859375,0.9021759033203124,-0.037811279296875
-0.7067108154296875,0.836456298828125,-0.0312042236328125
-0.6733856201171875,0.963623046875,-0.04833984375
-0.6004638671875,1.0138397216796875,-0.01019287109375
-0.5034637451171875,0.9135894775390624,0.0129547119140625
-0.4977264404296875,0.822784423828125,-0.0142059326171875
-0.434478759765625,0.8061981201171875,-0.0123443603515625
-0.3460540771484375,0.7588958740234375,0.010284423828125
-0.34088134765625,0.68646240234375,0.02984619140625
-0.3978271484375,0.7384490966796875,0.0886077880859375
-0.389984130859375,0.846099853515625,0.0769805908203125
-0.4122467041015625,0.87066650390625,0.07257080078125
-0.498504638671875,0.845306396484375,0.091339111328125
-0.5973663330078125,0.9256134033203124,0.1287689208984375
-0.626861572265625,0.9727020263671876,0.1062774658203125
-0.5923309326171875,0.8562469482421875,-0.008148193359375
-0.6960601806640625,0.9184722900390624,-0.0339813232421875
-0.745819091796875,0.9124755859375,-0.04901123046875
-0.724334716796875,0.717498779296875,0.0486907958984375
-0.719573974609375,0.6191864013671875,0.1126251220703125
-0.6620025634765625,0.637359619140625,0.105438232421875
-0.678558349609375,0.7376861572265625,0.1187286376953125
-0.7388458251953125,0.7591400146484375,0.087646484375
-0.757232666015625,0.795501708984375,-0.0063934326171875
-0.7915496826171875,0.8831329345703125,-0.073577880859375
-0.7651519775390625,0.9133758544921876,-0.0938720703125
-0.7196197509765625,0.8711090087890625,-0.087158203125
-0.7676849365234375,1.0270843505859375,-0.076019287109375
-0.672027587890625,0.9662017822265624,-0.119720458984375
-0.598388671875,0.818695068359375,-0.13232421875
-0.6204376220703125,0.887664794921875,-0.15643310546875
-0.6007843017578125,1.0550689697265625,-0.1302337646484375
-0.5095977783203125,1.0128631591796875,-0.214080810546875
-0.4688262939453125,0.8190460205078125,-0.18304443359375
-0.537322998046875,0.76593017578125,-0.185211181640625
-0.488250732421875,0.82708740234375,-0.1277923583984375
-0.4503173828125,0.778106689453125,0.00201416015625
-0.4494476318359375,0.7744140625,0.0435028076171875
-0.5527801513671875,0.84283447265625,0.025115966796875
-0.551300048828125,0.8975372314453125,0.007415771484375
-0.5048675537109375,0.891021728515625,0.06878662109375
-0.4842376708984375,0.7599334716796875,0.0503997802734375
-0.6111602783203125,0.8349609375,0.065216064453125
-0.4583740234375,0.8109283447265625,-0.007049560546875
-0.479705810546875,0.724884033203125,0.0063018798828125
-0.5671844482421875,0.8537139892578125,0.0255889892578125
-0.6331329345703125,0.948944091796875,-0.019287109375
-0.667205810546875,0.8408355712890625,-0.0555877685546875
-0.7084503173828125,0.7526397705078125,-0.0564422607421875
-0.6656494140625,0.6696929931640625,-0.0283660888671875
-0.6645965576171875,0.704681396484375,0.067291259765625
-0.70733642578125,0.78558349609375,0.072784423828125
-0.72479248046875,0.845428466796875,-0.0584716796875
-0.7646636962890625,0.8636016845703125,-0.07574462890625
-0.779205322265625,0.871795654296875,-0.1429595947265625
-0.7281646728515625,0.8314361572265625,-0.1540985107421875
-0.7065887451171875,0.833404541015625,-0.081085205078125
-0.759552001953125,1.02032470703125,-0.052337646484375
-0.6656646728515625,0.9401397705078124,-0.12603759765625
-0.701080322265625,0.762481689453125,-0.10107421875
-0.7609405517578125,0.8029022216796875,-0.096038818359375
-0.7005767822265625,0.8823394775390625,-0.01287841796875
-0.61944580078125,0.8260345458984375,-0.00518798828125
-0.6269378662109375,0.8047332763671875,-0.07769775390625
-0.604522705078125,0.832855224609375,-0.0782012939453125
-0.5688018798828125,0.86309814453125,0.0034942626953125
-0.4949951171875,0.8692169189453125,0.0490875244140625
-0.456512451171875,0.8506927490234375,0.0565948486328125
-0.4937591552734375,0.9190826416015624,0.0648956298828125
-0.447113037109375,0.895965576171875,0.0235137939453125
-0.45166015625,0.77117919921875,0.0380706787109375
-0.5845794677734375,0.9801788330078124,0.109100341796875
-0.36895751953125,0.801849365234375,-0.0413360595703125
-0.498077392578125,0.728790283203125,-0.059234619140625
-0.5936126708984375,0.8443603515625,0.0095367431640625
-0.5970916748046875,0.866729736328125,0.111297607421875
-0.5791015625,0.737213134765625,0.109100341796875
-0.599212646484375,0.6681671142578125,0.04736328125
-0.6413116455078125,0.724029541015625,-0.0152587890625
-0.64990234375,0.754608154296875,0.03955078125
-0.703887939453125,0.7375030517578125,0.0574188232421875
-0.7960205078125,0.8533477783203125,0.018524169921875
-0.8451995849609375,0.939910888671875,-0.052886962890625
-0.8014984130859375,0.8533782958984375,-0.050750732421875
-0.800201416015625,0.7756195068359375,-0.0440826416015625
-0.88824462890625,0.9998931884765624,-0.040863037109375
-0.7207183837890625,0.9243927001953124,-0.0811309814453125
-0.706390380859375,0.777252197265625,-0.1148529052734375
-0.7298736572265625,0.8196258544921875,-0.17724609375
-0.6699371337890625,0.881561279296875,-0.1033935546875
-0.592132568359375,0.813690185546875,-0.0623321533203125
-0.605224609375,0.78955078125,-0.0676116943359375
-0.6074066162109375,0.848388671875,-0.0545654296875
-0.5222320556640625,0.882354736328125,-0.0092620849609375
-0.495513916015625,0.8520050048828125,0.001068115234375
-0.481536865234375,0.842132568359375,0.01544189453125
-0.492034912109375,0.9171142578125,0.01898193359375
-0.44989013671875,0.9486083984375,-0.019989013671875
-0.460357666015625,0.7888641357421875,0.0204010009765625
-0.548919677734375,0.8140716552734375,-0.0283355712890625
-0.4215240478515625,0.8973846435546875,-0.0846099853515625
-0.34326171875,0.688720703125,-0.1760711669921875
-0.4962921142578125,0.747711181640625,-0.128814697265625
-0.5579681396484375,0.8445587158203125,-0.11053466796875
-0.5867156982421875,0.8061981201171875,-0.107635498046875
-0.6222076416015625,0.7219696044921875,-0.0682830810546875
-0.674957275390625,0.6631011962890625,-0.0116119384765625
-0.7196807861328125,0.6886138916015625,0.0226593017578125
-0.758148193359375,0.7482757568359375,0.096405029296875
-0.8191680908203125,0.730987548828125,0.046478271484375
-0.8750457763671875,0.798095703125,-0.066162109375
-0.8529052734375,0.8942108154296875,-0.113983154296875
-0.8776397705078125,0.88079833984375,-0.1184539794921875
-0.918426513671875,0.8036956787109375,-0.0833740234375
-0.970855712890625,0.954681396484375,-0.0798187255859375
-0.845001220703125,0.929779052734375,-0.081695556640625
-0.710174560546875,0.7539825439453125,-0.1548919677734375
-0.755218505859375,0.8228302001953125,-0.20001220703125
-0.751861572265625,0.991058349609375,-0.1625213623046875
-0.559600830078125,0.8903350830078125,-0.16741943359375
-0.496063232421875,0.7240447998046875,-0.2118072509765625
-0.5047454833984375,0.707763671875,-0.2606353759765625
-0.436004638671875,0.7419586181640625,-0.182342529296875
-0.4088592529296875,0.79168701171875,-0.0972137451171875
-0.396026611328125,0.8165435791015625,-0.0430145263671875
-0.46685791015625,0.88720703125,0.05767822265625
-0.5250396728515625,0.949066162109375,0.0768585205078125
-0.5203857421875,0.8355255126953125,0.0167083740234375
-0.5951690673828125,0.745758056640625,0.0344085693359375
-0.6331024169921875,0.988861083984375,0.1334991455078125
-0.4265899658203125,0.7251434326171875,-0.0147552490234375
-0.6219024658203125,0.7349853515625,0.0095977783203125
-0.6444091796875,0.871673583984375,0.06396484375
-0.640869140625,0.8467864990234375,0.09625244140625
-0.6523895263671875,0.6802825927734375,0.04705810546875
-0.6827392578125,0.6314697265625,-0.0052032470703125
-0.6751861572265625,0.7141571044921875,-0.0590972900390625
-0.6364288330078125,0.759307861328125,-0.08660888671875
-0.6838836669921875,0.7698974609375,-0.125823974609375
-0.7144622802734375,0.789306640625,-0.1140594482421875
-0.710205078125,0.8571929931640625,-0.07843017578125
-0.69464111328125,0.883636474609375,-0.1214141845703125
-0.7444610595703125,0.843048095703125,-0.1309814453125
-0.8684539794921875,0.9962921142578124,-0.1319427490234375
-0.8120574951171875,1.009490966796875,-0.18194580078125
-0.66680908203125,0.7646484375,-0.2226104736328125
-0.709197998046875,0.81695556640625,-0.1971282958984375
-0.6761016845703125,1.0037994384765625,-0.1297607421875
-0.5974273681640625,1.0526580810546875,-0.125732421875
-0.5633544921875,0.930908203125,-0.1945037841796875
-0.5777435302734375,0.8798828125,-0.192108154296875
-0.485565185546875,0.8678741455078125,-0.1401214599609375
-0.4073638916015625,0.818450927734375,-0.07574462890625
-0.3590087890625,0.756866455078125,0.028961181640625
-0.3478851318359375,0.7608795166015625,0.064910888671875
-0.3946533203125,0.856414794921875,0.0558013916015625
-0.3681182861328125,0.921661376953125,0.025299072265625
-0.40692138671875,0.8277740478515625,-0.0753021240234375
-0.5838623046875,0.893890380859375,-0.0828704833984375
-0.5072021484375,0.965423583984375,-0.055206298828125
-0.4269866943359375,0.83660888671875,-0.1644287109375
-0.60711669921875,0.9261474609375,-0.1235504150390625
-0.70947265625,0.988433837890625,-0.0773468017578125
-0.6893768310546875,0.912261962890625,-0.07452392578125
-0.6282806396484375,0.735504150390625,-0.11578369140625
-0.58978271484375,0.6761474609375,-0.063323974609375
-0.5782928466796875,0.71905517578125,0.0207672119140625
-0.5794219970703125,0.729736328125,-0.0425567626953125
-0.607696533203125,0.7488250732421875,-0.1397552490234375
-0.6735382080078125,0.8126678466796875,-0.129974365234375
-0.8143768310546875,0.8279266357421875,-0.0506134033203125
-0.8172760009765625,0.844512939453125,0.028778076171875
-0.82989501953125,0.827911376953125,0.0335693359375
-0.8975830078125,0.9297027587890624,-0.007843017578125
-0.86151123046875,0.856170654296875,-0.032806396484375
-0.7889251708984375,0.73028564453125,-0.023193359375
-0.787567138671875,0.7100830078125,-0.04315185546875
-0.7548980712890625,0.82672119140625,-0.1239013671875
-0.737579345703125,0.9419708251953124,-0.1119384765625
-0.691650390625,0.8708343505859375,-0.0973358154296875
-0.6311492919921875,0.8230133056640625,-0.1103973388671875
-0.5639190673828125,0.859100341796875,-0.1131744384765625
-0.463531494140625,0.84930419921875,-0.0715789794921875
-0.41796875,0.7910614013671875,-0.03497314453125
-0.40106201171875,0.749420166015625,-0.0133819580078125
-0.399871826171875,0.7727813720703125,0.018341064453125
-0.3983917236328125,0.8235931396484375,0.058380126953125
-0.4128265380859375,0.849151611328125,0.0415496826171875
-0.473236083984375,0.81329345703125,0.0326690673828125
-0.6889190673828125,1.0657958984375,0.0186920166015625
-0.571502685546875,0.890960693359375,-0.03216552734375
-0.6343536376953125,0.6623382568359375,0.05291748046875
-0.71978759765625,0.7286834716796875,0.1417999267578125
-0.7261962890625,0.8952484130859375,0.1508636474609375
-0.863800048828125,0.8453826904296875,0.1514739990234375
-0.861328125,0.62615966796875,0.179473876953125
-0.8000946044921875,0.5424957275390625,0.2491607666015625
-0.76385498046875,0.6412506103515625,0.275115966796875
-0.7516021728515625,0.6719818115234375,0.289581298828125
-0.769744873046875,0.6962890625,0.203125
-0.76043701171875,0.71405029296875,0.1455078125
-0.7454376220703125,0.7498626708984375,0.061920166015625
-0.7344512939453125,0.73883056640625,0.024658203125
-0.728607177734375,0.7552642822265625,0.048797607421875
-0.7004547119140625,0.824371337890625,0.0012054443359375
-0.7027740478515625,0.95013427734375,-0.090362548828125
-0.5930633544921875,1.0194549560546875,0.0499114990234375
-0.56927490234375,0.8382568359375,0.0738067626953125
-0.520721435546875,0.730987548828125,0.1334991455078125
-0.5978546142578125,0.79107666015625,-0.011962890625
-0.580169677734375,0.7844696044921875,-0.138519287109375
-0.507781982421875,0.7520294189453125,-0.2660369873046875
-0.5210418701171875,0.762420654296875,-0.331634521484375
-0.517242431640625,0.8014373779296875,-0.3508758544921875
-0.531951904296875,0.8607330322265625,-0.373992919921875
-0.561798095703125,0.8684234619140625,-0.410797119140625
-0.604766845703125,0.907470703125,-0.3457183837890625
-0.678924560546875,0.9284515380859376,-0.2345123291015625
-0.6857452392578125,0.883941650390625,-0.21844482421875
-0.56439208984375,0.9539947509765624,-0.2225799560546875
-0.5778350830078125,0.978240966796875,-0.21551513671875
-0.470245361328125,1.051116943359375,-0.16094970703125
-0.45904541015625,1.0990753173828125,-0.1877899169921875
-0.5388336181640625,1.0486907958984375,-0.124847412109375
-0.529022216796875,1.0010986328125,-0.1164398193359375
-0.5096588134765625,1.105804443359375,-0.0657196044921875
-0.5196990966796875,1.222076416015625,-0.0549163818359375
-0.354766845703125,1.079254150390625,-0.193389892578125
-0.2473602294921875,0.9508819580078124,-0.1406402587890625
-0.128265380859375,1.016265869140625,0.021942138671875
-0.0817413330078125,1.03338623046875,-0.000640869140625
-0.1378326416015625,0.9019775390625,0.0892181396484375
-0.1502838134765625,0.821746826171875,0.2754669189453125
-0.2534942626953125,0.8535308837890625,0.312164306640625
-0.3187103271484375,0.8824462890625,0.2673797607421875
-0.3706512451171875,0.93902587890625,0.2710113525390625
-0.4690093994140625,0.99212646484375,0.278076171875
-0.64947509765625,1.061279296875,0.3328857421875
-0.730865478515625,1.0672760009765625,0.3973846435546875
-0.7913970947265625,1.06072998046875,0.2821044921875
-0.86407470703125,1.049102783203125,0.1544342041015625
-0.8639373779296875,0.939300537109375,-0.0074005126953125
-0.89959716796875,0.853118896484375,-0.0748443603515625
-0.826934814453125,0.8831939697265625,-0.0538330078125
-0.6718597412109375,0.8237152099609375,0.008697509765625
-0.6933441162109375,0.93536376953125,-0.0255126953125
-0.6491851806640625,1.0592803955078125,-0.130126953125
-0.57928466796875,1.094512939453125,-0.203277587890625
-0.559600830078125,0.986785888671875,-0.22418212890625
-0.467437744140625,0.98248291015625,-0.25738525390625
-0.344696044921875,1.0359344482421875,-0.253326416015625
-0.307098388671875,0.9403076171875,-0.1668243408203125
-0.2964019775390625,0.8909454345703125,-0.142852783203125
-0.3425445556640625,1.0041351318359375,-0.109375
-0.27825927734375,1.125244140625,-0.0692596435546875
-0.2542572021484375,1.0293121337890625,-0.0367431640625
-0.28619384765625,0.8599090576171875,0.0058441162109375
-0.32037353515625,0.9647369384765624,0.129974365234375
-0.1784210205078125,1.0177154541015625,0.0361785888671875
-0.267333984375,0.949615478515625,0.045013427734375
-0.452423095703125,1.0964508056640625,0.0589141845703125
-0.4743194580078125,1.0922088623046875,0.0537261962890625
-0.4777069091796875,0.8534393310546875,0.05908203125
-0.51812744140625,0.7056121826171875,0.130279541015625
-0.541046142578125,0.7593536376953125,0.157012939453125
-0.5636749267578125,0.8592529296875,0.12493896484375
-0.6402587890625,0.860137939453125,0.0677642822265625
-0.7429656982421875,0.9050140380859376,0.031219482421875
-0.8004302978515625,1.016571044921875,0.0425872802734375
-0.791473388671875,0.973907470703125,-0.059051513671875
-0.8190460205078125,0.8076019287109375,-0.067718505859375
-0.8935089111328125,0.922943115234375,-0.053009033203125
-0.7790069580078125,0.967010498046875,0.04815673828125
-0.7164764404296875,0.8200836181640625,-0.007568359375
-0.726959228515625,0.8732452392578125,-0.005157470703125
-0.605194091796875,0.990570068359375,-0.0067291259765625
-0.4944915771484375,0.93133544921875,-0.0563507080078125
-0.484588623046875,0.8812103271484375,-0.087188720703125
-0.4627227783203125,0.8981475830078125,-0.053466796875
-0.3680572509765625,0.8750457763671875,-0.017303466796875
-0.3300018310546875,0.825439453125,-0.0047760009765625
-0.3154449462890625,0.84716796875,0.001708984375
-0.294036865234375,0.9254608154296876,0.0083770751953125
-0.2914886474609375,0.9922637939453124,-0.0447998046875
-0.3399658203125,0.8967132568359375,-0.062255859375
-0.4678192138671875,0.932464599609375,0.0539703369140625
-0.412353515625,1.076263427734375,-0.0155792236328125
-0.383544921875,0.9905853271484376,-0.184417724609375
-0.545501708984375,0.9627838134765624,-0.1164093017578125
-0.63995361328125,1.0233612060546875,-0.04730224609375
-0.6728973388671875,0.969635009765625,-0.010894775390625
-0.69000244140625,0.745819091796875,0.005645751953125
-0.70928955078125,0.6996917724609375,-0.0050811767578125
-0.6396331787109375,0.7131805419921875,0.1113433837890625
-0.57135009765625,0.694793701171875,0.0517730712890625
-0.5912017822265625,0.7532806396484375,-0.016693115234375
-0.6575927734375,0.8639678955078125,-0.019683837890625
-0.7121429443359375,0.9575653076171876,-0.019500732421875
-0.6988677978515625,0.964813232421875,-0.105560302734375
-0.72833251953125,0.9515380859375,-0.077667236328125
-0.7655029296875,1.11700439453125,0.0522003173828125
-0.691802978515625,1.0867767333984375,0.047882080078125
-0.7112274169921875,0.9909820556640624,-0.0075225830078125
-0.700531005859375,1.117523193359375,0.048248291015625
-0.4873504638671875,1.1238555908203125,0.1004180908203125
-0.337921142578125,0.911834716796875,0.0863800048828125
-0.3398284912109375,0.768768310546875,0.059478759765625
-0.2860565185546875,0.724456787109375,0.151458740234375
-0.2268218994140625,0.6148834228515625,0.195892333984375
-0.317779541015625,0.5621795654296875,0.143951416015625
-0.456878662109375,0.585357666015625,0.075439453125
-0.50140380859375,0.7131805419921875,0.05145263671875
-0.50921630859375,0.8681640625,-0.0296630859375
-0.52227783203125,1.031341552734375,-0.15850830078125
-0.61798095703125,1.135467529296875,-0.24456787109375
-0.56585693359375,1.1185455322265625,-0.2740631103515625
-0.49713134765625,0.8459930419921875,-0.3738250732421875
-0.7363739013671875,0.911102294921875,-0.21087646484375
-0.7529449462890625,0.9266510009765624,-0.06463623046875
-0.680908203125,0.832122802734375,-0.02069091796875
-0.5906219482421875,0.7227020263671875,-0.1887664794921875
-0.497314453125,0.6591796875,-0.178436279296875
-0.4956512451171875,0.7134246826171875,-0.08001708984375
-0.533172607421875,0.742767333984375,-0.058868408203125
-0.6887359619140625,0.7311248779296875,-0.0368804931640625
-0.8286285400390625,0.805328369140625,-0.0128173828125
-0.8643951416015625,0.94830322265625,-0.0627593994140625
-0.8331298828125,1.0065765380859375,-0.200592041015625
-0.789154052734375,0.956573486328125,-0.3059539794921875
-0.7719879150390625,1.0672149658203125,-0.2457275390625
-0.6588134765625,1.11309814453125,-0.1783905029296875
-0.5386962890625,0.9323883056640624,-0.221038818359375
-0.6168975830078125,0.8598480224609375,-0.227752685546875
-0.6099700927734375,0.9723052978515624,-0.1695556640625
-0.4930877685546875,0.9955291748046876,-0.196319580078125
-0.400421142578125,0.900421142578125,-0.222412109375
-0.3774871826171875,0.8213348388671875,-0.2481842041015625
-0.3388214111328125,0.777618408203125,-0.1920928955078125
-0.2825164794921875,0.73590087890625,-0.0692901611328125
-0.260223388671875,0.732177734375,0.061737060546875
-0.2821502685546875,0.779998779296875,0.1188201904296875
-0.3581695556640625,0.8963623046875,0.0582275390625
-0.3659210205078125,0.9678497314453124,-0.02471923828125
-0.4620819091796875,0.9070892333984376,-0.0375823974609375
-0.6024017333984375,1.024688720703125,0.036773681640625
-0.5032501220703125,1.0539398193359375,-0.0539398193359375
-0.52618408203125,0.9967193603515624,-0.1845703125
-0.63140869140625,1.0548553466796875,-0.1748504638671875
-0.66790771484375,0.9933319091796876,-0.0897369384765625
-0.6778106689453125,0.77886962890625,-0.0546112060546875
-0.6610870361328125,0.6865692138671875,-0.0017242431640625
-0.6079254150390625,0.7147674560546875,0.0844573974609375
-0.5446929931640625,0.75677490234375,0.087982177734375
-0.52392578125,0.7391815185546875,-0.014007568359375
-0.5775909423828125,0.8663177490234375,-0.0719757080078125
-0.6707916259765625,0.998779296875,-0.1101531982421875
-0.7253570556640625,0.9778594970703124,-0.1395416259765625
-0.7088165283203125,0.97283935546875,-0.1985626220703125
-0.731903076171875,1.1222381591796875,-0.225982666015625
-0.64593505859375,1.0113983154296875,-0.1371917724609375
-0.65142822265625,0.8773651123046875,-0.1172637939453125
-0.677703857421875,0.987030029296875,-0.087738037109375
-0.6038055419921875,1.1135711669921875,-0.1221771240234375
-0.447784423828125,1.039520263671875,-0.226165771484375
-0.470489501953125,0.9271087646484376,-0.28607177734375
-0.461151123046875,0.90167236328125,-0.1974639892578125
-0.3815155029296875,0.9290618896484376,-0.0963287353515625
-0.2635955810546875,0.9126129150390624,-0.038177490234375
-0.240753173828125,0.8820037841796875,-0.0645904541015625
-0.242919921875,0.9157562255859376,-0.04473876953125
-0.2301025390625,0.9245147705078124,-0.0138397216796875
-0.2831268310546875,0.864532470703125,-0.024261474609375
-0.45452880859375,0.932891845703125,0.0668487548828125
-0.367889404296875,1.046356201171875,-0.008575439453125
-0.383392333984375,0.989501953125,-0.1879730224609375
-0.5653533935546875,0.9723663330078124,-0.082366943359375
-0.6576385498046875,1.026641845703125,0.0237274169921875
-0.603851318359375,0.952667236328125,0.0292205810546875
-0.5823974609375,0.7881927490234375,-0.0259246826171875
-0.5917816162109375,0.7177581787109375,0.0089111328125
-0.5827178955078125,0.73553466796875,0.0908966064453125
-0.5295562744140625,0.73876953125,0.10888671875
-0.5727691650390625,0.7604827880859375,0.086944580078125
-0.662994384765625,0.9820404052734376,0.0148468017578125
-0.6154632568359375,1.1034698486328125,-0.1268310546875
-0.5984039306640625,0.980743408203125,-0.288482666015625
-0.7099761962890625,0.867340087890625,-0.2931365966796875
-0.829010009765625,1.021087646484375,-0.133514404296875
-0.6905517578125,0.93255615234375,-0.0869903564453125
-0.7418060302734375,0.84967041015625,-0.135467529296875
-0.7220611572265625,0.96978759765625,-0.090667724609375
-0.6214752197265625,1.0985565185546875,-0.0646514892578125
-0.514404296875,1.051361083984375,-0.08563232421875
-0.49822998046875,0.9978179931640624,-0.0586700439453125
-0.48663330078125,0.973663330078125,0.0842132568359375
-0.4267425537109375,0.921722412109375,0.249664306640625
-0.3341217041015625,0.892913818359375,0.3017425537109375
-0.2828521728515625,0.9088134765625,0.14898681640625
-0.3238067626953125,1.0242462158203125,0.012451171875
-0.302734375,1.046234130859375,-0.1085205078125
-0.2622833251953125,0.9728851318359376,-0.1551971435546875
-0.321044921875,0.944305419921875,-0.00933837890625
-0.3459320068359375,0.893585205078125,0.0729217529296875
-0.38836669921875,0.8304290771484375,-0.0042572021484375
-0.517730712890625,0.974273681640625,-0.092864990234375
-0.5098724365234375,1.1265869140625,-0.1824798583984375
-0.4749908447265625,1.045257568359375,-0.3028411865234375
-0.5330657958984375,0.8702545166015625,-0.36724853515625
-0.6168060302734375,0.797576904296875,-0.331329345703125
-0.6670074462890625,0.8594970703125,-0.207733154296875
-0.703948974609375,0.83306884765625,-0.0679168701171875
-0.73291015625,0.85272216796875,0.0043487548828125
-0.744476318359375,1.03167724609375,-0.0657196044921875
-0.6791229248046875,1.0505828857421875,-0.161529541015625
-0.7758331298828125,0.9373626708984376,-0.1411590576171875
-0.9026641845703124,0.989288330078125,-0.0823974609375
-0.848602294921875,0.9166107177734376,-0.01336669921875
-0.803466796875,0.8342742919921875,-0.0183563232421875
-0.77874755859375,1.002685546875,-0.0495758056640625
-0.7176666259765625,1.134033203125,-0.070220947265625
-0.62249755859375,1.1314849853515625,-0.1517333984375
-0.5332183837890625,1.0890655517578125,-0.19915771484375
-0.4665679931640625,1.057525634765625,-0.18646240234375
-0.362518310546875,0.995697021484375,-0.1353607177734375
-0.3663787841796875,0.9553680419921876,-0.108551025390625
-0.3521575927734375,0.984344482421875,-0.082611083984375
-0.2867584228515625,0.9864959716796876,-0.084686279296875
-0.20361328125,0.9645843505859376,-0.055267333984375
-0.1591796875,0.839080810546875,-0.072296142578125
-0.2875823974609375,0.8852996826171875,0.0290069580078125
-0.2540435791015625,0.898468017578125,0.0106658935546875
-0.3849639892578125,0.9036102294921876,-0.0202789306640625
-0.5580902099609375,1.02777099609375,0.034912109375
-0.6145782470703125,1.1060791015625,0.0361785888671875
-0.60504150390625,0.996063232421875,-0.04571533203125
-0.638641357421875,0.8921661376953125,-0.0871429443359375
-0.6821746826171875,0.8887481689453125,-0.05999755859375
-0.662109375,0.9038543701171876,-0.0172882080078125
-0.658172607421875,0.869415283203125,-0.0738983154296875
-0.6944427490234375,0.8613128662109375,-0.07794189453125
-0.7261810302734375,0.958221435546875,-0.0155181884765625
-0.699462890625,0.9580078125,-0.036651611328125
-0.6855316162109375,0.8466644287109375,-0.1304779052734375
-0.7742767333984375,0.874420166015625,-0.1126251220703125
-0.779937744140625,1.046966552734375,-0.064422607421875
-0.6961517333984375,0.9879150390625,-0.11895751953125
-0.74169921875,0.928497314453125,-0.1869659423828125
-0.7213897705078125,1.0230865478515625,-0.1461944580078125
-0.630828857421875,1.08819580078125,-0.1112823486328125
-0.5619049072265625,1.054779052734375,-0.19024658203125
-0.5673980712890625,1.022308349609375,-0.2136993408203125
-0.5439910888671875,1.013763427734375,-0.1609344482421875
-0.4582366943359375,0.99560546875,-0.17822265625
-0.3833160400390625,0.8746795654296875,-0.20062255859375
-0.45294189453125,0.8292236328125,-0.1422576904296875
-0.46319580078125,0.84796142578125,-0.1300048828125
-0.343017578125,0.785308837890625,-0.065826416015625
-0.37286376953125,0.71368408203125,-0.0229949951171875
-0.530914306640625,0.7283782958984375,0.0449066162109375
-0.585235595703125,0.816802978515625,0.08135986328125
-0.610626220703125,0.7716522216796875,0.013824462890625
-0.7481842041015625,0.72576904296875,0.1247100830078125
-0.8438568115234375,0.8150482177734375,0.11370849609375
-0.8402862548828125,0.8713531494140625,0.0871124267578125
-0.8475341796875,0.8700714111328125,0.0463714599609375
-0.855377197265625,0.81768798828125,0.0408935546875
-0.8114013671875,0.7792205810546875,0.080657958984375
-0.7375946044921875,0.7239990234375,0.1685638427734375
-0.7860107421875,0.72930908203125,0.1334228515625
-0.775360107421875,0.7189788818359375,0.0958709716796875
-0.78369140625,0.70196533203125,0.1025543212890625
-0.842864990234375,0.748748779296875,0.0403900146484375
-0.9152069091796876,0.901763916015625,-0.13775634765625
-0.73626708984375,0.89886474609375,-0.1373443603515625
-0.6354827880859375,0.83709716796875,-0.1284027099609375
-0.53839111328125,0.80084228515625,-0.163116455078125
-0.471435546875,0.83343505859375,-0.278472900390625
-0.49493408203125,0.781280517578125,-0.282928466796875
-0.5209808349609375,0.6971435546875,-0.2680816650390625
-0.5199737548828125,0.69342041015625,-0.3730621337890625
-0.563720703125,0.6866455078125,-0.4996337890625
-0.6148223876953125,0.712158203125,-0.4673919677734375
-0.6353759765625,0.7707977294921875,-0.3802490234375
-0.675689697265625,0.80120849609375,-0.3163909912109375
-0.7760162353515625,0.8387603759765625,-0.321044921875
-0.845123291015625,0.8577880859375,-0.3563385009765625
-0.81640625,0.8369140625,-0.38043212890625
-0.77447509765625,0.86871337890625,-0.3327484130859375
-0.738555908203125,0.9469451904296876,-0.278961181640625
-0.6801910400390625,0.99609375,-0.35345458984375
-0.6055450439453125,0.967041015625,-0.36187744140625
-0.5605010986328125,0.9189605712890624,-0.29931640625
-0.501983642578125,0.8582000732421875,-0.27398681640625
-0.4732818603515625,0.831634521484375,-0.2789154052734375
-0.4196014404296875,0.826202392578125,-0.2571258544921875
-0.2747955322265625,0.807647705078125,-0.2113037109375
-0.221923828125,0.8524932861328125,-0.1383209228515625
-0.259857177734375,0.922088623046875,-0.09710693359375
-0.393463134765625,0.96038818359375,0.0203857421875
-0.356231689453125,1.01165771484375,0.24542236328125
-0.2896881103515625,0.9745025634765624,0.2097625732421875
-0.3723297119140625,0.9677581787109376,0.0356292724609375
-0.43701171875,1.0041351318359375,0.010162353515625
-0.5324249267578125,1.0124053955078125,0.096405029296875
-0.6496429443359375,0.9833984375,0.151153564453125
-0.7369842529296875,0.940887451171875,0.104248046875
-0.7799072265625,0.9196014404296876,0.0574798583984375
-0.8040771484375,0.90631103515625,0.028594970703125
-0.791656494140625,0.9108428955078124,0.08758544921875
-0.798431396484375,0.877105712890625,0.016845703125
-0.879241943359375,0.84771728515625,-0.050811767578125
-0.9815216064453124,0.95001220703125,-0.075592041015625
-0.85150146484375,0.8745574951171875,-0.0943603515625
-0.8107757568359375,0.9132232666015624,-0.092987060546875
-0.783294677734375,1.10113525390625,-0.14453125
-0.687774658203125,1.232391357421875,-0.2378082275390625
-0.5785675048828125,1.2490997314453125,-0.36962890625
-0.54315185546875,1.154449462890625,-0.4469451904296875
-0.4967041015625,1.1348724365234375,-0.393341064453125
-0.4160614013671875,1.035369873046875,-0.2618865966796875
-0.2855377197265625,0.9332733154296876,-0.2153167724609375
-0.1275177001953125,0.9766387939453124,-0.1783447265625
-0.0677032470703125,0.9726104736328124,-0.1343994140625
-0.1156158447265625,0.9333648681640624,-0.0605010986328125
-0.1615753173828125,0.854522705078125,-0.014068603515625
-0.31597900390625,0.86474609375,0.07928466796875
-0.3282623291015625,0.925750732421875,0.179046630859375
-0.319671630859375,0.956268310546875,0.0741119384765625
-0.5020294189453125,1.0778045654296875,0.03955078125
-0.609893798828125,1.23345947265625,-0.01043701171875
-0.6689605712890625,1.129486083984375,-0.139739990234375
-0.7185516357421875,0.8882293701171875,-0.12176513671875
-0.73150634765625,0.7761077880859375,-0.0236663818359375
-0.70697021484375,0.8200225830078125,0.006500244140625
-0.647979736328125,0.782501220703125,0.0323486328125
-0.7628173828125,0.7891082763671875,-0.0223846435546875
-0.89923095703125,0.8501739501953125,-0.0323638916015625
-0.9055023193359376,0.866363525390625,-0.1217193603515625
-0.8766021728515625,0.80743408203125,-0.25775146484375
-0.933502197265625,0.9039306640625,-0.287841796875
-0.865875244140625,1.0745697021484375,-0.24603271484375
-0.634033203125,0.992156982421875,-0.24957275390625
-0.610137939453125,0.917755126953125,-0.2000732421875
-0.599212646484375,1.0309600830078125,-0.092193603515625
-0.471282958984375,1.115203857421875,-0.0184783935546875
-0.444122314453125,0.986114501953125,-0.140777587890625
-0.4694366455078125,0.9127044677734376,-0.057769775390625
-0.428070068359375,0.8961944580078125,0.0253448486328125
-0.30889892578125,0.8074493408203125,0.04791259765625
-0.2867279052734375,0.7186126708984375,0.027862548828125
-0.297210693359375,0.8060302734375,0.0708770751953125
-0.3187255859375,0.9176483154296876,0.0659332275390625
-0.3896942138671875,1.0472412109375,0.0791473388671875
-0.366729736328125,0.9934844970703124,-0.048431396484375
-0.4400177001953125,0.90216064453125,0.1179046630859375
-0.514373779296875,0.9268646240234376,0.2538909912109375
-0.410430908203125,0.8013763427734375,0.1605224609375
-0.639007568359375,0.9517669677734376,0.19354248046875
-0.7908477783203125,1.073150634765625,-0.01275634765625
-0.861053466796875,0.94561767578125,-0.0788421630859375
-0.9022369384765624,0.7136688232421875,-0.0135650634765625
-0.8455657958984375,0.6788330078125,0.0180816650390625
-0.7515106201171875,0.7463836669921875,0.016082763671875
-0.7034454345703125,0.7357635498046875,-0.00537109375
-0.6642303466796875,0.696258544921875,-0.0579681396484375
-0.7252197265625,0.7193145751953125,-0.003326416015625
-0.774322509765625,0.7906341552734375,0.009918212890625
-0.8007965087890625,0.874114990234375,-0.0517425537109375
-0.776092529296875,0.88018798828125,-0.153045654296875
-0.8318328857421875,1.03466796875,-0.1875457763671875
-0.7905731201171875,1.105316162109375,-0.1443328857421875
-0.7717132568359375,0.97265625,-0.1489105224609375
-0.74285888671875,0.9758148193359376,-0.1761474609375
-0.6573486328125,1.065277099609375,-0.2024688720703125
-0.5464324951171875,1.0132598876953125,-0.25372314453125
-0.5217437744140625,0.8951873779296875,-0.226531982421875
-0.5170135498046875,0.890777587890625,-0.240692138671875
-0.449462890625,0.844696044921875,-0.222442626953125
-0.44854736328125,0.906341552734375,-0.111053466796875
-0.35369873046875,0.9586639404296876,-0.0753936767578125
-0.3159637451171875,0.9730377197265624,-0.1086883544921875
-0.2603607177734375,0.96142578125,-0.0670166015625
-0.1663970947265625,0.8356475830078125,-0.015899658203125
-0.3346710205078125,0.9240264892578124,0.019989013671875
-0.3398590087890625,0.89801025390625,-0.0521240234375
-0.4369049072265625,1.0725555419921875,0.0125732421875
-0.547637939453125,1.1937255859375,-0.07275390625
-0.582183837890625,1.0029754638671875,-0.1334075927734375
-0.611236572265625,0.82611083984375,0.003753662109375
-0.660369873046875,0.7919921875,0.1198883056640625
-0.6959228515625,0.8416900634765625,0.138671875
-0.694183349609375,0.8571319580078125,-0.0299835205078125
-0.748565673828125,0.85986328125,-0.1186370849609375
-0.8262481689453125,0.8985595703125,-0.09228515625
-0.8284759521484375,0.9250640869140624,-0.0754241943359375
-0.738189697265625,0.85858154296875,-0.1457061767578125
-0.7069854736328125,0.8135833740234375,-0.1506805419921875
-0.7758026123046875,1.0113983154296875,-0.0922393798828125
-0.6062774658203125,0.976409912109375,-0.0948486328125
-0.66583251953125,0.9288482666015624,-0.1768035888671875
-0.77203369140625,0.958465576171875,-0.20660400390625
-0.659149169921875,0.9399871826171876,-0.1411590576171875
-0.59942626953125,0.9034576416015624,-0.211822509765625
-0.5245513916015625,0.918792724609375,-0.2502288818359375
-0.4620819091796875,0.9442138671875,-0.1889190673828125
-0.3664398193359375,0.954315185546875,-0.13323974609375
-0.309112548828125,0.9655303955078124,-0.1123809814453125
-0.3073577880859375,0.9885101318359376,-0.066253662109375
-0.3329010009765625,1.002105712890625,-0.043975830078125
-0.3056182861328125,0.8537139892578125,-0.0145416259765625
-0.4155731201171875,0.9217529296875,0.0482025146484375
-0.2425537109375,1.0141754150390625,-0.061737060546875
-0.318878173828125,0.8887939453125,-0.0708770751953125
-0.4181976318359375,0.9609375,-0.0152740478515625
-0.4651947021484375,1.0213165283203125,-0.041595458984375
-0.4799957275390625,0.8536529541015625,0.0323486328125
-0.524658203125,0.7438507080078125,0.1269073486328125
-0.590301513671875,0.7916717529296875,0.1366424560546875
-0.61614990234375,0.8993072509765625,0.02850341796875
-0.6295166015625,0.85186767578125,-0.0386199951171875
-0.75860595703125,0.847991943359375,-0.040618896484375
-0.8173675537109375,0.9334716796875,0.0068817138671875
-0.795135498046875,0.9660186767578124,-0.0788726806640625
-0.7507781982421875,0.8464813232421875,-0.124176025390625
-0.8334197998046875,0.920257568359375,-0.04632568359375
-0.7384796142578125,1.036102294921875,-0.0341339111328125
-0.661468505859375,0.98321533203125,-0.1232757568359375
-0.674530029296875,1.017974853515625,-0.1518096923828125
-0.6103973388671875,1.0183563232421875,-0.1265869140625
-0.544403076171875,0.980621337890625,-0.079925537109375
-0.5388336181640625,0.8904876708984375,-0.033966064453125
-0.5059356689453125,0.8629608154296875,-0.04901123046875
-0.434661865234375,0.874725341796875,-0.0050506591796875
-0.3301239013671875,0.8440093994140625,0.0251922607421875
-0.303558349609375,0.7811279296875,0.023223876953125
-0.3011016845703125,0.7837677001953125,0.0202789306640625
-0.2572021484375,0.851226806640625,0.031646728515625
-0.2209014892578125,0.9090118408203124,-0.0176239013671875
-0.2848968505859375,0.8882598876953125,-0.086944580078125
-0.5105438232421875,1.0426483154296875,0.02978515625
-0.36431884765625,1.08917236328125,-0.048797607421875
-0.542877197265625,0.9156494140625,-0.1295166015625
-0.7056732177734375,1.0186920166015625,-0.0862274169921875
-0.6793212890625,1.067230224609375,-0.1536407470703125
-0.6555023193359375,0.8594970703125,-0.2412872314453125
-0.69696044921875,0.7305450439453125,-0.1639556884765625
-0.62762451171875,0.7744598388671875,0.010894775390625
-0.517852783203125,0.84814453125,0.057952880859375
-0.49273681640625,0.85302734375,-0.0426788330078125
-0.6402435302734375,0.8380126953125,-0.05670166015625
-0.7525787353515625,0.8939361572265625,-0.04266357421875
-0.7691497802734375,0.9096221923828124,-0.136199951171875
-0.7201385498046875,0.81744384765625,-0.177215576171875
-0.7134246826171875,0.9138641357421876,-0.1102294921875
-0.680328369140625,1.118621826171875,-0.1291351318359375
-0.544158935546875,0.9745941162109376,-0.136016845703125
-0.655975341796875,0.946533203125,-0.230499267578125
-0.7146759033203125,0.9743499755859376,-0.2530975341796875
-0.6149139404296875,0.91571044921875,-0.2339630126953125
-0.580963134765625,0.848297119140625,-0.2836456298828125
-0.5708465576171875,0.9170989990234376,-0.34326171875
-0.489349365234375,1.0063934326171875,-0.2830657958984375
-0.4254913330078125,1.0390167236328125,-0.272796630859375
-0.381683349609375,1.0358734130859375,-0.3112335205078125
-0.3894805908203125,1.0266265869140625,-0.2591705322265625
-0.3757171630859375,1.0356597900390625,-0.1976776123046875
-0.2588958740234375,0.92626953125,-0.1645965576171875
-0.2536163330078125,0.80401611328125,-0.047027587890625
-0.2896881103515625,0.8853302001953125,0.0858306884765625
-0.218505859375,0.8450164794921875,0.1450958251953125
-0.432769775390625,0.805206298828125,0.180999755859375
-0.5806427001953125,0.9915008544921876,0.109466552734375
-0.6279144287109375,1.1199493408203125,-0.0280609130859375
-0.631134033203125,0.9281158447265624,-0.034698486328125
-0.63311767578125,0.7311859130859375,0.14996337890625
-0.56451416015625,0.72918701171875,0.218170166015625
-0.49755859375,0.8384857177734375,0.1096649169921875
-0.519012451171875,0.882354736328125,0.019622802734375
-0.615203857421875,0.9118804931640624,0.0002899169921875
-0.6831512451171875,1.001495361328125,-0.00665283203125
-0.7443084716796875,1.01812744140625,-0.07806396484375
-0.793243408203125,0.887176513671875,-0.08074951171875
-0.9209747314453124,0.958465576171875,-0.1054840087890625
-0.76824951171875,0.943267822265625,-0.0399017333984375
-0.7441253662109375,0.8808746337890625,0.0005035400390625
-0.7451324462890625,0.94677734375,-0.03594970703125
-0.7169189453125,1.0150604248046875,-0.1050262451171875
-0.6993408203125,1.0100250244140625,-0.1060638427734375
-0.6654815673828125,1.0558319091796875,-0.0942230224609375
-0.544036865234375,1.1117095947265625,-0.0795135498046875
-0.3900146484375,1.0758056640625,-0.0658416748046875
-0.314910888671875,0.9837188720703124,-0.062103271484375
-0.2937774658203125,0.9327850341796876,-0.0352020263671875
-0.25177001953125,0.90325927734375,0.03314208984375
-0.1996917724609375,0.9024505615234376,0.048553466796875
-0.2446441650390625,0.847137451171875,0.0453643798828125
-0.2752838134765625,0.949798583984375,0.088592529296875
-0.258544921875,0.933624267578125,-0.06134033203125
-0.4936981201171875,0.859710693359375,0.0605010986328125
-0.582611083984375,1.0020599365234375,0.129669189453125
-0.5504150390625,1.17364501953125,-0.014434814453125
-0.5713653564453125,0.9952392578125,-0.114776611328125
-0.667388916015625,0.8218231201171875,-0.1036529541015625
-0.6817474365234375,0.824462890625,-0.0148773193359375
-0.6126708984375,0.8974761962890625,-0.0003204345703125
-0.6172027587890625,0.876617431640625,-0.0770263671875
-0.6578216552734375,0.835205078125,-0.0510101318359375
-0.7068939208984375,0.9243621826171876,0.00225830078125
-0.70843505859375,0.9891510009765624,-0.10205078125
-0.7801513671875,0.9064178466796876,-0.119171142578125
-0.8947906494140625,0.9742431640625,-0.03173828125
-0.8134613037109375,0.9239654541015624,0.03741455078125
-0.7417755126953125,0.84552001953125,-0.068145751953125
-0.7565155029296875,0.967041015625,-0.1065826416015625
-0.7022857666015625,1.1339263916015625,-0.15716552734375
-0.54022216796875,1.1720733642578125,-0.299591064453125
-0.516204833984375,1.124969482421875,-0.357269287109375
-0.498565673828125,1.036651611328125,-0.273284912109375
-0.3922882080078125,0.97784423828125,-0.2269134521484375
-0.303253173828125,0.9375762939453124,-0.2503662109375
-0.3046112060546875,0.8709564208984375,-0.1977996826171875
-0.343658447265625,0.855255126953125,-0.24029541015625
-0.4033050537109375,0.83587646484375,-0.136932373046875
-0.432861328125,0.7877960205078125,0.0161590576171875
-0.4669036865234375,0.8572845458984375,0.0384063720703125
-0.478912353515625,0.883209228515625,-0.009124755859375
-0.5009002685546875,0.7331085205078125,0.1050567626953125
-0.52337646484375,0.6222991943359375,0.276458740234375
-0.59222412109375,0.7871856689453125,0.2653350830078125
-0.670806884765625,1.0789794921875,0.16827392578125
-0.7137451171875,1.0137939453125,0.1368560791015625
-0.7451934814453125,0.88079833984375,0.101348876953125
-0.720367431640625,0.8204498291015625,0.0790252685546875
-0.68701171875,0.8094329833984375,0.12152099609375
-0.7183685302734375,0.86602783203125,0.098175048828125
-0.6366119384765625,0.72802734375,0.0737762451171875
-0.65679931640625,0.77880859375,0.0759124755859375
-0.643035888671875,0.9127044677734376,-0.165985107421875
-0.4873504638671875,0.9244232177734376,-0.302642822265625
-0.495330810546875,0.845977783203125,0.1106109619140625
-0.504730224609375,0.8235931396484375,0.15374755859375
-0.544830322265625,0.8873748779296875,-0.287567138671875
-0.5521392822265625,0.7096710205078125,-0.415557861328125
-0.51910400390625,0.72991943359375,-0.249359130859375
-0.5399169921875,0.7875518798828125,-0.26727294921875
-0.5879974365234375,0.84735107421875,-0.5473480224609375
-0.5805511474609375,0.7838134765625,-0.4829864501953125
-0.5917205810546875,0.7582244873046875,-0.21673583984375
-0.613555908203125,0.8274078369140625,-0.09710693359375
-0.621429443359375,0.86932373046875,-0.302886962890625
-0.7347869873046875,0.819854736328125,-0.3465423583984375
-0.7800445556640625,0.8323974609375,-0.0957183837890625
-0.7518768310546875,0.9299774169921876,-0.064361572265625
-0.66192626953125,1.06890869140625,-0.298583984375
-0.6196746826171875,1.0964202880859375,-0.290863037109375
-0.6331329345703125,1.042633056640625,-0.1691741943359375
-0.6155242919921875,1.086883544921875,-0.11676025390625
-0.442535400390625,1.158477783203125,-0.1246185302734375
-0.207763671875,1.0622100830078125,-0.1354522705078125
-0.086395263671875,0.90960693359375,-0.0308990478515625
-0.0759429931640625,0.79534912109375,0.051025390625
-0.1707916259765625,0.9121246337890624,0.1653594970703125
-0.143951416015625,1.0055084228515625,0.139129638671875
-0.1831512451171875,0.984100341796875,0.0853271484375
-0.2536468505859375,0.9719696044921876,0.2069854736328125
-0.3577423095703125,0.9921722412109376,0.23455810546875
-0.434112548828125,1.041351318359375,0.1234588623046875
-0.524169921875,1.0009765625,0.1299591064453125
-0.583404541015625,0.9418182373046876,0.1450042724609375
-0.6733856201171875,0.92364501953125,0.102294921875
-0.7708740234375,0.935455322265625,0.182464599609375
-0.7253570556640625,0.871551513671875,0.177642822265625
-0.7531280517578125,0.8948211669921875,0.0068817138671875
-0.77545166015625,0.802001953125,0.068603515625
-0.70391845703125,0.987152099609375,0.104278564453125
-0.6016998291015625,0.9681396484375,0.0625
-0.7220001220703125,0.8446197509765625,0.0157318115234375
-0.5884552001953125,0.927215576171875,-0.0510101318359375
-0.45770263671875,1.0672607421875,-0.2677154541015625
-0.490966796875,1.08343505859375,-0.30517578125
-0.51739501953125,0.97125244140625,-0.1491851806640625
-0.5897979736328125,0.9455108642578124,-0.1560821533203125
-0.5588531494140625,0.9753265380859376,-0.1375579833984375
-0.4882965087890625,0.985687255859375,-0.1871185302734375
-0.426239013671875,0.979949951171875,-0.1834564208984375
-0.38336181640625,1.03973388671875,-0.060302734375
-0.357177734375,1.128631591796875,-0.1027069091796875
-0.2545928955078125,1.0246429443359375,-0.095855712890625
-0.317596435546875,0.884002685546875,0.0357666015625
-0.2396392822265625,0.996307373046875,0.1314544677734375
-0.1222991943359375,0.9211273193359376,-0.0725555419921875
-0.365692138671875,0.9598846435546876,0.06927490234375
-0.5346221923828125,1.0594024658203125,0.11029052734375
-0.5647735595703125,1.029205322265625,0.0076904296875
-0.556640625,0.851654052734375,-0.07769775390625
-0.5908966064453125,0.749725341796875,-0.03363037109375
-0.5813140869140625,0.8116455078125,-0.0018310546875
-0.53118896484375,0.8383941650390625,-0.0394134521484375
-0.594879150390625,0.809844970703125,-0.07147216796875
-0.6815032958984375,0.83319091796875,-0.0576629638671875
-0.7338409423828125,0.9401092529296876,-0.016510009765625
-0.7126312255859375,0.9687347412109376,0.006439208984375
-0.718963623046875,0.854766845703125,0.0146026611328125
-0.8617095947265625,0.933929443359375,0.022247314453125
-0.80511474609375,1.0052337646484375,-0.0612640380859375
-0.8193817138671875,0.9253997802734376,-0.02020263671875
-0.896148681640625,0.9868621826171876,-0.0101318359375
-0.84259033203125,1.0605621337890625,-0.0121612548828125
-0.7588043212890625,1.1177978515625,-0.12164306640625
-0.706207275390625,1.195526123046875,-0.1996917724609375
-0.60357666015625,1.167510986328125,-0.1975250244140625
-0.4422607421875,1.0864105224609375,-0.132171630859375
-0.242156982421875,0.93572998046875,-0.0727996826171875
-0.1465606689453125,0.8596649169921875,-0.061431884765625
-0.1091766357421875,0.839508056640625,-0.13665771484375
-0.0786895751953125,0.7902679443359375,-0.0848388671875
-0.01922607421875,0.86627197265625,-0.10516357421875
-0.144439697265625,0.8535308837890625,-0.0260772705078125
-0.4552154541015625,1.064117431640625,0.0298614501953125
-0.5098419189453125,1.2591552734375,-0.101318359375
-0.637786865234375,1.195098876953125,-0.160400390625
-0.8203887939453125,1.06988525390625,-0.040802001953125
-0.819244384765625,1.0009918212890625,0.0367279052734375
-0.728790283203125,0.897491455078125,-0.12274169921875
-0.70367431640625,0.665496826171875,-0.2153778076171875
-0.7182464599609375,0.6123504638671875,-0.1325225830078125
-0.72247314453125,0.610870361328125,0.0048828125
-0.64605712890625,0.719818115234375,-0.0997161865234375
-0.629974365234375,0.8418426513671875,-0.1494598388671875
-0.715484619140625,1.001068115234375,0.0269317626953125
-0.79345703125,1.0411834716796875,0.2530364990234375
-0.7595672607421875,1.0887298583984375,0.2097930908203125
-0.81793212890625,0.9795074462890624,0.1056976318359375
-0.8317108154296875,1.02850341796875,0.3604583740234375
-0.6638641357421875,1.0440673828125,0.464599609375
-0.712066650390625,0.9237060546875,0.117279052734375
-0.634979248046875,0.9999847412109376,0.0102386474609375
-0.5071258544921875,1.0351104736328125,-0.0413360595703125
-0.4012603759765625,0.923675537109375,-0.073638916015625
-0.3971405029296875,0.7910919189453125,-0.0613555908203125
-0.3361358642578125,0.720611572265625,-0.0145721435546875
-0.2942352294921875,0.7065582275390625,-0.01336669921875
-0.2407379150390625,0.713775634765625,-0.0077056884765625
-0.287750244140625,0.72271728515625,0.01025390625
-0.3519134521484375,0.802490234375,0.082763671875
-0.409912109375,0.9381561279296876,0.06378173828125
-0.42242431640625,1.0519256591796875,-0.0695037841796875
-0.57403564453125,0.998687744140625,-0.02264404296875
-0.73577880859375,1.1199798583984375,0.137847900390625
-0.5571441650390625,0.960113525390625,-0.0243072509765625
-0.7006378173828125,0.95977783203125,-0.037384033203125
-0.7144012451171875,1.02020263671875,-0.04425048828125
-0.6534423828125,0.879974365234375,0.0008392333984375
-0.5791473388671875,0.6619873046875,0.0142364501953125
-0.5489349365234375,0.5900421142578125,-0.0317535400390625
-0.5135040283203125,0.698028564453125,-0.0132293701171875
-0.4503326416015625,0.7875823974609375,-0.025482177734375
-0.5075225830078125,0.78741455078125,-0.08526611328125
-0.63616943359375,0.8170013427734375,-0.038238525390625
-0.7133636474609375,0.9295654296875,0.0227203369140625
-0.6607513427734375,1.0091094970703125,-0.0183563232421875
-0.6176300048828125,0.9494781494140624,-0.104461669921875
-0.660919189453125,1.0223541259765625,-0.0881500244140625
-0.5866851806640625,1.063201904296875,-0.062042236328125
-0.5402374267578125,0.9430084228515624,-0.06951904296875
-0.628570556640625,0.9894256591796876,-0.140106201171875
-0.58953857421875,1.000335693359375,-0.1075897216796875
-0.529205322265625,0.9356842041015624,-0.162109375
-0.4964447021484375,0.845855712890625,-0.2096099853515625
-0.506439208984375,0.8220672607421875,-0.1561126708984375
-0.484771728515625,0.8376617431640625,-0.0711822509765625
-0.4233245849609375,0.843658447265625,-0.0943756103515625
-0.3957061767578125,0.830902099609375,-0.132415771484375
-0.381988525390625,0.84033203125,-0.0721893310546875
-0.3950958251953125,0.9394378662109376,0.017730712890625
-0.334564208984375,0.9947967529296876,0.0078582763671875
-0.418060302734375,0.9906768798828124,0.081695556640625
-0.3814849853515625,1.002410888671875,0.02947998046875
-0.3536834716796875,0.85992431640625,-0.0257568359375
-0.5206298828125,0.8911590576171875,0.1037445068359375
-0.64813232421875,0.9939422607421876,0.163543701171875
-0.6014404296875,1.0049591064453125,0.073577880859375
-0.551544189453125,0.878204345703125,-0.1282501220703125
-0.567779541015625,0.7589111328125,-0.1506195068359375
-0.586517333984375,0.772247314453125,-0.063873291015625
-0.567718505859375,0.7792205810546875,0.0147247314453125
-0.582061767578125,0.7299957275390625,0.0292816162109375
-0.687469482421875,0.8051605224609375,0.021881103515625
-0.702911376953125,0.96527099609375,-0.0125885009765625
-0.6761627197265625,0.9375,-0.1043853759765625
-0.7303314208984375,0.85369873046875,-0.0914154052734375
-0.81011962890625,0.993927001953125,0.0232696533203125
-0.6870269775390625,1.001739501953125,0.0072784423828125
-0.63739013671875,0.8455047607421875,-0.1045074462890625
-0.7389373779296875,0.8760528564453125,-0.0715179443359375
-0.73284912109375,1.044219970703125,-0.065460205078125
-0.6189117431640625,1.0843048095703125,-0.1472320556640625
-0.5944671630859375,0.988922119140625,-0.2275238037109375
-0.5555419921875,0.90264892578125,-0.179046630859375
-0.470855712890625,0.9174346923828124,-0.0980072021484375
-0.322174072265625,0.9109649658203124,-0.0370025634765625
-0.28167724609375,0.823760986328125,-0.0164031982421875
-0.3546142578125,0.83642578125,0.0013580322265625
-0.349029541015625,0.9408416748046876,-0.00933837890625
-0.3090057373046875,0.9673614501953124,-0.0416259765625
-0.37359619140625,0.8461151123046875,-0.0458831787109375
-0.4928131103515625,0.9321441650390624,-0.000244140625
-0.382598876953125,0.9596405029296876,-0.0671844482421875
-0.51239013671875,0.9021453857421876,-0.0531463623046875
-0.67791748046875,0.9752349853515624,0.011749267578125
-0.6837158203125,0.996307373046875,0.030792236328125
-0.6288299560546875,0.835662841796875,-0.0866546630859375
-0.6854095458984375,0.7093658447265625,-0.099456787109375
-0.6912689208984375,0.7044525146484375,-0.1462860107421875
-0.6220245361328125,0.721771240234375,-0.1613006591796875
-0.5513916015625,0.7264404296875,-0.122711181640625
-0.7281951904296875,0.750457763671875,0.0188446044921875
-0.8608856201171875,0.9102783203125,0.0626220703125
-0.7909698486328125,0.9806671142578124,-0.126312255859375
-0.835418701171875,0.96502685546875,-0.2013702392578125
-0.922210693359375,1.008514404296875,-0.1302032470703125
-0.8438262939453125,1.053436279296875,-0.0358734130859375
-0.732177734375,0.94317626953125,-0.0503997802734375
-0.774444580078125,1.0296783447265625,-0.00115966796875
-0.71734619140625,1.20452880859375,0.061767578125
-0.51324462890625,1.16253662109375,0.0795135498046875
-0.4458160400390625,0.956573486328125,0.0572662353515625
-0.379638671875,0.782135009765625,0.0511932373046875
-0.284332275390625,0.7197723388671875,0.0046539306640625
-0.2388458251953125,0.6535491943359375,0.0159759521484375
-0.28350830078125,0.5953826904296875,0.1069488525390625
-0.381622314453125,0.6246795654296875,0.1808929443359375
-0.45086669921875,0.7478485107421875,0.146728515625
-0.493896484375,0.9369659423828124,0.076019287109375
-0.52392578125,1.0666351318359375,-0.0831298828125
-0.63336181640625,1.06964111328125,-0.100250244140625
-0.7350616455078125,1.112335205078125,-0.0317840576171875
-0.59796142578125,1.05126953125,-0.1385040283203125
-0.6495513916015625,0.9757232666015624,-0.0891876220703125
-0.7143402099609375,0.9467926025390624,0.022491455078125
-0.743408203125,0.8597869873046875,-0.060394287109375
-0.707763671875,0.7275848388671875,-0.221649169921875
-0.693572998046875,0.6307220458984375,-0.2251129150390625
-0.598663330078125,0.6633453369140625,-0.04510498046875
-0.5284881591796875,0.7348480224609375,0.0142822265625
-0.4787139892578125,0.7356719970703125,-0.073333740234375
-0.540252685546875,0.7467193603515625,-0.015380859375
-0.627105712890625,0.8845062255859375,0.0752105712890625
-0.627044677734375,0.98187255859375,-0.00555419921875
-0.6552276611328125,0.909637451171875,-0.094268798828125
-0.760650634765625,0.935455322265625,-0.0661163330078125
-0.7065582275390625,1.0778656005859375,-0.01519775390625
-0.604461669921875,0.9248199462890624,-0.0480499267578125
-0.710693359375,0.908294677734375,-0.0762176513671875
-0.69012451171875,1.0124053955078125,-0.0815887451171875
-0.5878753662109375,1.0517120361328125,-0.1185150146484375
-0.52557373046875,0.9700927734375,-0.1580810546875
-0.54681396484375,0.8740234375,-0.1818389892578125
-0.5137176513671875,0.852752685546875,-0.1260833740234375
-0.4322357177734375,0.847015380859375,-0.07330322265625
-0.3634796142578125,0.8168792724609375,-0.04766845703125
-0.3641815185546875,0.8440093994140625,-0.076416015625
-0.3577117919921875,0.9225616455078124,-0.1025238037109375
-0.30633544921875,0.9623565673828124,-0.0810394287109375
-0.3689727783203125,0.9196929931640624,-0.0699920654296875
-0.4334869384765625,1.0139312744140625,0.01611328125
-0.369293212890625,0.9355316162109376,-0.126312255859375
-0.4115447998046875,0.7767486572265625,-0.1236419677734375
-0.5909271240234375,0.840087890625,0.0124359130859375
-0.660400390625,1.025421142578125,0.105072021484375
-0.641510009765625,0.9589996337890624,0.08111572265625
-0.6792755126953125,0.790069580078125,-0.01165771484375
-0.72021484375,0.7982177734375,-0.0235443115234375
-0.69122314453125,0.8290557861328125,0.0749053955078125
-0.63934326171875,0.7931976318359375,0.0711822509765625
-0.6251068115234375,0.741180419921875,-0.0133056640625
-0.58587646484375,0.772796630859375,-0.042572021484375
-0.5427398681640625,0.6587677001953125,0.009552001953125
-0.52679443359375,0.4922943115234375,0.063568115234375
-0.4763336181640625,0.3503875732421875,0.0609283447265625
-0.417877197265625,0.269195556640625,0.0630035400390625
-0.4640350341796875,0.427825927734375,-0.0046539306640625
-0.4510498046875,0.625762939453125,-0.0521392822265625
-0.5650177001953125,0.6708984375,-0.1667022705078125
-0.660736083984375,0.7926788330078125,-0.25921630859375
-0.6285552978515625,0.9266510009765624,-0.19580078125
-0.6957855224609375,1.013916015625,-0.0952911376953125
-0.83599853515625,1.0263671875,-0.086181640625
-1.0886688232421875,1.140350341796875,-0.4465179443359375
-1.0003509521484375,1.239013671875,-0.5732574462890625
-0.9945220947265624,1.10369873046875,-0.4649200439453125
-0.7735443115234375,0.9183502197265624,-0.4766693115234375
-0.732147216796875,0.77850341796875,-0.8263092041015625
-0.7234954833984375,0.610687255859375,-0.9771270751953124
-0.870574951171875,0.5013275146484375,-0.9551544189453124
-0.9523162841796876,0.3118743896484375,-0.8867645263671875
-0.9716644287109376,0.3116302490234375,-0.8538360595703125
-0.9915924072265624,0.413604736328125,-1.403839111328125
-0.7281341552734375,0.398529052734375,-1.2926483154296875
-0.6272735595703125,0.2307586669921875,-0.8586273193359375
-0.64117431640625,0.1477813720703125,-0.8382568359375
-0.757965087890625,0.432464599609375,-0.9452362060546876
-0.362548828125,-0.02154541015625,-0.926025390625
-0.203643798828125,-0.59716796875,-0.9154510498046876
-0.1905517578125,-0.4524993896484375,-0.9423675537109376
-0.079559326171875,-0.438629150390625,-0.6327056884765625
0.220977783203125,-0.43646240234375,-0.827789306640625
0.1832122802734375,-0.3532867431640625,-0.9066314697265624
0.2446441650390625,-0.40289306640625,-0.6664886474609375
0.302734375,-0.686553955078125,-0.2754669189453125
0.6618804931640625,-0.716888427734375,-0.4722442626953125
0.558807373046875,-0.7715911865234375,-0.5594940185546875
0.11572265625,-0.766204833984375,-0.4022674560546875
0.100982666015625,-0.7349700927734375,-0.5644683837890625
0.2310028076171875,-0.76080322265625,-0.610809326171875
0.2091217041015625,-0.7704315185546875,-0.4937591552734375
0.3095550537109375,-0.7278594970703125,-0.45880126953125
0.220123291015625,-0.74658203125,-0.45379638671875
0.226104736328125,-0.7340087890625,-0.4919281005859375
0.21630859375,-0.71319580078125,-0.447357177734375
0.30419921875,-0.68023681640625,-0.5272216796875
0.346038818359375,-0.657196044921875,-0.5829925537109375
