AccelerationX,AccelerationY,AccelerationZ
-0.3958282470703125,0.5931854248046875,-0.711151123046875
-0.4059906005859375,0.5532073974609375,-0.632415771484375
-0.4080810546875,0.5926055908203125,-0.6926116943359375
-0.393646240234375,0.597198486328125,-0.72100830078125
-0.3851776123046875,0.5840301513671875,-0.6366729736328125
-0.427490234375,0.580169677734375,-0.7071990966796875
-0.4251861572265625,0.5822906494140625,-0.655120849609375
-0.4385223388671875,0.5809478759765625,-0.6451873779296875
-0.43829345703125,0.5900115966796875,-0.6724853515625
-0.447998046875,0.607666015625,-0.6678466796875
-0.4266815185546875,0.5942535400390625,-0.6997528076171875
-0.4117584228515625,0.560638427734375,-0.6683807373046875
-0.418487548828125,0.55682373046875,-0.647216796875
-0.461395263671875,0.5921478271484375,-0.648345947265625
-0.4549102783203125,0.575531005859375,-0.630401611328125
-0.457550048828125,0.5189971923828125,-0.468109130859375
-0.4759063720703125,0.5806427001953125,-0.4398651123046875
-0.4808502197265625,0.63421630859375,-0.4087371826171875
-0.6253814697265625,0.7282257080078125,-0.5372161865234375
-0.63934326171875,0.7140655517578125,-0.596923828125
-0.6570587158203125,0.5735015869140625,-0.293731689453125
-0.6673583984375,0.5484619140625,-0.222015380859375
-0.8053131103515625,0.6909332275390625,-0.2902374267578125
-0.961517333984375,0.61053466796875,-0.1855316162109375
-0.941650390625,0.53668212890625,0.1015472412109375
-0.9123992919921876,0.617034912109375,-0.1259307861328125
-0.8935699462890625,0.6490936279296875,-0.0935821533203125
-0.8286895751953125,0.6428680419921875,-0.0722198486328125
-0.8639068603515625,0.6739654541015625,-0.1655426025390625
-0.9006805419921875,0.747100830078125,-0.0940704345703125
-0.9380645751953124,0.831268310546875,-0.103729248046875
-0.8116455078125,0.6598968505859375,0.0210113525390625
-0.8543853759765625,0.5678253173828125,-0.0556182861328125
-0.839202880859375,0.7028045654296875,-0.1040496826171875
-0.7617645263671875,0.7669525146484375,-0.011810302734375
-0.7641448974609375,0.6985626220703125,-0.0413360595703125
-0.6971435546875,0.6488494873046875,-0.0384674072265625
-0.69287109375,0.6557464599609375,-0.134552001953125
-0.6124725341796875,0.668975830078125,0.0792236328125
-0.530517578125,0.6910400390625,-0.02801513671875
-0.66448974609375,0.7708740234375,0.0014801025390625
-0.5829925537109375,0.7231903076171875,-0.1491546630859375
-0.70465087890625,0.934814453125,-0.1364898681640625
-0.678375244140625,0.8651275634765625,0.134185791015625
-0.830810546875,0.9901885986328124,0.0263671875
-0.6557464599609375,0.899505615234375,-0.183074951171875
-0.568389892578125,0.6964263916015625,-0.0946197509765625
-0.6541748046875,0.5837860107421875,0.1073150634765625
-0.6596832275390625,0.7125091552734375,0.0818328857421875
-0.628326416015625,0.7499542236328125,-0.010833740234375
-0.6283721923828125,0.625457763671875,-0.019134521484375
-0.6548919677734375,0.570831298828125,-0.0198974609375
-0.6603851318359375,0.6213531494140625,-0.0196380615234375
-0.6863555908203125,0.636627197265625,0.031402587890625
-0.7991485595703125,0.607025146484375,0.071014404296875
-0.851776123046875,0.6493682861328125,0.0487518310546875
-0.88037109375,0.7527923583984375,-0.0190277099609375
-0.8709564208984375,0.756805419921875,-0.0989990234375
-0.84124755859375,0.6632537841796875,-0.1436767578125
-0.898040771484375,0.820526123046875,-0.1104583740234375
-0.9051055908203124,1.002166748046875,-0.156982421875
-0.806121826171875,0.729736328125,-0.1078643798828125
-0.8584136962890625,0.7451629638671875,-0.2489776611328125
-0.8119354248046875,0.8421478271484375,-0.29412841796875
-0.663848876953125,0.737548828125,-0.197723388671875
-0.653961181640625,0.644805908203125,-0.10821533203125
-0.6665191650390625,0.680328369140625,-0.1010894775390625
-0.603118896484375,0.7178802490234375,-0.1078948974609375
-0.5200958251953125,0.694854736328125,-0.0849761962890625
-0.508819580078125,0.72137451171875,-0.0147857666015625
-0.514556884765625,0.7595062255859375,-0.0247039794921875
-0.5466766357421875,0.835540771484375,-0.07281494140625
-0.50848388671875,0.7781829833984375,-0.091217041015625
-0.606597900390625,0.7383575439453125,-0.0842437744140625
-0.685882568359375,0.9090576171875,0.0032806396484375
-0.532135009765625,0.791015625,-0.0609130859375
-0.6554718017578125,0.62908935546875,-0.134735107421875
-0.787109375,0.7271270751953125,-0.1139068603515625
-0.8046112060546875,0.830108642578125,-0.0677490234375
-0.8098602294921875,0.7335357666015625,-0.0599212646484375
-0.8153076171875,0.62164306640625,-0.011260986328125
-0.7866058349609375,0.613800048828125,0.0157012939453125
-0.7469482421875,0.6138916015625,0.0400390625
-0.7195281982421875,0.593994140625,0.0495758056640625
-0.7828521728515625,0.650390625,-0.02777099609375
-0.8320465087890625,0.7358856201171875,-0.0854339599609375
-0.8462066650390625,0.76068115234375,-0.09881591796875
-0.8252716064453125,0.721893310546875,-0.1268310546875
-0.8279266357421875,0.7341461181640625,-0.1314544677734375
-0.8537139892578125,0.907501220703125,-0.170623779296875
-0.789764404296875,0.90191650390625,-0.2435760498046875
-0.6937255859375,0.7064056396484375,-0.245452880859375
-0.66827392578125,0.695159912109375,-0.1702117919921875
-0.630279541015625,0.7819366455078125,-0.1517181396484375
-0.559112548828125,0.7913970947265625,-0.1691436767578125
-0.5546722412109375,0.672149658203125,-0.1397247314453125
-0.6244049072265625,0.6317901611328125,-0.131134033203125
-0.6578216552734375,0.6750335693359375,-0.161590576171875
-0.628448486328125,0.6805267333984375,-0.1491851806640625
-0.657379150390625,0.7241973876953125,-0.135986328125
-0.706268310546875,0.7722930908203125,-0.0737457275390625
-0.6869964599609375,0.827667236328125,-0.034271240234375
-0.6439056396484375,0.8648681640625,-0.0526275634765625
-0.5908050537109375,0.7697601318359375,-0.0569305419921875
-0.6798248291015625,0.86029052734375,0.009002685546875
-0.5791168212890625,0.8893585205078125,0.012603759765625
-0.4934234619140625,0.6378631591796875,-0.0308380126953125
-0.621337890625,0.5728759765625,-0.0607147216796875
-0.685882568359375,0.6857757568359375,-0.00079345703125
-0.6779022216796875,0.748931884765625,0.0484771728515625
-0.677947998046875,0.6511688232421875,-0.0064849853515625
-0.69195556640625,0.6497955322265625,-0.0539398193359375
-0.6230621337890625,0.711456298828125,-0.1011505126953125
-0.64727783203125,0.67193603515625,-0.112457275390625
-0.717071533203125,0.6754302978515625,-0.0308380126953125
-0.7502899169921875,0.698211669921875,0.0457763671875
-0.8216094970703125,0.7333984375,0.0050048828125
-0.858612060546875,0.8226165771484375,-0.09930419921875
-0.819915771484375,0.791717529296875,-0.175628662109375
-0.881195068359375,0.7843475341796875,-0.154998779296875
-0.9421539306640624,0.9852294921875,-0.0968780517578125
-0.7997894287109375,0.8722381591796875,-0.145843505859375
-0.790985107421875,0.760101318359375,-0.2137298583984375
-0.78070068359375,0.84051513671875,-0.248046875
-0.666107177734375,0.895477294921875,-0.2014007568359375
-0.545806884765625,0.7795867919921875,-0.2080841064453125
-0.5180816650390625,0.7090301513671875,-0.148651123046875
-0.46337890625,0.737335205078125,-0.1468505859375
-0.365692138671875,0.7296295166015625,-0.091705322265625
-0.33941650390625,0.6901397705078125,-0.0474700927734375
-0.4001617431640625,0.7125091552734375,-0.0089111328125
-0.46392822265625,0.7749481201171875,0.016448974609375
-0.55047607421875,0.8919219970703125,0.00518798828125
-0.648956298828125,0.9141998291015624,-0.0390777587890625
-0.803802490234375,1.160430908203125,-0.0216217041015625
-0.6417999267578125,1.0144805908203125,-0.1888427734375
-0.6298980712890625,0.759552001953125,-0.267425537109375
-0.7412109375,0.69781494140625,-0.089996337890625
-0.7448272705078125,0.7104644775390625,0.064483642578125
-0.7049560546875,0.7068634033203125,0.014404296875
-0.6279296875,0.6429901123046875,-0.0648193359375
-0.5587921142578125,0.6379241943359375,-0.0849761962890625
-0.5510101318359375,0.6946258544921875,-0.1029205322265625
-0.5769195556640625,0.7063140869140625,-0.0413970947265625
-0.6390533447265625,0.687408447265625,0.00823974609375
-0.6846771240234375,0.73162841796875,0.001617431640625
-0.7554168701171875,0.8395538330078125,-0.0818634033203125
-0.777252197265625,0.85223388671875,-0.110931396484375
-0.7826995849609375,0.7935791015625,-0.077178955078125
-0.8476409912109375,0.972625732421875,-0.05316162109375
-0.74517822265625,1.080902099609375,-0.12542724609375
-0.648345947265625,0.840576171875,-0.2153778076171875
-0.7247467041015625,0.7407989501953125,-0.219573974609375
-0.7012939453125,0.7833709716796875,-0.1576995849609375
-0.583404541015625,0.748260498046875,-0.1212921142578125
-0.569061279296875,0.7145233154296875,-0.099639892578125
-0.583099365234375,0.7210845947265625,-0.1040802001953125
-0.513214111328125,0.7211151123046875,-0.1242218017578125
-0.463470458984375,0.694488525390625,-0.107757568359375
-0.4546661376953125,0.6949615478515625,-0.0605010986328125
-0.4690704345703125,0.73162841796875,-0.0244903564453125
-0.4901885986328125,0.7809906005859375,-0.042999267578125
-0.4927825927734375,0.819305419921875,-0.0526275634765625
-0.553497314453125,0.809173583984375,-0.0769500732421875
-0.7375640869140625,1.0124969482421875,-0.0679931640625
-0.6453857421875,0.97943115234375,-0.19903564453125
-0.6324005126953125,0.751007080078125,-0.297332763671875
-0.78973388671875,0.6857757568359375,-0.1759033203125
-0.840850830078125,0.7512969970703125,-0.0933380126953125
-0.7802581787109375,0.802215576171875,-0.138092041015625
-0.694549560546875,0.7142486572265625,-0.1849365234375
-0.65216064453125,0.66253662109375,-0.1669769287109375
-0.6445159912109375,0.643341064453125,-0.0875091552734375
-0.618865966796875,0.628082275390625,-0.0771026611328125
-0.6831817626953125,0.646636962890625,-0.08197021484375
-0.7160797119140625,0.69024658203125,-0.0817108154296875
-0.7427215576171875,0.750732421875,-0.2095947265625
-0.8354339599609375,0.7505645751953125,-0.2962493896484375
-0.878692626953125,0.7379913330078125,-0.1479034423828125
-0.8093414306640625,0.7422637939453125,-0.0437774658203125
-0.80078125,0.9115753173828124,-0.17523193359375
-0.808685302734375,1.083099365234375,-0.373382568359375
-0.718231201171875,0.943328857421875,-0.2104034423828125
-0.631378173828125,0.6865081787109375,-0.0440521240234375
-0.603179931640625,0.6064453125,-0.0184783935546875
-0.5656585693359375,0.711578369140625,-0.0363006591796875
-0.4658355712890625,0.7164764404296875,-0.053131103515625
-0.4924774169921875,0.6717071533203125,-0.1065521240234375
-0.564239501953125,0.6461334228515625,-0.2033843994140625
-0.5788116455078125,0.6330413818359375,-0.1952362060546875
-0.563690185546875,0.628173828125,-0.085784912109375
-0.5536041259765625,0.6547088623046875,-0.0356292724609375
-0.5637359619140625,0.726959228515625,0.0109405517578125
-0.5908050537109375,0.77362060546875,0.03057861328125
-0.6366119384765625,0.8366241455078125,-0.0303497314453125
-0.6605682373046875,0.8487701416015625,-0.0913238525390625
-0.7714691162109375,0.9493865966796876,-0.1011962890625
-0.8003387451171875,1.0058441162109375,-0.1272125244140625
-0.649688720703125,0.7024383544921875,-0.13970947265625
-0.735687255859375,0.6109771728515625,-0.0510711669921875
-0.791534423828125,0.7098541259765625,-0.09600830078125
-0.7836456298828125,0.7048187255859375,-0.1131744384765625
-0.7558135986328125,0.6314849853515625,-0.1319122314453125
-0.761932373046875,0.6416473388671875,-0.155609130859375
-0.703033447265625,0.7133331298828125,-0.1895751953125
-0.620147705078125,0.7275238037109375,-0.1799468994140625
-0.614288330078125,0.757080078125,-0.15435791015625
-0.6361083984375,0.7940673828125,-0.10760498046875
-0.6223602294921875,0.77520751953125,-0.117584228515625
-0.6082611083984375,0.7753448486328125,-0.14227294921875
-0.6038360595703125,0.85009765625,-0.1499481201171875
-0.5798797607421875,0.865814208984375,-0.1512603759765625
-0.7158203125,0.97198486328125,-0.1827239990234375
-0.8330078125,1.022552490234375,-0.263031005859375
-0.849212646484375,0.8961029052734375,-0.31988525390625
-0.8246612548828125,0.718017578125,-0.2477874755859375
-0.7962493896484375,0.7774200439453125,-0.13787841796875
-0.719757080078125,0.862762451171875,-0.086029052734375
-0.5955657958984375,0.8237762451171875,-0.0611114501953125
-0.5438690185546875,0.7155303955078125,-0.127471923828125
-0.5164794921875,0.6892852783203125,-0.176788330078125
-0.4545745849609375,0.6797943115234375,-0.1199493408203125
-0.4160614013671875,0.63592529296875,-0.0722808837890625
-0.4144287109375,0.6491241455078125,-0.0346527099609375
-0.4805145263671875,0.7093505859375,-0.0375823974609375
-0.5271453857421875,0.8035736083984375,-0.047698974609375
-0.5089569091796875,0.82269287109375,-0.0738677978515625
-0.6051177978515625,0.792022705078125,-0.0977783203125
-0.815582275390625,0.9547119140625,-0.0301055908203125
-0.7819366455078125,0.974761962890625,-0.0575408935546875
-0.6968536376953125,0.8111724853515625,-0.1265411376953125
-0.77093505859375,0.7976226806640625,-0.112152099609375
-0.81695556640625,0.791656494140625,-0.0983123779296875
-0.7896575927734375,0.71844482421875,-0.10064697265625
-0.6947479248046875,0.5981903076171875,-0.05609130859375
-0.6382904052734375,0.6315765380859375,-0.0283203125
-0.5898284912109375,0.699859619140625,-0.055145263671875
-0.5398101806640625,0.717193603515625,-0.07586669921875
-0.5450439453125,0.6977996826171875,-0.090728759765625
-0.6312255859375,0.7384185791015625,-0.119964599609375
-0.73779296875,0.822265625,-0.09002685546875
-0.791595458984375,0.8028564453125,-0.0896148681640625
-0.82012939453125,0.763153076171875,-0.109344482421875
-0.814666748046875,0.7699737548828125,-0.1110992431640625
-0.812408447265625,0.9340667724609376,-0.12005615234375
-0.7783203125,0.994049072265625,-0.199066162109375
-0.6932830810546875,0.7991943359375,-0.23236083984375
-0.742889404296875,0.7229156494140625,-0.16064453125
-0.7032318115234375,0.7743988037109375,-0.102691650390625
-0.6338958740234375,0.8582916259765625,-0.1170501708984375
-0.5669403076171875,0.806488037109375,-0.190643310546875
-0.5918731689453125,0.7369842529296875,-0.2133636474609375
-0.5824737548828125,0.7246856689453125,-0.168548583984375
-0.54986572265625,0.747650146484375,-0.099884033203125
-0.500396728515625,0.7334136962890625,-0.0637664794921875
-0.467193603515625,0.71697998046875,-0.0388946533203125
-0.46270751953125,0.7221527099609375,-0.0670928955078125
-0.4913482666015625,0.7823944091796875,-0.069061279296875
-0.5087890625,0.826385498046875,-0.05657958984375
-0.550872802734375,0.77008056640625,-0.0337371826171875
-0.6995849609375,0.84375,0.018035888671875
-0.7489776611328125,1.037689208984375,-0.03387451171875
-0.6456451416015625,0.841064453125,-0.1534423828125
-0.713592529296875,0.662811279296875,-0.117279052734375
-0.8238983154296875,0.665771484375,-0.0354461669921875
-0.86627197265625,0.7294158935546875,-0.05596923828125
-0.8014678955078125,0.6684112548828125,-0.11395263671875
-0.7451934814453125,0.5809478759765625,-0.1675872802734375
-0.726531982421875,0.604736328125,-0.0908966064453125
-0.723785400390625,0.6063079833984375,-0.05804443359375
-0.7183837890625,0.5793914794921875,-0.0432281494140625
-0.7763671875,0.5883636474609375,-0.1236114501953125
-0.7724151611328125,0.60919189453125,-0.0899658203125
-0.87774658203125,0.6095428466796875,-0.076995849609375
-0.960601806640625,0.611968994140625,-0.062744140625
-0.8831329345703125,0.6418914794921875,-0.0810394287109375
-0.8058624267578125,0.6001434326171875,-0.230804443359375
-0.78570556640625,0.586669921875,-0.1603851318359375
-0.8785858154296875,0.6742706298828125,-0.1516265869140625
-1.015716552734375,0.812896728515625,-0.2711181640625
-0.871337890625,0.644317626953125,-0.338836669921875
-0.7183990478515625,0.4913482666015625,-0.2289581298828125
-0.6086883544921875,0.51641845703125,-0.138916015625
-0.478546142578125,0.595245361328125,-0.2221527099609375
-0.5427093505859375,0.6024169921875,-0.2608795166015625
-0.5887603759765625,0.6051177978515625,-0.3173675537109375
-0.6618499755859375,0.5984649658203125,-0.3869476318359375
-0.719085693359375,0.60418701171875,-0.36907958984375
-0.7663116455078125,0.6454925537109375,-0.3311920166015625
-0.8199920654296875,0.6488494873046875,-0.2733001708984375
-0.86480712890625,0.6293487548828125,-0.229522705078125
-0.8907470703125,0.62774658203125,-0.2156982421875
-0.8699493408203125,0.64617919921875,-0.2447967529296875
-0.8335113525390625,0.61737060546875,-0.2333526611328125
-0.810211181640625,0.64422607421875,-0.2346954345703125
-0.8354949951171875,0.6944732666015625,-0.258575439453125
-0.83758544921875,0.7232513427734375,-0.27569580078125
-0.8029632568359375,0.7299957275390625,-0.2451324462890625
-0.8141937255859375,0.7502593994140625,-0.2403564453125
-0.813629150390625,0.776031494140625,-0.2823944091796875
-0.7951507568359375,0.77313232421875,-0.289031982421875
-0.7469940185546875,0.743988037109375,-0.2614288330078125
-0.712310791015625,0.7399139404296875,-0.240386962890625
-0.6558837890625,0.7271881103515625,-0.2283172607421875
-0.5777435302734375,0.7028045654296875,-0.1593475341796875
-0.5164337158203125,0.72625732421875,-0.117950439453125
-0.47406005859375,0.7967681884765625,-0.0740966796875
-0.4737091064453125,0.8509063720703125,0.0396270751953125
-0.52630615234375,0.8475494384765625,0.052703857421875
-0.601715087890625,0.796966552734375,0.00042724609375
-0.6484375,0.757080078125,0.058074951171875
-0.6759490966796875,0.7353973388671875,0.1919708251953125
-0.68170166015625,0.7218017578125,0.2845001220703125
-0.701324462890625,0.725555419921875,0.2778472900390625
-0.7336883544921875,0.7351837158203125,0.162017822265625
-0.7525177001953125,0.7387847900390625,0.0740509033203125
-0.7844696044921875,0.714324951171875,0.044342041015625
-0.8256988525390625,0.6885528564453125,0.0191802978515625
-0.861328125,0.681610107421875,-0.0771636962890625
-0.8746490478515625,0.64813232421875,-0.1594696044921875
-1.0365142822265625,0.8056640625,-0.1925811767578125
-1.05792236328125,0.9063873291015624,-0.2581634521484375
-0.8556060791015625,0.6259002685546875,-0.2156219482421875
-0.868804931640625,0.6975555419921875,-0.22454833984375
-0.795989990234375,0.8624420166015625,-0.2060546875
-0.6628570556640625,0.8903350830078125,-0.2252197265625
-0.6328887939453125,0.786712646484375,-0.274505615234375
-0.6926727294921875,0.7310028076171875,-0.2630462646484375
-0.697357177734375,0.7586517333984375,-0.180450439453125
-0.64996337890625,0.8023529052734375,-0.1326141357421875
-0.590301513671875,0.79095458984375,-0.170989990234375
-0.6015472412109375,0.8103179931640625,-0.215789794921875
-0.6173095703125,0.8569793701171875,-0.172454833984375
-0.5735015869140625,0.8714752197265625,-0.1425628662109375
-0.51837158203125,0.7688446044921875,-0.1416473388671875
-0.6184539794921875,0.805755615234375,-0.0794219970703125
-0.571441650390625,0.8789215087890625,-0.0711669921875
-0.497772216796875,0.71429443359375,-0.0967559814453125
-0.597198486328125,0.6187286376953125,-0.005126953125
-0.7085418701171875,0.679046630859375,0.046295166015625
-0.70849609375,0.7745361328125,0.013092041015625
-0.663177490234375,0.717987060546875,-0.066253662109375
-0.6688079833984375,0.6687164306640625,-0.115478515625
-0.6576995849609375,0.68756103515625,-0.12652587890625
-0.639617919921875,0.7194061279296875,-0.113311767578125
-0.676605224609375,0.73468017578125,-0.0911865234375
-0.7416229248046875,0.740570068359375,-0.0647125244140625
-0.8286590576171875,0.7402496337890625,-0.0716094970703125
-0.9024658203125,0.7385101318359375,-0.1196441650390625
-0.9169464111328124,0.706756591796875,-0.1391143798828125
-0.9008941650390624,0.676788330078125,-0.102752685546875
-0.923553466796875,0.815948486328125,-0.0795135498046875
-0.874969482421875,0.9394073486328124,-0.1484832763671875
-0.6966094970703125,0.7960357666015625,-0.2282257080078125
-0.7212677001953125,0.7054290771484375,-0.2337799072265625
-0.7578277587890625,0.7758026123046875,-0.2080230712890625
-0.7082366943359375,0.8476409912109375,-0.184295654296875
-0.620086669921875,0.783294677734375,-0.2150726318359375
-0.6290283203125,0.711212158203125,-0.2265472412109375
-0.6291351318359375,0.7021331787109375,-0.166961669921875
-0.561981201171875,0.7107696533203125,-0.114715576171875
-0.5008544921875,0.7191619873046875,-0.0960845947265625
-0.457244873046875,0.709625244140625,-0.107696533203125
-0.448944091796875,0.7083282470703125,-0.1490478515625
-0.5225982666015625,0.7653961181640625,-0.1091766357421875
-0.5722198486328125,0.7787017822265625,-0.0589752197265625
-0.6836395263671875,0.8272857666015625,-0.055816650390625
-0.7185516357421875,0.9354400634765624,-0.1279144287109375
-0.6742095947265625,0.8526763916015625,-0.223480224609375
-0.687164306640625,0.7713623046875,-0.1961669921875
-0.68060302734375,0.67327880859375,-0.0827484130859375
-0.7855377197265625,0.6976470947265625,-0.0652923583984375
-0.8815155029296875,0.705535888671875,-0.12353515625
-0.8619842529296875,0.641265869140625,-0.1027679443359375
-0.756195068359375,0.6415252685546875,-0.0535125732421875
-0.647491455078125,0.66357421875,-0.030914306640625
-0.6333465576171875,0.6499786376953125,-0.03326416015625
-0.6876220703125,0.6312713623046875,-0.0930633544921875
-0.7212677001953125,0.6318511962890625,-0.1330413818359375
-0.84893798828125,0.7186431884765625,-0.1921844482421875
-0.9061279296875,0.77520751953125,-0.2157135009765625
-0.8848876953125,0.741943359375,-0.1361236572265625
-0.9080047607421876,0.803375244140625,-0.0935516357421875
-0.9007568359375,0.9445037841796876,-0.148681640625
-0.8440093994140625,0.953216552734375,-0.1821441650390625
-0.783355712890625,0.743133544921875,-0.178741455078125
-0.7695159912109375,0.7700653076171875,-0.0565032958984375
-0.7037811279296875,0.8781890869140625,-0.032318115234375
-0.59564208984375,0.871429443359375,-0.071044921875
-0.5351715087890625,0.7706756591796875,-0.0750732421875
-0.4839935302734375,0.6786041259765625,-0.0632476806640625
-0.47344970703125,0.6529998779296875,-0.025177001953125
-0.439117431640625,0.6106414794921875,0.0620574951171875
-0.441314697265625,0.5720672607421875,-0.0322723388671875
-0.5669097900390625,0.612152099609375,-0.1732635498046875
-0.6732025146484375,0.652435302734375,-0.229095458984375
-0.7519378662109375,0.7000579833984375,-0.234832763671875
-0.8145599365234375,0.7269439697265625,-0.209014892578125
-0.8242034912109375,0.7437591552734375,-0.1798095703125
-0.8467559814453125,0.9501190185546876,-0.20794677734375
-0.71392822265625,0.9289398193359376,-0.324127197265625
-0.665985107421875,0.674774169921875,-0.2538909912109375
-0.7590789794921875,0.6544647216796875,-0.203948974609375
-0.769683837890625,0.65087890625,-0.218231201171875
-0.7410736083984375,0.591796875,-0.2269134521484375
-0.7227325439453125,0.553466796875,-0.1573028564453125
-0.7146759033203125,0.6024627685546875,-0.0909271240234375
-0.65057373046875,0.6483917236328125,-0.0534820556640625
-0.6602783203125,0.647979736328125,-0.06683349609375
-0.7302093505859375,0.66632080078125,-0.0993499755859375
-0.819976806640625,0.6973419189453125,-0.0958404541015625
-0.891326904296875,0.744171142578125,-0.15203857421875
-0.878997802734375,0.765380859375,-0.2032318115234375
-0.91204833984375,0.8445281982421875,-0.2042236328125
-0.902374267578125,0.9137725830078124,-0.194732666015625
-0.8411407470703125,0.8857421875,-0.1927490234375
-0.7266082763671875,0.675506591796875,-0.2000274658203125
-0.779144287109375,0.71551513671875,-0.1640472412109375
-0.7288970947265625,0.8415069580078125,-0.1460418701171875
-0.662841796875,0.8730621337890625,-0.2044525146484375
-0.57550048828125,0.7653045654296875,-0.2496337890625
-0.566314697265625,0.7072601318359375,-0.2710113525390625
-0.5045623779296875,0.67730712890625,-0.2153778076171875
-0.46868896484375,0.6538238525390625,-0.1395111083984375
-0.47039794921875,0.67803955078125,-0.0811920166015625
-0.4682159423828125,0.7111968994140625,-0.06549072265625
-0.5105743408203125,0.7713623046875,-0.0478057861328125
-0.53759765625,0.775787353515625,-0.024871826171875
-0.589630126953125,0.743743896484375,-0.0795745849609375
-0.7859954833984375,0.9359283447265624,-0.075469970703125
-0.7552032470703125,0.9846343994140624,-0.0467376708984375
-0.6375274658203125,0.7608489990234375,-0.1182861328125
-0.679931640625,0.6265869140625,-0.1154022216796875
-0.7761993408203125,0.7244720458984375,-0.0987701416015625
-0.816802978515625,0.826904296875,-0.0897064208984375
-0.751953125,0.732391357421875,-0.1763916015625
-0.7111968994140625,0.645294189453125,-0.1800384521484375
-0.66290283203125,0.6711273193359375,-0.18548583984375
-0.626220703125,0.675872802734375,-0.09918212890625
-0.62664794921875,0.6741943359375,-0.0341949462890625
-0.666015625,0.6880340576171875,-0.0106048583984375
-0.75347900390625,0.7173309326171875,-0.0537261962890625
-0.8088226318359375,0.741180419921875,-0.08685302734375
-0.83697509765625,0.7504730224609375,-0.119384765625
-0.8368988037109375,0.761138916015625,-0.111083984375
-0.8949432373046875,0.970245361328125,-0.1595001220703125
-0.77691650390625,0.911773681640625,-0.2002410888671875
-0.723419189453125,0.714569091796875,-0.19647216796875
-0.783660888671875,0.7830810546875,-0.1918792724609375
-0.7675018310546875,0.8858642578125,-0.150787353515625
-0.68408203125,0.896697998046875,-0.1674041748046875
-0.6390228271484375,0.788665771484375,-0.2122955322265625
-0.595001220703125,0.7316436767578125,-0.20465087890625
-0.5103759765625,0.7265167236328125,-0.150115966796875
-0.434234619140625,0.7188720703125,-0.1163787841796875
-0.3939666748046875,0.6888885498046875,-0.0935211181640625
-0.4097900390625,0.6672210693359375,-0.056884765625
-0.43017578125,0.7056732177734375,-0.0413818359375
-0.47052001953125,0.80816650390625,-0.0324859619140625
-0.5316009521484375,0.8565826416015625,-0.0650787353515625
-0.6911468505859375,0.9496307373046876,-0.0639495849609375
-0.7490692138671875,1.0086822509765625,-0.1246185302734375
-0.7537078857421875,0.9290008544921876,-0.1530609130859375
-0.734161376953125,0.7275238037109375,-0.09906005859375
-0.8201141357421875,0.7393035888671875,-0.0655517578125
-0.86761474609375,0.8187103271484375,-0.1129913330078125
-0.79632568359375,0.7409210205078125,-0.15093994140625
-0.68927001953125,0.6123809814453125,-0.1492919921875
-0.5820465087890625,0.604888916015625,-0.0716552734375
-0.522979736328125,0.6507720947265625,-0.0297698974609375
-0.481353759765625,0.6840667724609375,-0.0133056640625
-0.503021240234375,0.6724700927734375,-0.0906219482421875
-0.6661376953125,0.7469329833984375,-0.1382293701171875
-0.8109130859375,0.83465576171875,-0.11907958984375
-0.8758544921875,0.821258544921875,-0.108856201171875
-0.8916168212890625,0.76788330078125,-0.114532470703125
-0.9689178466796876,0.9179840087890624,-0.1213836669921875
-0.8781585693359375,0.9326171875,-0.1388702392578125
-0.7601776123046875,0.76080322265625,-0.124786376953125
-0.7994384765625,0.8414154052734375,-0.10760498046875
-0.759033203125,1.009307861328125,-0.1108551025390625
-0.639892578125,0.95751953125,-0.1528778076171875
-0.5807647705078125,0.8031158447265625,-0.17840576171875
-0.5519256591796875,0.7279205322265625,-0.1001739501953125
-0.46258544921875,0.7328033447265625,0.0024261474609375
-0.3631134033203125,0.6984100341796875,0.0644073486328125
-0.4073638916015625,0.6372833251953125,0.049224853515625
-0.530792236328125,0.6399078369140625,-0.03741455078125
-0.5596771240234375,0.66436767578125,-0.0857086181640625
-0.5781097412109375,0.7747344970703125,-0.1234130859375
-0.5753631591796875,0.7547760009765625,-0.1991729736328125
-0.7116241455078125,0.7967529296875,-0.2012176513671875
-0.73809814453125,0.9452667236328124,-0.2312469482421875
-0.6569671630859375,0.89471435546875,-0.394073486328125
-0.71807861328125,0.72039794921875,-0.3442230224609375
-0.753570556640625,0.732635498046875,-0.174102783203125
-0.7237701416015625,0.8228759765625,-0.1875457763671875
-0.61627197265625,0.7200469970703125,-0.2099151611328125
-0.547332763671875,0.6166534423828125,-0.1793670654296875
-0.563568115234375,0.6457977294921875,-0.1425628662109375
-0.5845794677734375,0.6803741455078125,-0.099151611328125
-0.625396728515625,0.6821136474609375,-0.096343994140625
-0.76708984375,0.7372589111328125,-0.0966796875
-0.8797607421875,0.79412841796875,-0.08135986328125
-0.9730072021484376,0.8591766357421875,-0.1634368896484375
-0.9777984619140624,0.8094329833984375,-0.1804046630859375
-0.9509429931640624,0.7299041748046875,-0.12493896484375
-0.9640350341796876,0.8736724853515625,-0.0938262939453125
-0.863006591796875,0.9488983154296876,-0.15948486328125
-0.7816314697265625,0.730926513671875,-0.220184326171875
-0.8075714111328125,0.722412109375,-0.2062530517578125
-0.7684478759765625,0.89306640625,-0.1856231689453125
-0.6740570068359375,0.99462890625,-0.2599334716796875
-0.5532379150390625,0.886932373046875,-0.3450927734375
-0.507568359375,0.793212890625,-0.327545166015625
-0.4376220703125,0.764007568359375,-0.238616943359375
-0.359344482421875,0.7172698974609375,-0.1419219970703125
-0.3350830078125,0.665985107421875,-0.075531005859375
-0.3639373779296875,0.6401824951171875,-0.0038909912109375
-0.447418212890625,0.6983642578125,0.01312255859375
-0.5168304443359375,0.78973388671875,-0.0074310302734375
-0.559326171875,0.77862548828125,-0.0576019287109375
-0.73736572265625,0.924224853515625,-0.1112823486328125
-0.717529296875,0.9942169189453124,-0.1377105712890625
-0.6801605224609375,0.841400146484375,-0.2036285400390625
-0.7555694580078125,0.7465362548828125,-0.184722900390625
-0.8348846435546875,0.7884368896484375,-0.1990203857421875
-0.8216705322265625,0.7827606201171875,-0.13824462890625
-0.73883056640625,0.6701202392578125,-0.108551025390625
-0.6652679443359375,0.629669189453125,-0.0826568603515625
-0.5992279052734375,0.659515380859375,-0.0966644287109375
-0.5407867431640625,0.6567840576171875,-0.0889129638671875
-0.549591064453125,0.6424407958984375,-0.0947723388671875
-0.6563262939453125,0.7056427001953125,-0.1198577880859375
-0.7652740478515625,0.7684326171875,-0.1510772705078125
-0.8504180908203125,0.7994384765625,-0.1221923828125
-0.8565216064453125,0.7873382568359375,-0.15179443359375
-0.8279571533203125,0.77203369140625,-0.1744537353515625
-0.8888092041015625,0.939971923828125,-0.17999267578125
-0.868072509765625,0.95989990234375,-0.224853515625
-0.767303466796875,0.7676239013671875,-0.2587127685546875
-0.807098388671875,0.7632904052734375,-0.249481201171875
-0.74822998046875,0.8729095458984375,-0.1968994140625
-0.6682281494140625,0.9373016357421876,-0.2027435302734375
-0.5831451416015625,0.8731689453125,-0.2463531494140625
-0.5197296142578125,0.7777862548828125,-0.2623748779296875
-0.4661407470703125,0.7625885009765625,-0.2133331298828125
-0.42889404296875,0.732147216796875,-0.10186767578125
-0.4200592041015625,0.656982421875,0.0189971923828125
-0.4635772705078125,0.637664794921875,0.0280609130859375
-0.5166778564453125,0.659332275390625,-0.0489044189453125
-0.5349273681640625,0.698883056640625,-0.1085205078125
-0.5643157958984375,0.759429931640625,-0.1081695556640625
-0.5737457275390625,0.7611083984375,-0.1083221435546875
-0.6599884033203125,0.739837646484375,-0.1080322265625
-0.8067626953125,0.8798065185546875,-0.019317626953125
-0.8113555908203125,0.93670654296875,-0.0365142822265625
-0.742095947265625,0.80615234375,-0.1453704833984375
-0.8431549072265625,0.62750244140625,-0.2402191162109375
-0.9200439453125,0.6747589111328125,-0.2785797119140625
-0.9262237548828124,0.6360931396484375,-0.3246002197265625
-0.85479736328125,0.552398681640625,-0.30328369140625
-0.7093658447265625,0.549560546875,-0.255279541015625
-0.6231689453125,0.59112548828125,-0.195556640625
-0.62274169921875,0.626220703125,-0.230499267578125
-0.6512298583984375,0.6390838623046875,-0.178253173828125
-0.7019500732421875,0.6426239013671875,-0.1016082763671875
-0.80401611328125,0.6820831298828125,-0.091888427734375
-0.90814208984375,0.7137298583984375,-0.1623382568359375
-0.900970458984375,0.6878662109375,-0.1897125244140625
-0.8649139404296875,0.6812591552734375,-0.23663330078125
-0.8521728515625,0.676025390625,-0.204376220703125
-0.801666259765625,0.627471923828125,-0.186065673828125
-0.781036376953125,0.6023101806640625,-0.2324066162109375
-0.833648681640625,0.6342010498046875,-0.2742919921875
-0.915679931640625,0.7132720947265625,-0.3412628173828125
-0.8365325927734375,0.5970458984375,-0.3318634033203125
-0.745819091796875,0.4338226318359375,-0.2465972900390625
-0.7232666015625,0.3826446533203125,-0.2496795654296875
-0.678619384765625,0.4241943359375,-0.2751312255859375
-0.65899658203125,0.4908294677734375,-0.3365936279296875
-0.647064208984375,0.5211334228515625,-0.3720703125
-0.6525726318359375,0.4965667724609375,-0.3695068359375
-0.6708221435546875,0.47271728515625,-0.3655853271484375
-0.7269287109375,0.5077056884765625,-0.33551025390625
-0.790557861328125,0.552703857421875,-0.3027801513671875
-0.84381103515625,0.5685882568359375,-0.2773590087890625
-0.86383056640625,0.54095458984375,-0.2354278564453125
-0.9170074462890624,0.560699462890625,-0.1809844970703125
-0.9994354248046876,0.5759735107421875,-0.203399658203125
-0.964691162109375,0.581634521484375,-0.24139404296875
-0.93927001953125,0.5977630615234375,-0.2952423095703125
-0.9316558837890624,0.6651611328125,-0.3651123046875
-0.89764404296875,0.7532806396484375,-0.3753814697265625
-0.83978271484375,0.7893218994140625,-0.3496551513671875
-0.8182830810546875,0.78656005859375,-0.346221923828125
-0.7945404052734375,0.782623291015625,-0.34503173828125
-0.748199462890625,0.772796630859375,-0.3420257568359375
-0.682586669921875,0.734222412109375,-0.3298187255859375
-0.6505584716796875,0.6662750244140625,-0.2395477294921875
-0.64593505859375,0.67718505859375,-0.212432861328125
-0.6213531494140625,0.7423095703125,-0.1937103271484375
-0.44793701171875,0.7154541015625,-0.074859619140625
-0.374359130859375,0.619415283203125,0.0241546630859375
-0.4735107421875,0.657928466796875,-0.02386474609375
-0.5133056640625,0.7696685791015625,-0.02716064453125
-0.5442047119140625,0.784515380859375,-0.053558349609375
-0.6719207763671875,0.7818145751953125,-0.011688232421875
-0.7486419677734375,0.797027587890625,0.0648193359375
-0.769256591796875,0.8092193603515625,0.0894317626953125
-0.7684173583984375,0.7976531982421875,0.058135986328125
-0.7690277099609375,0.7770843505859375,0.02581787109375
-0.7663726806640625,0.778167724609375,-0.0208282470703125
-0.7501220703125,0.782989501953125,-0.0762481689453125
-0.76568603515625,0.7446441650390625,-0.0826873779296875
-0.8154296875,0.711700439453125,-0.085601806640625
-0.8628997802734375,0.6719512939453125,-0.0818328857421875
-0.8726654052734375,0.6743316650390625,-0.0869903564453125
-0.8203887939453125,0.6872406005859375,-0.1358489990234375
-0.7935791015625,0.6847686767578125,-0.2108154296875
-0.8136749267578125,0.7760162353515625,-0.3102264404296875
-0.875762939453125,0.90679931640625,-0.3643646240234375
-0.8061065673828125,0.8264312744140625,-0.3890380859375
-0.7458038330078125,0.6711273193359375,-0.3344268798828125
-0.779571533203125,0.7410888671875,-0.2669677734375
-0.740966796875,0.860107421875,-0.2607574462890625
-0.703369140625,0.931182861328125,-0.30267333984375
-0.6012420654296875,0.8058929443359375,-0.317230224609375
-0.58123779296875,0.708526611328125,-0.288421630859375
-0.5684967041015625,0.7107086181640625,-0.21453857421875
-0.5170440673828125,0.71832275390625,-0.189483642578125
-0.48016357421875,0.7220306396484375,-0.2055816650390625
-0.4730224609375,0.7117462158203125,-0.24005126953125
-0.4982147216796875,0.7103729248046875,-0.20855712890625
-0.539398193359375,0.77294921875,-0.14691162109375
-0.52935791015625,0.823089599609375,-0.1470184326171875
-0.5957183837890625,0.8364105224609375,-0.1508331298828125
-0.6935272216796875,0.8800048828125,-0.13140869140625
-0.6924285888671875,0.8866424560546875,-0.2327117919921875
-0.658477783203125,0.777740478515625,-0.31085205078125
-0.7455291748046875,0.7373809814453125,-0.2530517578125
-0.851531982421875,0.7679290771484375,-0.1978912353515625
-0.84661865234375,0.739349365234375,-0.144744873046875
-0.800506591796875,0.6309967041015625,-0.083221435546875
-0.759979248046875,0.5987091064453125,-0.1076812744140625
-0.67205810546875,0.6209259033203125,-0.1135101318359375
-0.58489990234375,0.635498046875,-0.1074066162109375
-0.5321044921875,0.64837646484375,-0.106597900390625
-0.6151123046875,0.7166900634765625,-0.1898345947265625
-0.710662841796875,0.7691650390625,-0.222412109375
-0.792755126953125,0.735198974609375,-0.1971588134765625
-0.849273681640625,0.6964874267578125,-0.16375732421875
-0.8416748046875,0.6814422607421875,-0.1432647705078125
-0.8717041015625,0.832244873046875,-0.1865997314453125
-0.843719482421875,0.939453125,-0.269683837890625
-0.692840576171875,0.7506561279296875,-0.3092803955078125
-0.73162841796875,0.6822509765625,-0.30059814453125
-0.76605224609375,0.8003082275390625,-0.178314208984375
-0.6820068359375,0.871368408203125,-0.1608123779296875
-0.5774993896484375,0.8260650634765625,-0.3055267333984375
-0.53546142578125,0.73968505859375,-0.410736083984375
-0.558746337890625,0.707763671875,-0.32977294921875
-0.5616302490234375,0.702056884765625,-0.139068603515625
-0.5519561767578125,0.689666748046875,-0.0444488525390625
-0.5314483642578125,0.6851959228515625,-0.0326995849609375
-0.5011749267578125,0.7051544189453125,-0.0690460205078125
-0.502777099609375,0.7224884033203125,-0.090789794921875
-0.5762786865234375,0.7412567138671875,-0.088714599609375
-0.611968994140625,0.7476348876953125,-0.0917816162109375
-0.7674407958984375,0.9013214111328124,-0.0819549560546875
-0.7234954833984375,0.906494140625,-0.25067138671875
-0.6231842041015625,0.5825653076171875,-0.19927978515625
-0.732513427734375,0.6155548095703125,-0.20574951171875
-0.7871551513671875,0.7200927734375,-0.2984466552734375
-0.78546142578125,0.6947021484375,-0.335601806640625
-0.7414703369140625,0.663726806640625,-0.244842529296875
-0.686187744140625,0.677459716796875,-0.14727783203125
-0.6501922607421875,0.6616058349609375,-0.136260986328125
-0.66619873046875,0.6515655517578125,-0.2129058837890625
-0.7214508056640625,0.6544189453125,-0.3035888671875
-0.7910003662109375,0.666229248046875,-0.348846435546875
-0.8319854736328125,0.6792144775390625,-0.3503570556640625
-0.8122406005859375,0.714752197265625,-0.3617401123046875
-0.7419586181640625,0.7527008056640625,-0.3795623779296875
-0.7418670654296875,0.822784423828125,-0.367584228515625
-0.73406982421875,0.91766357421875,-0.3477783203125
-0.6730194091796875,0.9066619873046876,-0.3136138916015625
-0.6260528564453125,0.81304931640625,-0.3261871337890625
-0.62298583984375,0.82720947265625,-0.3689727783203125
-0.6134490966796875,0.862762451171875,-0.356353759765625
-0.5637969970703125,0.77032470703125,-0.327239990234375
-0.5612335205078125,0.6719207763671875,-0.291290283203125
-0.552032470703125,0.6855010986328125,-0.2554168701171875
-0.4990997314453125,0.733642578125,-0.2368621826171875
-0.4476776123046875,0.762420654296875,-0.2202606201171875
-0.4751434326171875,0.8114013671875,-0.20306396484375
-0.5460205078125,0.88153076171875,-0.21319580078125
-0.5977020263671875,0.886993408203125,-0.2350311279296875
-0.6219940185546875,0.83624267578125,-0.2019195556640625
-0.6217498779296875,0.8029937744140625,-0.1339263916015625
-0.556732177734375,0.8818817138671875,-0.1080780029296875
-0.3592376708984375,0.758697509765625,-0.1554718017578125
-0.4362640380859375,0.6510009765625,-0.1215667724609375
-0.575714111328125,0.740020751953125,-0.1757659912109375
-0.69189453125,0.8343505859375,-0.2120513916015625
-0.7370452880859375,0.7541656494140625,-0.1977691650390625
-0.76568603515625,0.6709442138671875,-0.192962646484375
-0.777740478515625,0.6846923828125,-0.24517822265625
-0.7406768798828125,0.7205810546875,-0.25140380859375
-0.705841064453125,0.7300262451171875,-0.1999053955078125
-0.6971282958984375,0.746734619140625,-0.2203216552734375
-0.6878662109375,0.7551727294921875,-0.2197113037109375
-0.6888580322265625,0.754150390625,-0.2161865234375
-0.6691436767578125,0.7718048095703125,-0.2178497314453125
-0.6630401611328125,0.765380859375,-0.2147979736328125
-0.77703857421875,0.95330810546875,-0.2731475830078125
-0.7673492431640625,1.03533935546875,-0.3523712158203125
-0.6732635498046875,0.8017425537109375,-0.3466644287109375
-0.769134521484375,0.7793731689453125,-0.302398681640625
-0.7498016357421875,0.8607177734375,-0.29736328125
-0.64752197265625,0.83917236328125,-0.2920684814453125
-0.6100311279296875,0.7961273193359375,-0.322418212890625
-0.60101318359375,0.7903594970703125,-0.3160858154296875
-0.5243377685546875,0.8153228759765625,-0.2760009765625
-0.4038238525390625,0.778839111328125,-0.2130279541015625
-0.337677001953125,0.7113494873046875,-0.154754638671875
-0.336456298828125,0.6710052490234375,-0.1349334716796875
-0.3843841552734375,0.6942901611328125,-0.10919189453125
-0.4434814453125,0.76275634765625,-0.10986328125
-0.51690673828125,0.7733612060546875,-0.1467132568359375
-0.66064453125,1.0186767578125,-0.18133544921875
-0.549896240234375,0.981658935546875,-0.3036346435546875
-0.597991943359375,0.8271484375,-0.3408966064453125
-0.718536376953125,0.7161407470703125,-0.199493408203125
-0.821746826171875,0.803375244140625,-0.17303466796875
-0.8450927734375,0.811309814453125,-0.209686279296875
-0.7535552978515625,0.6852264404296875,-0.2140960693359375
-0.68621826171875,0.65081787109375,-0.2183837890625
-0.5593719482421875,0.6718292236328125,-0.14154052734375
-0.4959869384765625,0.6780853271484375,-0.111175537109375
-0.43023681640625,0.6697235107421875,-0.03399658203125
-0.47576904296875,0.7374420166015625,-0.0377960205078125
-0.627777099609375,0.8646240234375,-0.189727783203125
-0.745513916015625,0.8687896728515625,-0.337188720703125
-0.8409576416015625,0.8072357177734375,-0.4108428955078125
-1.04644775390625,0.9435882568359376,-0.3925323486328125
-1.0488739013671875,1.0438995361328125,-0.2472381591796875
-0.83203125,0.82208251953125,-0.124725341796875
-0.8892669677734375,0.8492431640625,-0.16448974609375
-0.8643798828125,1.019317626953125,-0.1282806396484375
-0.7274627685546875,1.1099700927734375,-0.1270904541015625
-0.5890655517578125,1.0253753662109375,-0.145599365234375
-0.5404052734375,0.9099578857421876,-0.15216064453125
-0.466766357421875,0.8341217041015625,-0.120147705078125
-0.34844970703125,0.7292327880859375,-0.0442657470703125
-0.2860565185546875,0.633148193359375,0.0294036865234375
-0.2807159423828125,0.5938568115234375,0.01678466796875
-0.3028564453125,0.614532470703125,-0.0460052490234375
-0.3568878173828125,0.6568450927734375,-0.1163177490234375
-0.4272918701171875,0.7842559814453125,-0.1801300048828125
-0.510162353515625,0.9227142333984376,-0.26324462890625
-0.684173583984375,1.065155029296875,-0.3385009765625
-0.756134033203125,1.205413818359375,-0.392303466796875
-0.74945068359375,1.286712646484375,-0.4994354248046875
-0.6716461181640625,1.0370941162109375,-0.5847625732421875
-0.809478759765625,0.8824615478515625,-0.510772705078125
-0.894378662109375,0.7571868896484375,-0.386993408203125
-0.8475494384765625,0.6515960693359375,-0.2130279541015625
-0.751678466796875,0.60296630859375,-0.104736328125
-0.6849822998046875,0.650238037109375,-0.1009521484375
-0.6018524169921875,0.704559326171875,-0.1754150390625
-0.623199462890625,0.6915435791015625,-0.2537994384765625
-0.695220947265625,0.65936279296875,-0.2752685546875
-0.7867279052734375,0.6952667236328125,-0.25848388671875
-0.840972900390625,0.7473907470703125,-0.211517333984375
-0.8347015380859375,0.8118438720703125,-0.1732330322265625
-0.78607177734375,0.872589111328125,-0.223968505859375
-0.7877044677734375,1.001617431640625,-0.31610107421875
-0.748046875,1.08428955078125,-0.365570068359375
-0.6335601806640625,1.069671630859375,-0.4472503662109375
-0.5359649658203125,0.8451385498046875,-0.4383544921875
-0.6230926513671875,0.8268280029296875,-0.3167877197265625
-0.610321044921875,0.917755126953125,-0.2206573486328125
-0.4588165283203125,0.862548828125,-0.2303466796875
-0.396209716796875,0.7043914794921875,-0.2525634765625
-0.3683013916015625,0.659332275390625,-0.2564544677734375
-0.30145263671875,0.6513214111328125,-0.2286529541015625
-0.33154296875,0.595794677734375,-0.2134552001953125
-0.4004364013671875,0.568084716796875,-0.2152099609375
-0.47198486328125,0.58917236328125,-0.322601318359375
-0.6167144775390625,0.650238037109375,-0.4597625732421875
-0.673553466796875,0.702301025390625,-0.3922119140625
-0.6439208984375,0.758331298828125,-0.40460205078125
-0.70562744140625,0.931915283203125,-0.451995849609375
-0.561431884765625,0.92413330078125,-0.5028228759765625
-0.4355926513671875,0.768890380859375,-0.4964752197265625
-0.449066162109375,0.6253204345703125,-0.3956298828125
-0.5804901123046875,0.683319091796875,-0.2369842529296875
-0.6375885009765625,0.79791259765625,-0.230224609375
-0.615264892578125,0.8036651611328125,-0.2989654541015625
-0.59027099609375,0.7426300048828125,-0.3264923095703125
-0.5757904052734375,0.706634521484375,-0.4076995849609375
-0.5851898193359375,0.6801605224609375,-0.4101715087890625
-0.6126556396484375,0.686187744140625,-0.2983856201171875
-0.6656341552734375,0.7082977294921875,-0.2458953857421875
-0.72308349609375,0.71807861328125,-0.2551116943359375
-0.75042724609375,0.7198944091796875,-0.2819976806640625
-0.7108154296875,0.81005859375,-0.3072357177734375
-0.607208251953125,0.8553466796875,-0.328857421875
-0.64703369140625,0.9639434814453124,-0.350494384765625
-0.6651153564453125,1.08221435546875,-0.4083251953125
-0.65484619140625,1.026458740234375,-0.4537506103515625
-0.6095123291015625,0.7859954833984375,-0.4509735107421875
-0.6266021728515625,0.7582244873046875,-0.4420318603515625
-0.5749359130859375,0.9005584716796875,-0.3752899169921875
-0.5316162109375,1.0521697998046875,-0.3216400146484375
-0.407867431640625,0.934722900390625,-0.290618896484375
-0.324859619140625,0.8311920166015625,-0.346435546875
-0.275604248046875,0.7355804443359375,-0.3346099853515625
-0.276092529296875,0.6843414306640625,-0.205810546875
-0.3477630615234375,0.719970703125,-0.11199951171875
-0.3644561767578125,0.7936248779296875,-0.1329498291015625
-0.38433837890625,0.8258209228515625,-0.2192535400390625
-0.478973388671875,0.84442138671875,-0.2005462646484375
-0.5212860107421875,0.8354339599609375,-0.0955810546875
-0.6972808837890625,0.9697723388671876,-0.0523681640625
-0.5856475830078125,0.94219970703125,-0.0796356201171875
-0.545928955078125,0.8192138671875,-0.0897979736328125
-0.657196044921875,0.7049407958984375,-0.01373291015625
-0.72161865234375,0.8148345947265625,0.0380706787109375
-0.81597900390625,0.92474365234375,0.11041259765625
-0.8505401611328125,0.79803466796875,0.0535125732421875
-0.7831878662109375,0.6596221923828125,-0.10711669921875
-0.7312469482421875,0.6620330810546875,-0.0949859619140625
-0.7324981689453125,0.636474609375,0.068084716796875
-0.74078369140625,0.6287078857421875,0.11688232421875
-0.730682373046875,0.6182403564453125,0.051116943359375
-0.7317962646484375,0.65057373046875,-0.0322723388671875
-0.880157470703125,0.6992645263671875,-0.07757568359375
-0.898345947265625,0.7245025634765625,-0.0884857177734375
-0.9132843017578124,0.769256591796875,-0.0654449462890625
-0.8634185791015625,0.9356689453125,-0.137939453125
-0.81732177734375,1.095703125,-0.2602691650390625
-0.7648162841796875,1.0458221435546875,-0.3568267822265625
-0.65625,0.900909423828125,-0.2880401611328125
-0.5157470703125,0.69903564453125,-0.2079925537109375
-0.4244384765625,0.7588043212890625,-0.1449737548828125
-0.343536376953125,0.8509979248046875,-0.1287994384765625
-0.308013916015625,0.768646240234375,-0.1328277587890625
-0.4284820556640625,0.6944122314453125,-0.1445159912109375
-0.4547119140625,0.689422607421875,-0.1809844970703125
-0.470916748046875,0.7211456298828125,-0.173736572265625
-0.55914306640625,0.735504150390625,-0.130645751953125
-0.5789947509765625,0.726715087890625,-0.0711822509765625
-0.601348876953125,0.69415283203125,-0.003875732421875
-0.5847625732421875,0.677093505859375,0.0170440673828125
-0.5271148681640625,0.6827239990234375,0.0024261474609375
-0.457916259765625,0.607391357421875,0.0479736328125
-0.4130096435546875,0.5379638671875,-0.0142669677734375
-0.4139556884765625,0.4949188232421875,-0.1072845458984375
-0.496490478515625,0.5618438720703125,-0.0802154541015625
-0.869049072265625,1.1082305908203125,-0.048919677734375
-0.9612884521484376,1.2949676513671875,-0.229705810546875
-1.2981719970703125,1.20526123046875,-0.2998046875
-1.56024169921875,1.3938140869140625,-0.5041046142578125
-1.2036895751953125,0.9534149169921876,-0.458831787109375
-0.8888702392578125,0.7019195556640625,-0.251953125
-0.735198974609375,0.7634735107421875,-0.0583343505859375
-0.5780487060546875,0.7997894287109375,0.143035888671875
-0.4622039794921875,0.714691162109375,0.239654541015625
-0.3718719482421875,0.67352294921875,0.1708831787109375
-0.3162384033203125,0.671112060546875,-0.0777587890625
-0.2722930908203125,0.5782623291015625,-0.175567626953125
-0.3391265869140625,0.5551910400390625,-0.080596923828125
-0.3816680908203125,0.616790771484375,0.05389404296875
-0.4391021728515625,0.8175506591796875,0.08099365234375
-0.493743896484375,1.169464111328125,-0.006103515625
-0.571685791015625,1.3125457763671875,-0.098663330078125
-0.883392333984375,1.5959930419921875,-0.1609344482421875
-0.6691741943359375,1.3567352294921875,-0.391021728515625
-0.6602325439453125,0.9609222412109376,-0.3388519287109375
-0.708740234375,0.8005218505859375,-0.2016448974609375
-0.6629791259765625,0.7553558349609375,-0.06170654296875
-0.6019744873046875,0.650299072265625,0.0649261474609375
-0.58001708984375,0.5627899169921875,0.108123779296875
-0.598907470703125,0.5387115478515625,0.033966064453125
-0.5912628173828125,0.541717529296875,-0.0992431640625
-0.5656280517578125,0.57562255859375,-0.173492431640625
-0.53582763671875,0.5940093994140625,-0.2270355224609375
-0.7740631103515625,0.9331817626953124,-0.254547119140625
-0.8569488525390625,1.2796630859375,-0.3425445556640625
-0.9449920654296876,1.1593170166015625,-0.367523193359375
-1.187103271484375,1.1920318603515625,-0.3409423828125
-1.0008697509765625,1.093231201171875,-0.18768310546875
-0.865570068359375,0.9759979248046876,0.037261962890625
-0.776275634765625,1.0047454833984375,0.148223876953125
-0.618896484375,0.974517822265625,0.0950164794921875
-0.486236572265625,0.852996826171875,0.0251617431640625
-0.407562255859375,0.757171630859375,-0.0512237548828125
-0.326446533203125,0.658233642578125,-0.037322998046875
-0.263641357421875,0.5384368896484375,0.0034637451171875
-0.2642822265625,0.4591217041015625,0.0262603759765625
-0.248626708984375,0.4970245361328125,0.05657958984375
-0.2679595947265625,0.6174163818359375,0.1495513916015625
-0.4310302734375,0.9139862060546876,0.2422332763671875
-0.5322113037109375,1.1988525390625,0.049346923828125
-0.8754730224609375,1.34326171875,-0.214202880859375
-1.0807952880859375,1.5571746826171875,-0.2974700927734375
-0.8350982666015625,1.2936859130859375,-0.30328369140625
-0.8164825439453125,0.969573974609375,-0.19427490234375
-0.83868408203125,0.8320770263671875,-0.214202880859375
-0.722747802734375,0.7594451904296875,-0.144287109375
-0.6048126220703125,0.60198974609375,-0.070709228515625
-0.5853729248046875,0.5147705078125,-0.054901123046875
-0.612152099609375,0.490631103515625,-0.0714111328125
-0.5811614990234375,0.4736328125,-0.065765380859375
-0.5149383544921875,0.4764862060546875,-0.1136932373046875
-0.5045013427734375,0.5203704833984375,-0.141815185546875
-0.6963653564453125,0.8676300048828125,-0.1404266357421875
-0.69464111328125,1.0156097412109375,-0.2662506103515625
-1.0823211669921875,1.2401885986328125,-0.359710693359375
-1.2502288818359375,1.4392852783203125,-0.4919281005859375
-1.1298980712890625,1.116180419921875,-0.2807159423828125
-0.93115234375,1.0731353759765625,0.082366943359375
-0.773712158203125,1.0609130859375,0.119140625
-0.5325164794921875,0.9622650146484376,0.0156707763671875
-0.3248291015625,0.820892333984375,-0.0720062255859375
-0.2206878662109375,0.662261962890625,-0.02239990234375
-0.2185211181640625,0.5908203125,0.0517578125
-0.19683837890625,0.5808563232421875,0.0394134521484375
-0.1932830810546875,0.56793212890625,0.0588226318359375
-0.24237060546875,0.5994110107421875,0.098602294921875
-0.330169677734375,0.7896575927734375,0.091949462890625
-0.3989105224609375,1.0767669677734375,0.0437164306640625
-0.6114654541015625,1.37890625,-0.0719146728515625
-0.91754150390625,1.7608795166015625,-0.1969146728515625
-0.8970947265625,1.5699615478515625,-0.373565673828125
-0.9116973876953124,1.0553131103515625,-0.37408447265625
-0.9282073974609376,0.740814208984375,-0.2701873779296875
-0.8099365234375,0.6944427490234375,-0.07440185546875
-0.65252685546875,0.6952056884765625,0.1019134521484375
-0.513336181640625,0.6252288818359375,0.122161865234375
-0.5059661865234375,0.565765380859375,0.0075836181640625
-0.56915283203125,0.4991607666015625,-0.1835174560546875
-0.6448974609375,0.480133056640625,-0.259979248046875
-0.8605804443359375,0.7806549072265625,-0.28338623046875
-0.8653717041015625,1.03662109375,-0.2241973876953125
-1.06781005859375,1.5326995849609375,-0.18365478515625
-1.1688995361328125,1.6669464111328125,-0.5428924560546875
-0.8433380126953125,1.0113067626953125,-0.391632080078125
-0.7425689697265625,0.9220123291015624,-0.0916900634765625
-0.6261444091796875,1.10906982421875,-0.0039520263671875
-0.3498992919921875,1.102996826171875,-0.1353607177734375
-0.2528839111328125,0.915313720703125,-0.198028564453125
-0.3720550537109375,0.7408447265625,-0.1805877685546875
-0.3925933837890625,0.6561126708984375,-0.040985107421875
-0.3334808349609375,0.665283203125,-0.017578125
-0.3061676025390625,0.6729888916015625,-0.05169677734375
-0.37554931640625,0.7346954345703125,-0.0564727783203125
-0.4412078857421875,1.147491455078125,-0.0380096435546875
-0.2286376953125,1.2271270751953125,-0.1131744384765625
-0.6295166015625,1.3997802734375,-0.0574188232421875
-0.7929534912109375,1.582489013671875,-0.1698760986328125
-0.81341552734375,1.2376708984375,-0.2212677001953125
-0.765106201171875,0.9035491943359376,-0.1146087646484375
-0.788818359375,0.8419342041015625,-0.0618743896484375
-0.7937774658203125,0.7910003662109375,0.038787841796875
-0.7061920166015625,0.768341064453125,0.12493896484375
-0.648590087890625,0.8262176513671875,0.1012725830078125
-0.6451416015625,0.9265594482421876,-0.0191497802734375
-0.724639892578125,0.98748779296875,-0.1167449951171875
-0.796722412109375,0.96502685546875,-0.1624755859375
-0.8592376708984375,0.9773101806640624,-0.17266845703125
-0.84906005859375,0.887786865234375,-0.185821533203125
-0.7628173828125,0.775115966796875,-0.149169921875
-0.7152557373046875,0.7613525390625,-0.0858917236328125
-0.6468048095703125,0.827850341796875,-0.1379547119140625
-0.6387786865234375,1.0562591552734375,-0.2081451416015625
-0.6415252685546875,1.2385101318359375,-0.287567138671875
-0.522003173828125,1.12994384765625,-0.36492919921875
-0.440521240234375,0.9511566162109376,-0.33453369140625
-0.3616943359375,0.84552001953125,-0.2426605224609375
-0.3087310791015625,0.8050994873046875,-0.1342926025390625
-0.274261474609375,0.7490692138671875,-0.033660888671875
-0.3159332275390625,0.7216033935546875,0.0479888916015625
-0.3891754150390625,0.69097900390625,0.0473480224609375
-0.446746826171875,0.6688232421875,0.0335845947265625
-0.45709228515625,0.68878173828125,0.0700531005859375
-0.484405517578125,0.7222900390625,0.073822021484375
-0.5565185546875,0.778472900390625,0.0999908447265625
-0.64215087890625,0.830047607421875,0.102569580078125
-0.62744140625,0.7617340087890625,0.11663818359375
-0.5923309326171875,0.5753173828125,0.16485595703125
-0.577423095703125,0.4990692138671875,0.1771392822265625
-0.5576629638671875,0.6019287109375,0.1447906494140625
-0.563232421875,0.79400634765625,0.03985595703125
-0.71728515625,1.0352325439453125,-0.088043212890625
-0.8064422607421875,1.15643310546875,-0.2014007568359375
-0.8523406982421875,1.0326080322265625,-0.2425994873046875
-0.925506591796875,1.218658447265625,-0.1223602294921875
-0.6967010498046875,1.3540802001953125,-0.1226348876953125
-0.5442657470703125,0.9435272216796876,-0.19622802734375
-0.5931549072265625,0.6846771240234375,-0.1712188720703125
-0.560516357421875,0.6414947509765625,-0.06549072265625
-0.4752655029296875,0.6916351318359375,0.0297088623046875
-0.4787445068359375,0.68487548828125,0.087158203125
-0.56549072265625,0.6927947998046875,0.0785675048828125
-0.5905609130859375,0.6816864013671875,0.0157318115234375
-0.549041748046875,0.6404266357421875,-0.00982666015625
-0.4929046630859375,0.64849853515625,-0.0512237548828125
-0.439453125,0.7110748291015625,-0.0998992919921875
-0.35546875,0.7022552490234375,-0.1267852783203125
-0.372039794921875,0.6367034912109375,-0.09930419921875
-0.5130157470703125,0.6329193115234375,-0.0142669677734375
-0.8255767822265625,0.9527435302734376,0.012847900390625
-0.794525146484375,1.0832061767578125,-0.10107421875
-0.94354248046875,0.891754150390625,0.00299072265625
-1.1412811279296875,1.2503509521484375,0.1307525634765625
-0.829498291015625,1.144805908203125,-0.0070037841796875
-0.740966796875,0.6874847412109375,0.0405426025390625
-0.66986083984375,0.624786376953125,0.0933685302734375
-0.52618408203125,0.749053955078125,0.098846435546875
-0.402008056640625,0.794921875,0.1024627685546875
-0.4771270751953125,0.8516387939453125,0.018890380859375
-0.465850830078125,0.8936920166015625,-0.08551025390625
-0.4162139892578125,0.837860107421875,-0.08245849609375
-0.4438934326171875,0.73046875,0.03631591796875
-0.461761474609375,0.7143707275390625,0.18359375
-0.3995513916015625,0.7050018310546875,0.2332916259765625
-0.4342041015625,0.6837310791015625,0.155242919921875
-0.5091400146484375,0.7572021484375,0.0543670654296875
-0.5666961669921875,0.8874664306640625,0.002166748046875
-0.61505126953125,0.8819732666015625,-0.077545166015625
-0.6885833740234375,0.7398223876953125,0.02423095703125
-0.662200927734375,0.7267303466796875,0.172027587890625
-0.5608978271484375,0.7552337646484375,0.0896759033203125
-0.5270233154296875,0.6734771728515625,-0.001251220703125
-0.4920501708984375,0.5241546630859375,0.058563232421875
-0.4183349609375,0.439605712890625,0.109222412109375
-0.35430908203125,0.4258575439453125,0.1758880615234375
-0.338226318359375,0.4677276611328125,0.1656951904296875
-0.4158782958984375,0.5542144775390625,0.0047149658203125
-0.5877685546875,0.6042327880859375,0.1383819580078125
-0.789031982421875,0.6393280029296875,0.2701263427734375
-0.944244384765625,0.678955078125,0.0931854248046875
-0.9825439453125,0.71136474609375,-0.0816192626953125
-0.983184814453125,0.6761322021484375,-0.1083984375
-1.0358734130859375,0.7035980224609375,-0.0110015869140625
-1.0258941650390625,0.6628875732421875,-0.0213165283203125
-1.0471343994140625,0.6862945556640625,-0.0550994873046875
-1.04132080078125,0.7169036865234375,-0.037078857421875
-1.0182037353515625,0.7142333984375,-0.105010986328125
-1.0620269775390625,0.7035369873046875,-0.1691131591796875
-1.0466156005859375,0.735748291015625,-0.215576171875
-0.9735870361328124,0.752105712890625,-0.175384521484375
-1.027862548828125,0.750030517578125,-0.210693359375
-1.171478271484375,0.72845458984375,-0.33380126953125
-1.15863037109375,0.7143707275390625,-0.3658294677734375
-1.105316162109375,0.7365570068359375,-0.4775543212890625
-0.9393768310546876,0.7277679443359375,-0.5665740966796875
-0.7104949951171875,0.6324005126953125,-0.7459259033203125
-0.5964508056640625,0.4498291015625,-0.849822998046875
-0.6083831787109375,0.38543701171875,-0.779144287109375
-0.549102783203125,0.35931396484375,-0.7478790283203125
-0.39215087890625,0.363250732421875,-0.8038330078125
-0.1616973876953125,0.314178466796875,-0.961944580078125
-0.1758880615234375,0.39874267578125,-1.057830810546875
-0.1641845703125,0.3907470703125,-0.98516845703125
-0.078826904296875,0.1585235595703125,-0.8618927001953125
-0.0212554931640625,0.0642242431640625,-0.72412109375
0.02447509765625,0.033172607421875,-0.6797637939453125
-0.0506439208984375,-0.111419677734375,-0.6828155517578125
-0.0138092041015625,-0.1967315673828125,-0.6728973388671875
0.027587890625,-0.2363433837890625,-0.7109832763671875
0.006500244140625,-0.2873992919921875,-0.734466552734375
0.0025177001953125,-0.2874755859375,-0.8368682861328125
-0.0369110107421875,-0.301422119140625,-0.7857666015625
-0.1390838623046875,-0.363922119140625,-0.776031494140625
-0.1344146728515625,-0.3618011474609375,-0.9576873779296876
-0.1134490966796875,-0.3451995849609375,-1.0963287353515625
-0.0622100830078125,-0.36065673828125,-1.018402099609375
-0.0556182861328125,-0.3768310546875,-0.9934539794921876
0.02728271484375,-0.347991943359375,-1.0092315673828125
0.021270751953125,-0.344879150390625,-0.9333038330078124
0.0699310302734375,-0.365447998046875,-0.90234375
