AccelerationX,AccelerationY,AccelerationZ
-0.375152587890625,0.8150787353515625,-0.3892822265625
-0.405517578125,0.8145904541015625,-0.3505859375
-0.4296875,0.83465576171875,-0.3977508544921875
-0.422882080078125,0.8285980224609375,-0.4184722900390625
-0.405242919921875,0.8139495849609375,-0.3457489013671875
-0.4155731201171875,0.803558349609375,-0.3447723388671875
-0.413482666015625,0.820556640625,-0.405120849609375
-0.413909912109375,0.834136962890625,-0.4219512939453125
-0.3863677978515625,0.82879638671875,-0.3969573974609375
-0.3707122802734375,0.8172454833984375,-0.43365478515625
-0.399261474609375,0.814300537109375,-0.4275665283203125
-0.4280242919921875,0.792938232421875,-0.3456268310546875
-0.3877105712890625,0.8100738525390625,-0.3974151611328125
-0.359283447265625,0.8055877685546875,-0.484619140625
-0.3545989990234375,0.8121185302734375,-0.3840179443359375
-0.36053466796875,0.8299713134765625,-0.3894805908203125
-0.3857421875,0.831451416015625,-0.3817291259765625
-0.448486328125,0.7800750732421875,-0.438079833984375
-0.5195770263671875,0.7904052734375,-0.3498077392578125
-0.4048004150390625,0.8473968505859375,-0.2148895263671875
-0.3675537109375,0.83074951171875,-0.4732208251953125
-0.5773773193359375,0.80328369140625,-0.4729461669921875
-0.59210205078125,0.7801055908203125,-0.197418212890625
-0.557220458984375,0.7517242431640625,-0.2185516357421875
-0.5592041015625,0.75640869140625,-0.265594482421875
-0.5393524169921875,0.7699127197265625,-0.2418670654296875
-0.57318115234375,0.80474853515625,-0.2131805419921875
-0.62359619140625,0.7646026611328125,-0.02886962890625
-0.67236328125,0.748931884765625,-0.02032470703125
-0.6129150390625,0.7501678466796875,0.014739990234375
-0.597991943359375,0.764007568359375,-0.113739013671875
-0.6952972412109375,0.8314971923828125,-0.0348968505859375
-0.646759033203125,0.8661346435546875,-0.0039215087890625
-0.607879638671875,0.7841033935546875,-0.07196044921875
-0.581817626953125,0.7467803955078125,0.00054931640625
-0.5971527099609375,0.7261962890625,0.0276336669921875
-0.6857452392578125,0.77850341796875,-0.01275634765625
-0.579437255859375,0.6495513916015625,0.0704345703125
-0.8319854736328125,0.7117462158203125,0.1024932861328125
-0.8029022216796875,0.70281982421875,0.1136016845703125
-0.7672882080078125,0.697540283203125,-0.10296630859375
-0.6949615478515625,0.7379913330078125,-0.1124725341796875
-0.6780242919921875,0.7103729248046875,-0.009796142578125
-0.79754638671875,0.7450714111328125,-0.056610107421875
-0.8438262939453125,0.8813323974609375,-0.1616973876953125
-0.7385101318359375,0.8871002197265625,-0.210906982421875
-0.5956878662109375,0.6893310546875,-0.1404266357421875
-0.573394775390625,0.730499267578125,-0.122772216796875
-0.52044677734375,0.830108642578125,-0.1058197021484375
-0.5580596923828125,0.926971435546875,-0.058197021484375
-0.551025390625,0.837738037109375,-0.0502166748046875
-0.4797821044921875,0.7572174072265625,-0.074798583984375
-0.4518585205078125,0.7393951416015625,-0.1039581298828125
-0.51837158203125,0.735504150390625,-0.1073760986328125
-0.5644683837890625,0.7653656005859375,-0.1383209228515625
-0.5542449951171875,0.8021697998046875,-0.065216064453125
-0.5611419677734375,0.798248291015625,0.0842742919921875
-0.594146728515625,0.8292694091796875,0.09136962890625
-0.6357879638671875,0.881500244140625,0.069488525390625
-0.63873291015625,0.837554931640625,-0.0055694580078125
-0.6431121826171875,0.7791900634765625,-0.0775604248046875
-0.8007659912109375,0.9590301513671876,-0.0632171630859375
-0.688751220703125,0.964599609375,-0.08184814453125
-0.4925689697265625,0.7279510498046875,-0.0603485107421875
-0.52545166015625,0.6824798583984375,-0.0087738037109375
-0.6223297119140625,0.7645111083984375,-0.0695343017578125
-0.648345947265625,0.7714691162109375,-0.08837890625
-0.5885772705078125,0.646240234375,0.033416748046875
-0.5934906005859375,0.6493988037109375,0.03448486328125
-0.6025543212890625,0.67840576171875,0.06494140625
-0.5818328857421875,0.68072509765625,0.127197265625
-0.6366729736328125,0.695770263671875,0.0683746337890625
-0.671417236328125,0.7281951904296875,-0.0093231201171875
-0.731903076171875,0.8678436279296875,-0.024993896484375
-0.739593505859375,0.894805908203125,0.042694091796875
-0.6862335205078125,0.8439483642578125,0.080596923828125
-0.659820556640625,0.8514556884765625,0.0191192626953125
-0.65277099609375,0.9830169677734376,-0.054656982421875
-0.638031005859375,1.0057525634765625,-0.0244598388671875
-0.6019744873046875,0.791778564453125,-0.012847900390625
-0.5564727783203125,0.8116302490234375,-0.053497314453125
-0.5670318603515625,0.91864013671875,-0.1213226318359375
-0.474456787109375,0.8861846923828125,-0.081695556640625
-0.3819427490234375,0.7550506591796875,-0.0067901611328125
-0.4406280517578125,0.695587158203125,0.0120391845703125
-0.4736480712890625,0.725250244140625,0.0318450927734375
-0.4284820556640625,0.7424774169921875,0.0714874267578125
-0.4698944091796875,0.738128662109375,0.0390167236328125
-0.5457305908203125,0.8033447265625,-0.0195159912109375
-0.64215087890625,0.8941497802734375,-0.039337158203125
-0.74578857421875,0.9349365234375,-0.02557373046875
-0.6913299560546875,0.8556671142578125,0.016448974609375
-0.7128753662109375,0.931121826171875,0.05413818359375
-0.7197418212890625,1.0073394775390625,-0.0469818115234375
-0.5768890380859375,0.751861572265625,-0.1074676513671875
-0.5602264404296875,0.550933837890625,-0.0649261474609375
-0.6417236328125,0.663238525390625,-0.017425537109375
-0.7388763427734375,0.7953948974609375,0.0034637451171875
-0.7247467041015625,0.737579345703125,9.1552734375e-05
-0.6787109375,0.672515869140625,-0.0118255615234375
-0.6696014404296875,0.6703643798828125,0.0044097900390625
-0.6067352294921875,0.698150634765625,0.0705108642578125
-0.5476837158203125,0.7303009033203125,0.0107879638671875
-0.5899200439453125,0.7809600830078125,-0.0776214599609375
-0.610931396484375,0.82415771484375,-0.0419921875
-0.6181488037109375,0.8567047119140625,0.015472412109375
-0.670318603515625,0.9238433837890624,0.022125244140625
-0.62371826171875,0.87188720703125,-0.0065460205078125
-0.6447601318359375,0.9865875244140624,-0.0278778076171875
-0.6642913818359375,0.966705322265625,-0.02606201171875
-0.63665771484375,0.7363128662109375,-0.1322021484375
-0.6808319091796875,0.601287841796875,-0.1660919189453125
-0.6547698974609375,0.68701171875,-0.141387939453125
-0.6039886474609375,0.8013916015625,-0.031402587890625
-0.5682830810546875,0.721771240234375,-0.0038909912109375
-0.606292724609375,0.67083740234375,-0.099945068359375
-0.6340179443359375,0.7090911865234375,-0.0813751220703125
-0.5477752685546875,0.71917724609375,-0.023651123046875
-0.5484619140625,0.7303314208984375,-0.0764007568359375
-0.5263824462890625,0.79827880859375,-0.0830535888671875
-0.5507965087890625,0.8836669921875,-0.0410003662109375
-0.5662384033203125,0.97161865234375,-0.0151214599609375
-0.5386962890625,0.91790771484375,-0.016143798828125
-0.56951904296875,0.8385772705078125,-0.0195159912109375
-0.5923309326171875,0.963470458984375,-0.0339813232421875
-0.5850677490234375,0.888519287109375,-0.086273193359375
-0.60906982421875,0.6417388916015625,0.066802978515625
-0.6430206298828125,0.684295654296875,0.1478118896484375
-0.6406097412109375,0.798858642578125,0.0165252685546875
-0.5816192626953125,0.772796630859375,-0.0049896240234375
-0.5166015625,0.704803466796875,-0.0253753662109375
-0.5133514404296875,0.7237091064453125,-0.0796966552734375
-0.52374267578125,0.7232818603515625,-0.09759521484375
-0.548095703125,0.718292236328125,-0.0647125244140625
-0.599578857421875,0.7313690185546875,-0.0424041748046875
-0.64996337890625,0.76416015625,-0.0293121337890625
-0.714141845703125,0.811187744140625,-0.02410888671875
-0.7035980224609375,0.9250030517578124,-0.04534912109375
-0.6820526123046875,0.9520721435546876,-0.0753021240234375
-0.66827392578125,0.982666015625,-0.086456298828125
-0.604156494140625,1.0573577880859375,-0.0962982177734375
-0.586456298828125,0.909210205078125,-0.1027069091796875
-0.6529998779296875,0.7918243408203125,-0.0550537109375
-0.5222015380859375,0.9761810302734376,-0.076385498046875
-0.37652587890625,0.9423980712890624,-0.0690155029296875
-0.4897613525390625,0.8039398193359375,-0.1470794677734375
-0.5942230224609375,0.7812347412109375,-0.2181549072265625
-0.4241943359375,0.8114471435546875,-0.098297119140625
-0.31243896484375,0.768280029296875,0.0642242431640625
-0.35540771484375,0.7481231689453125,0.1332855224609375
-0.42803955078125,0.819488525390625,-0.0128631591796875
-0.4278564453125,0.9186248779296876,-0.0640411376953125
-0.586334228515625,1.039031982421875,-0.053131103515625
-0.62255859375,0.9993438720703124,-0.061187744140625
-0.538909912109375,0.82171630859375,-0.1230621337890625
-0.5978851318359375,0.9622344970703124,-0.0905609130859375
-0.523773193359375,0.988006591796875,-0.0124053955078125
-0.4745941162109375,0.8182830810546875,0.0852508544921875
-0.5750579833984375,0.81182861328125,0.09039306640625
-0.6035003662109375,0.8448486328125,0.0125579833984375
-0.50048828125,0.7655487060546875,-0.0232086181640625
-0.407806396484375,0.675750732421875,0.0446624755859375
-0.4017486572265625,0.6684722900390625,0.0369415283203125
-0.4812469482421875,0.6982879638671875,0.05096435546875
-0.5858917236328125,0.7050323486328125,0.0478668212890625
-0.7104034423828125,0.75762939453125,0.0948333740234375
-0.7248992919921875,0.744384765625,0.053375244140625
-0.75421142578125,0.8755950927734375,0.005340576171875
-0.7103118896484375,0.9231719970703124,-0.011444091796875
-0.7718048095703125,0.899444580078125,0.0626068115234375
-0.742340087890625,0.940826416015625,0.049102783203125
-0.65606689453125,0.9857940673828124,-0.030853271484375
-0.6014862060546875,0.831329345703125,-0.039947509765625
-0.5540771484375,0.8488922119140625,-0.0262603759765625
-0.5339813232421875,0.96246337890625,-0.0721282958984375
-0.40435791015625,0.9324798583984376,-0.0262451171875
-0.3545379638671875,0.8232269287109375,0.0009002685546875
-0.3413543701171875,0.76678466796875,-0.005950927734375
-0.3910675048828125,0.7417144775390625,0.0308685302734375
-0.453094482421875,0.782806396484375,0.0063934326171875
-0.3946075439453125,0.827972412109375,0.0249481201171875
-0.350494384765625,0.8658599853515625,0.004180908203125
-0.4951019287109375,0.938201904296875,-0.0376129150390625
-0.6232757568359375,1.0306243896484375,-0.0227508544921875
-0.543121337890625,0.98162841796875,0.031494140625
-0.564422607421875,1.0795135498046875,-0.079681396484375
-0.5450439453125,0.9906463623046876,-0.1319427490234375
-0.4937744140625,0.75909423828125,-0.1094512939453125
-0.590728759765625,0.6565399169921875,0.01141357421875
-0.701202392578125,0.7615966796875,0.114471435546875
-0.72833251953125,0.829071044921875,0.132293701171875
-0.576385498046875,0.7549285888671875,0.017791748046875
-0.444915771484375,0.703765869140625,-0.1025390625
-0.459259033203125,0.7169342041015625,-0.06842041015625
-0.4747161865234375,0.727752685546875,0.039764404296875
-0.5270843505859375,0.743743896484375,0.024139404296875
-0.6306304931640625,0.7675323486328125,-0.0065155029296875
-0.6991119384765625,0.859954833984375,0.014801025390625
-0.6746826171875,0.9221954345703124,0.0063629150390625
-0.598358154296875,0.889892578125,0.01361083984375
-0.6634521484375,1.003082275390625,-0.0276031494140625
-0.6572723388671875,1.0770416259765625,-0.053924560546875
-0.6168670654296875,0.9328460693359376,-0.1021881103515625
-0.6347503662109375,0.7641754150390625,-0.0734710693359375
-0.669158935546875,0.8669281005859375,-0.1263427734375
-0.5146484375,0.97857666015625,-0.0942535400390625
-0.436920166015625,0.8409271240234375,-0.094451904296875
-0.4749603271484375,0.7442474365234375,-0.0886993408203125
-0.3911590576171875,0.7498931884765625,-0.072479248046875
-0.380523681640625,0.7354278564453125,-0.063446044921875
-0.428070068359375,0.7288665771484375,0.0058746337890625
-0.45782470703125,0.7716217041015625,0.0201568603515625
-0.4938201904296875,0.8282928466796875,0.022613525390625
-0.5231475830078125,0.94964599609375,0.00213623046875
-0.5723724365234375,0.9380950927734376,-0.025146484375
-0.6661529541015625,0.8477020263671875,-0.0460357666015625
-0.6765594482421875,0.896942138671875,-0.0136566162109375
-0.593719482421875,0.8580169677734375,-0.093505859375
-0.5786895751953125,0.663177490234375,-0.0667266845703125
-0.647064208984375,0.7457122802734375,0.0235137939453125
-0.6788787841796875,0.8101348876953125,0.045654296875
-0.6136322021484375,0.7339630126953125,-0.0331573486328125
-0.5445556640625,0.688201904296875,-0.0143280029296875
-0.526885986328125,0.742523193359375,-0.08349609375
-0.537872314453125,0.7620391845703125,-0.088775634765625
-0.542694091796875,0.7677154541015625,-0.078460693359375
-0.6249237060546875,0.781585693359375,-0.041259765625
-0.6961669921875,0.808807373046875,0.022064208984375
-0.7357940673828125,0.8692169189453125,0.0095367431640625
-0.734100341796875,0.833282470703125,-0.028961181640625
-0.7549285888671875,0.817657470703125,-0.0662689208984375
-0.793121337890625,1.0308380126953125,-0.1418304443359375
-0.6917877197265625,0.9642181396484376,-0.211700439453125
-0.58721923828125,0.9028472900390624,-0.058258056640625
-0.5020599365234375,0.913970947265625,-0.075775146484375
-0.487823486328125,0.9383087158203124,-0.1309356689453125
-0.40643310546875,0.808929443359375,-0.1222991943359375
-0.3453521728515625,0.7187957763671875,-0.1128082275390625
-0.407379150390625,0.7617340087890625,-0.1719207763671875
-0.453338623046875,0.7657012939453125,-0.078826904296875
-0.469512939453125,0.7876739501953125,0.0246124267578125
-0.455810546875,0.7961273193359375,0.0005035400390625
-0.513214111328125,0.91302490234375,0.0388946533203125
-0.5582733154296875,1.031585693359375,0.0356292724609375
-0.4861297607421875,0.9146881103515624,-0.062744140625
-0.5111236572265625,0.9696044921875,-0.0517578125
-0.534637451171875,0.9687957763671876,-0.007598876953125
-0.5018768310546875,0.8943634033203125,-0.002593994140625
-0.5301513671875,0.748443603515625,0.0101776123046875
-0.6232757568359375,0.7774810791015625,0.05963134765625
-0.6237335205078125,0.8474578857421875,0.075775146484375
-0.5420989990234375,0.7478790283203125,0.0174560546875
-0.5240020751953125,0.6857452392578125,0.0092926025390625
-0.55633544921875,0.720794677734375,0.0324554443359375
-0.5855255126953125,0.738494873046875,0.044952392578125
-0.6133880615234375,0.7545623779296875,0.0176849365234375
-0.6346435546875,0.74066162109375,-0.0040130615234375
-0.6662750244140625,0.7859649658203125,0.026641845703125
-0.6956939697265625,0.8646240234375,0.0509490966796875
-0.6944580078125,0.871551513671875,0.0181884765625
-0.7342071533203125,1.0,-0.071685791015625
-0.6601715087890625,1.0272216796875,-0.12347412109375
-0.6244354248046875,0.8804473876953125,-0.1195068359375
-0.69146728515625,0.8803863525390625,-0.0873260498046875
-0.5853271484375,1.0036773681640625,-0.0106658935546875
-0.4142303466796875,0.9490966796875,-0.04364013671875
-0.3718719482421875,0.818328857421875,-0.184417724609375
-0.3474273681640625,0.7705230712890625,-0.1988525390625
-0.4474334716796875,0.7686004638671875,-0.0749969482421875
-0.4827880859375,0.7636566162109375,0.0389251708984375
-0.4467010498046875,0.7810516357421875,0.0425262451171875
-0.45361328125,0.7711639404296875,0.0029754638671875
-0.5142364501953125,0.8760833740234375,0.0593109130859375
-0.5045013427734375,0.9462890625,0.0507965087890625
-0.5679931640625,1.0005645751953125,-0.0055084228515625
-0.5498504638671875,0.9884490966796876,0.013763427734375
-0.5117034912109375,0.9708099365234376,-0.074737548828125
-0.539459228515625,0.86639404296875,-0.107208251953125
-0.5799102783203125,0.72412109375,0.055450439453125
-0.5273895263671875,0.83209228515625,0.0939483642578125
-0.5176239013671875,0.90045166015625,-0.066650390625
-0.534332275390625,0.78631591796875,-0.05548095703125
-0.508636474609375,0.69805908203125,0.08331298828125
-0.53594970703125,0.6623687744140625,0.124114990234375
-0.6356353759765625,0.6890716552734375,0.0936279296875
-0.6913909912109375,0.7400360107421875,0.063323974609375
-0.693328857421875,0.7175140380859375,-0.0001983642578125
-0.7331390380859375,0.814453125,-0.0635223388671875
-0.727569580078125,0.88232421875,-0.0400390625
-0.738739013671875,0.85260009765625,0.0236053466796875
-0.7413330078125,0.9464111328125,-0.0362701416015625
-0.7113800048828125,1.0118865966796875,-0.0472412109375
-0.6831512451171875,0.89776611328125,-0.0839080810546875
-0.666748046875,0.7295989990234375,-0.114166259765625
-0.7258148193359375,0.8310394287109375,-0.099884033203125
-0.61773681640625,1.0229949951171875,-0.07806396484375
-0.4329986572265625,0.975860595703125,-0.131439208984375
-0.4790496826171875,0.838775634765625,-0.1288604736328125
-0.4866180419921875,0.7497100830078125,-0.0797576904296875
-0.41552734375,0.7445068359375,-0.0772705078125
-0.3888702392578125,0.7580718994140625,-0.05804443359375
-0.3892364501953125,0.76263427734375,-0.001007080078125
-0.4365692138671875,0.7970733642578125,0.025665283203125
-0.53228759765625,0.823455810546875,0.0497589111328125
-0.63482666015625,0.910980224609375,0.140716552734375
-0.588104248046875,1.057373046875,0.0591583251953125
-0.5853424072265625,0.8514556884765625,-0.0819244384765625
-0.7588043212890625,0.649810791015625,-0.1254119873046875
-0.707366943359375,0.5652923583984375,0.14404296875
-0.730621337890625,0.772369384765625,0.2160186767578125
-0.8596954345703125,0.901702880859375,0.0733184814453125
-0.8736419677734375,0.810577392578125,0.0072021484375
-0.7678375244140625,0.6671905517578125,-0.0342864990234375
-0.67755126953125,0.6076202392578125,-0.0795135498046875
-0.672882080078125,0.605865478515625,0.0341949462890625
-0.6799468994140625,0.643035888671875,0.095977783203125
-0.7155303955078125,0.70404052734375,0.0335235595703125
-0.6463775634765625,0.7210693359375,0.023681640625
-0.6197052001953125,0.6914825439453125,-0.139556884765625
-0.573577880859375,0.722747802734375,-0.114501953125
-0.545196533203125,0.790679931640625,0.002532958984375
-0.5854644775390625,0.80517578125,-0.0004730224609375
-0.60589599609375,0.832305908203125,-0.049102783203125
-0.779205322265625,1.0174407958984375,-0.092315673828125
-0.5311431884765625,0.8104705810546875,-0.042999267578125
-0.5031280517578125,0.76177978515625,-0.1142730712890625
-0.4110565185546875,0.7352294921875,-0.1327362060546875
-0.542694091796875,0.7920074462890625,-0.1154327392578125
-0.621368408203125,0.7777862548828125,-0.10797119140625
-0.6802978515625,0.775970458984375,-0.198974609375
-0.61199951171875,0.7819976806640625,-0.19512939453125
-0.7291412353515625,0.774993896484375,-0.1646575927734375
-0.7830047607421875,0.732208251953125,-0.2176971435546875
-0.7764892578125,0.7210693359375,-0.1638336181640625
-0.745269775390625,0.733612060546875,-0.06634521484375
-0.7593231201171875,0.739044189453125,-0.09613037109375
-0.780120849609375,0.780609130859375,-0.174102783203125
-0.7261505126953125,0.823333740234375,-0.1594085693359375
-0.67266845703125,0.836456298828125,-0.11553955078125
-0.657623291015625,0.82977294921875,-0.0914764404296875
-0.5988006591796875,0.829254150390625,-0.17864990234375
-0.5715179443359375,0.8121795654296875,-0.1846160888671875
-0.5470428466796875,0.8170623779296875,-0.1492767333984375
-0.4031829833984375,0.8609466552734375,-0.0487518310546875
-0.2915802001953125,0.901153564453125,0.029541015625
-0.399749755859375,0.9167938232421876,-0.0013427734375
-0.481781005859375,1.02410888671875,-0.02447509765625
-0.4139556884765625,0.8756866455078125,-0.068695068359375
-0.3816680908203125,0.7619781494140625,0.0517730712890625
-0.428375244140625,0.898956298828125,0.1479339599609375
-0.4365081787109375,1.0019683837890625,0.165435791015625
-0.4711761474609375,0.950592041015625,0.099761962890625
-0.481170654296875,0.88702392578125,-0.003265380859375
-0.5021209716796875,0.8439788818359375,-0.023681640625
-0.5048370361328125,0.80908203125,0.09613037109375
-0.528656005859375,0.7808685302734375,0.14288330078125
-0.581756591796875,0.796844482421875,0.11822509765625
-0.6381072998046875,0.7891082763671875,0.046722412109375
-0.6872711181640625,0.7441864013671875,0.0587310791015625
-0.6801605224609375,0.73712158203125,0.07769775390625
-0.6795654296875,0.79327392578125,0.0172576904296875
-0.684539794921875,0.8324737548828125,0.0500946044921875
-0.6744842529296875,0.8560791015625,-0.0023193359375
-0.6739349365234375,0.9517822265625,-0.0385284423828125
-0.6386260986328125,0.9849395751953124,-0.0272216796875
-0.5887603759765625,0.8444976806640625,0.0466461181640625
-0.6288909912109375,0.905548095703125,0.1178436279296875
-0.5519866943359375,1.078826904296875,0.0850372314453125
-0.4773101806640625,1.0997772216796875,-0.06292724609375
-0.4263763427734375,1.0302276611328125,-0.138641357421875
-0.27984619140625,0.9597015380859376,-0.0241851806640625
-0.28680419921875,0.9066925048828124,0.00555419921875
-0.4439849853515625,0.8463287353515625,0.0001068115234375
-0.290496826171875,0.8448486328125,0.1237335205078125
-0.273651123046875,0.8387908935546875,0.1081695556640625
-0.5030975341796875,0.85015869140625,-0.005645751953125
-0.581634521484375,0.9031524658203124,0.0622406005859375
-0.5773468017578125,0.938934326171875,0.0937042236328125
-0.6157684326171875,0.9059295654296876,0.025787353515625
-0.6978759765625,0.9596405029296876,-0.0006561279296875
-0.6689910888671875,0.9515838623046876,-0.0391387939453125
-0.60089111328125,0.786712646484375,-0.085357666015625
-0.616363525390625,0.583648681640625,0.0159149169921875
-0.6830902099609375,0.5942840576171875,0.08099365234375
-0.65789794921875,0.7313232421875,0.02740478515625
-0.5682373046875,0.7399139404296875,-0.07025146484375
-0.5724639892578125,0.7006683349609375,-0.0709075927734375
-0.5926513671875,0.6802825927734375,-0.078582763671875
-0.5867919921875,0.6855926513671875,-0.06695556640625
-0.594757080078125,0.69366455078125,-0.028900146484375
-0.66424560546875,0.7379150390625,-0.0399017333984375
-0.79351806640625,0.7479095458984375,0.0039520263671875
-0.76953125,0.81512451171875,-0.0176544189453125
-0.6797027587890625,0.8035888671875,0.0069580078125
-0.7537841796875,0.799560546875,0.042694091796875
-0.83575439453125,0.8906097412109375,-0.0372314453125
-0.88482666015625,0.8648529052734375,-0.074371337890625
-0.840087890625,0.765167236328125,-0.0471038818359375
-0.7326812744140625,0.93701171875,-0.024200439453125
-0.5337677001953125,1.0369720458984375,-0.066650390625
-0.4895172119140625,0.9281463623046876,-0.1726837158203125
-0.37274169921875,0.863037109375,-0.064422607421875
-0.224395751953125,0.8283538818359375,-0.040802001953125
-0.2887115478515625,0.791412353515625,-0.0697021484375
-0.4760284423828125,0.749267578125,-0.03271484375
-0.4305267333984375,0.766082763671875,0.02581787109375
-0.4756622314453125,0.836456298828125,-0.05450439453125
-0.632659912109375,0.9430694580078124,-0.067291259765625
-0.6476287841796875,0.946075439453125,-0.069915771484375
-0.6705169677734375,1.056396484375,-0.0107574462890625
-0.6199188232421875,1.01739501953125,-0.1260223388671875
-0.573974609375,0.8480987548828125,-0.167083740234375
-0.552703857421875,0.639129638671875,-0.1067962646484375
-0.6490325927734375,0.6844635009765625,0.0643463134765625
-0.6710662841796875,0.8200225830078125,0.0608978271484375
-0.613006591796875,0.753082275390625,-0.0724029541015625
-0.5535888671875,0.6807861328125,-0.089385986328125
-0.5285186767578125,0.6605987548828125,-0.0096588134765625
-0.521697998046875,0.6558074951171875,0.0654144287109375
-0.538238525390625,0.6804351806640625,0.0958404541015625
-0.6728973388671875,0.749969482421875,0.01104736328125
-0.7008819580078125,0.82135009765625,-0.0151214599609375
-0.723388671875,0.8370513916015625,-0.0336761474609375
-0.6875457763671875,0.827911376953125,0.04052734375
-0.715179443359375,0.8046722412109375,0.0218048095703125
-0.7267608642578125,0.9429473876953124,-0.0323638916015625
-0.7905426025390625,0.9839935302734376,-0.087310791015625
-0.8060150146484375,0.7970733642578125,-0.05889892578125
-0.742156982421875,0.7880096435546875,0.0413360595703125
-0.603973388671875,0.9174041748046876,-0.015594482421875
-0.594757080078125,0.981658935546875,-0.1415863037109375
-0.5013885498046875,0.8962249755859375,-0.0914154052734375
-0.3084716796875,0.792572021484375,0.0017852783203125
-0.377685546875,0.7147064208984375,-0.018096923828125
-0.537872314453125,0.7082061767578125,-0.04205322265625
-0.5027618408203125,0.68408203125,-0.056549072265625
-0.45025634765625,0.726959228515625,-0.0512847900390625
-0.5137176513671875,0.828125,-0.0222930908203125
-0.5793914794921875,0.912322998046875,-0.043365478515625
-0.62750244140625,0.9102020263671876,-0.0971832275390625
-0.660064697265625,0.88397216796875,-0.0919189453125
-0.6080780029296875,0.9734039306640624,-0.137481689453125
-0.620880126953125,0.990386962890625,-0.1707611083984375
-0.54888916015625,0.6690216064453125,-0.0902252197265625
-0.66754150390625,0.60009765625,-0.0272216796875
-0.7303009033203125,0.683807373046875,-0.01715087890625
-0.6452178955078125,0.7161865234375,0.0044097900390625
-0.5756378173828125,0.71490478515625,-0.053314208984375
-0.5889129638671875,0.7786102294921875,-0.109405517578125
-0.61492919921875,0.73248291015625,-0.0390472412109375
-0.5955963134765625,0.6939697265625,-0.0351409912109375
-0.643646240234375,0.7075653076171875,-0.0622100830078125
-0.72174072265625,0.76507568359375,-0.03582763671875
-0.7402496337890625,0.8312225341796875,-0.03515625
-0.728424072265625,0.8191070556640625,-0.0484771728515625
-0.701629638671875,0.78350830078125,-0.02581787109375
-0.748870849609375,0.8899383544921875,-0.0683441162109375
-0.7490997314453125,0.896820068359375,-0.1581573486328125
-0.7397003173828125,0.799346923828125,-0.1013031005859375
-0.562164306640625,0.8189544677734375,-0.0832672119140625
-0.485107421875,0.9034423828125,-0.16766357421875
-0.48101806640625,0.871795654296875,-0.1786956787109375
-0.4037628173828125,0.776336669921875,-0.0887908935546875
-0.3593292236328125,0.7307586669921875,-0.09796142578125
-0.4310150146484375,0.7252044677734375,-0.090484619140625
-0.5140380859375,0.7220306396484375,-0.116607666015625
-0.56866455078125,0.7457122802734375,-0.0545654296875
-0.519012451171875,0.817840576171875,0.0052642822265625
-0.54473876953125,0.8922882080078125,-0.0379638671875
-0.602508544921875,0.944854736328125,-0.061492919921875
-0.5721435546875,0.8974456787109375,-0.05059814453125
-0.6152801513671875,0.962554931640625,-0.056182861328125
-0.6162261962890625,0.9842071533203124,-0.0814361572265625
-0.588775634765625,0.8373565673828125,-0.1726226806640625
-0.6533050537109375,0.6304473876953125,-0.097900390625
-0.663848876953125,0.6580963134765625,-0.038787841796875
-0.583526611328125,0.795501708984375,-0.0489349365234375
-0.5538787841796875,0.7717132568359375,-0.1097869873046875
-0.51141357421875,0.75152587890625,-0.0772552490234375
-0.50115966796875,0.740997314453125,-0.071685791015625
-0.5601654052734375,0.7077178955078125,-0.1138458251953125
-0.5966949462890625,0.725311279296875,-0.153656005859375
-0.69610595703125,0.721282958984375,-0.0479888916015625
-0.753143310546875,0.7498931884765625,-0.0057525634765625
-0.7649383544921875,0.8072662353515625,-0.0619354248046875
-0.755615234375,0.859283447265625,-0.0521087646484375
-0.8337249755859375,0.8724365234375,-0.0858612060546875
-0.809783935546875,0.909271240234375,-0.102020263671875
-0.7680511474609375,0.9312286376953124,-0.046844482421875
-0.68304443359375,0.8594970703125,-0.0496978759765625
-0.5618438720703125,0.94940185546875,-0.0821380615234375
-0.441009521484375,1.01055908203125,-0.1169281005859375
-0.4142303466796875,0.924560546875,-0.07659912109375
-0.31488037109375,0.7822113037109375,-0.039642333984375
-0.2643585205078125,0.750396728515625,-0.2087249755859375
-0.2686614990234375,0.741119384765625,-0.115478515625
-0.345367431640625,0.7455596923828125,0.0356292724609375
-0.4490966796875,0.7685089111328125,-0.055389404296875
-0.5307769775390625,0.8135833740234375,-0.1133880615234375
-0.6340484619140625,0.880889892578125,-0.1174774169921875
-0.6511383056640625,0.9108428955078124,-0.0803070068359375
-0.6700897216796875,0.867034912109375,-0.0530242919921875
-0.7447509765625,0.91552734375,-0.0321502685546875
-0.7671356201171875,0.9839935302734376,-0.0413665771484375
-0.7179412841796875,0.8415679931640625,-0.0731353759765625
-0.571014404296875,0.5755157470703125,-0.0595245361328125
-0.5748443603515625,0.6470947265625,0.04144287109375
-0.594207763671875,0.8251190185546875,0.0397186279296875
-0.5775604248046875,0.833251953125,-0.0628509521484375
-0.46942138671875,0.750396728515625,-0.0964202880859375
-0.4449005126953125,0.7040863037109375,-0.108123779296875
-0.4952392578125,0.6989593505859375,-0.03741455078125
-0.5796966552734375,0.725555419921875,0.0007476806640625
-0.6085968017578125,0.7395477294921875,-0.0303497314453125
-0.6874237060546875,0.7625274658203125,-0.07904052734375
-0.762847900390625,0.85321044921875,-0.1070098876953125
-0.7230377197265625,0.9089813232421876,-0.02508544921875
-0.690643310546875,0.8619384765625,-0.0162811279296875
-0.700439453125,0.982666015625,-0.0444793701171875
-0.646728515625,1.1058197021484375,-0.0522003173828125
-0.5162506103515625,0.8772430419921875,-0.093597412109375
-0.50738525390625,0.7943115234375,-0.059112548828125
-0.448974609375,0.907257080078125,0.0461883544921875
-0.3619232177734375,0.962127685546875,-0.00244140625
-0.356719970703125,0.8878173828125,-0.1693115234375
-0.302154541015625,0.847564697265625,-0.1047821044921875
-0.2589263916015625,0.8427581787109375,-0.018280029296875
-0.33282470703125,0.8056488037109375,0.0660552978515625
-0.4163665771484375,0.803619384765625,-0.0569000244140625
-0.4387054443359375,0.8539276123046875,-0.1119842529296875
-0.4467010498046875,0.9445953369140624,-0.1342926025390625
-0.5639801025390625,1.0345458984375,-0.2000732421875
-0.5907135009765625,0.977081298828125,-0.3216400146484375
-0.5036468505859375,0.925689697265625,-0.271820068359375
-0.496551513671875,0.9606475830078124,-0.17987060546875
-0.5764007568359375,0.8704681396484375,-0.20501708984375
-0.532989501953125,0.7163848876953125,-0.2418975830078125
-0.5461578369140625,0.7451324462890625,-0.1556243896484375
-0.603057861328125,0.8713836669921875,-0.1609344482421875
-0.6019439697265625,0.9012451171875,-0.128387451171875
-0.5650482177734375,0.7818603515625,-0.0933685302734375
-0.5057525634765625,0.70068359375,0.0435028076171875
-0.44134521484375,0.6875457763671875,0.13592529296875
-0.504241943359375,0.7446136474609375,0.069549560546875
-0.5352935791015625,0.8210601806640625,0.0182342529296875
-0.6284027099609375,0.8510589599609375,0.0643768310546875
-0.6974945068359375,0.9083404541015624,0.0376739501953125
-0.7323150634765625,0.924957275390625,-0.019622802734375
-0.6886749267578125,0.862457275390625,0.0146942138671875
-0.6926727294921875,0.8958587646484375,-0.0109405517578125
-0.68524169921875,0.999298095703125,-0.0960693359375
-0.639068603515625,0.9513702392578124,-0.1933135986328125
-0.5626373291015625,0.7980499267578125,-0.2294464111328125
-0.5409698486328125,0.8176116943359375,-0.229217529296875
-0.5646820068359375,0.8922576904296875,-0.171112060546875
-0.435546875,0.8949432373046875,-0.136444091796875
-0.3790740966796875,0.8541717529296875,-0.1669464111328125
-0.45806884765625,0.78076171875,-0.2489166259765625
-0.5114593505859375,0.727325439453125,-0.1674957275390625
-0.448089599609375,0.7257843017578125,-0.03515625
-0.3962249755859375,0.7673492431640625,-0.0295562744140625
-0.4366912841796875,0.8578338623046875,-0.047088623046875
-0.5087432861328125,0.9127197265625,-0.0458831787109375
-0.5532073974609375,0.9153594970703124,-0.0766448974609375
-0.5401458740234375,0.8613433837890625,-0.060791015625
-0.603515625,1.0643463134765625,-0.0749664306640625
-0.5027008056640625,0.955078125,-0.197784423828125
-0.5217132568359375,0.7418975830078125,-0.1879425048828125
-0.6225738525390625,0.797576904296875,-0.06378173828125
-0.7088623046875,0.84027099609375,0.021697998046875
-0.615203857421875,0.7364654541015625,0.0080718994140625
-0.4566192626953125,0.6836395263671875,-0.00958251953125
-0.4360198974609375,0.6762847900390625,-0.0017547607421875
-0.522491455078125,0.7120819091796875,-0.053375244140625
-0.610565185546875,0.74981689453125,-0.040863037109375
-0.6898040771484375,0.7762298583984375,-0.0453033447265625
-0.7912445068359375,0.793701171875,-0.0968780517578125
-0.83026123046875,0.8515625,-0.137725830078125
-0.7352142333984375,0.8910675048828125,-0.0412139892578125
-0.7070770263671875,0.8914642333984375,0.0026397705078125
-0.6767120361328125,0.9439849853515624,-0.044189453125
-0.6696014404296875,0.941253662109375,-0.125732421875
-0.6795806884765625,0.800811767578125,-0.0885162353515625
-0.5999908447265625,0.863861083984375,-0.0707855224609375
-0.5550994873046875,0.9869537353515624,-0.117156982421875
-0.496856689453125,0.9722747802734376,-0.1475677490234375
-0.4211273193359375,0.8478546142578125,-0.1027679443359375
-0.46221923828125,0.7920379638671875,-0.1395721435546875
-0.4758148193359375,0.7766876220703125,-0.0848236083984375
-0.392364501953125,0.78521728515625,-0.00372314453125
-0.345794677734375,0.7669677734375,-0.05035400390625
-0.390411376953125,0.792816162109375,-0.0921478271484375
-0.456298828125,0.844207763671875,-0.050872802734375
-0.521728515625,0.8706207275390625,-0.0064697265625
-0.561492919921875,0.8817291259765625,-0.0416107177734375
-0.5928497314453125,1.001861572265625,-0.060546875
-0.6634674072265625,1.0048065185546875,-0.112945556640625
-0.6312713623046875,0.8129730224609375,-0.123931884765625
-0.693328857421875,0.5902252197265625,-0.0730133056640625
-0.746368408203125,0.64666748046875,0.0164337158203125
-0.7407379150390625,0.8099822998046875,0.0157470703125
-0.709381103515625,0.8094482421875,-0.0958404541015625
-0.6233367919921875,0.7216033935546875,-0.1254730224609375
-0.5565338134765625,0.67535400390625,-0.1359100341796875
-0.550628662109375,0.6776275634765625,-0.079254150390625
-0.5475616455078125,0.677215576171875,-0.056182861328125
-0.5702056884765625,0.662384033203125,-0.0537872314453125
-0.66888427734375,0.7502593994140625,-0.0663604736328125
-0.749237060546875,0.8354949951171875,-0.0372772216796875
-0.7974395751953125,0.8325347900390625,-0.0821990966796875
-0.8455352783203125,0.8854217529296875,-0.1446990966796875
-0.8021697998046875,0.9225616455078124,-0.1749114990234375
-0.7213592529296875,0.926483154296875,-0.222320556640625
-0.6321563720703125,0.74517822265625,-0.255767822265625
-0.6355743408203125,0.8108062744140625,-0.1345977783203125
-0.5572052001953125,0.980987548828125,-0.1748046875
-0.4052276611328125,0.9029388427734376,-0.2294158935546875
-0.4613037109375,0.7704315185546875,-0.2780303955078125
-0.5135650634765625,0.7444915771484375,-0.2707061767578125
-0.4820556640625,0.7572479248046875,-0.1894073486328125
-0.442535400390625,0.7606658935546875,-0.136993408203125
-0.432769775390625,0.7702789306640625,-0.116363525390625
-0.50103759765625,0.8055419921875,-0.1365203857421875
-0.5378875732421875,0.795989990234375,-0.1011962890625
-0.58697509765625,0.8105316162109375,-0.100799560546875
-0.634979248046875,0.94525146484375,-0.0914154052734375
-0.611358642578125,0.8798980712890625,-0.0555877685546875
-0.6351318359375,0.7342987060546875,-0.0290679931640625
-0.652557373046875,0.6540374755859375,0.027618408203125
-0.65582275390625,0.623626708984375,0.13287353515625
-0.7015838623046875,0.7367706298828125,0.07269287109375
-0.757720947265625,0.8922119140625,-0.0260009765625
-0.8004302978515625,0.863739013671875,-0.0725250244140625
-0.7915802001953125,0.74127197265625,-0.093719482421875
-0.6956329345703125,0.69049072265625,-0.1528778076171875
-0.5672760009765625,0.7528076171875,-0.1519622802734375
-0.5188140869140625,0.81134033203125,-0.1281890869140625
-0.496734619140625,0.8179779052734375,-0.0921630859375
-0.464080810546875,0.7981719970703125,-0.143218994140625
-0.43280029296875,0.7653350830078125,-0.2311859130859375
-0.4615325927734375,0.7509307861328125,-0.20550537109375
-0.4639434814453125,0.8653106689453125,-0.16143798828125
-0.4786376953125,0.973663330078125,-0.1962432861328125
-0.5550689697265625,0.9610443115234376,-0.215057373046875
-0.54656982421875,0.869720458984375,-0.143951416015625
-0.54425048828125,0.8145904541015625,-0.1383209228515625
-0.522186279296875,0.8404998779296875,-0.1555328369140625
-0.5233001708984375,0.8634185791015625,-0.2535400390625
-0.541900634765625,0.8471832275390625,-0.28204345703125
-0.5345001220703125,0.812225341796875,-0.1906585693359375
-0.51507568359375,0.7727813720703125,-0.1317596435546875
-0.5087432861328125,0.7650146484375,-0.1472625732421875
-0.5095062255859375,0.8060150146484375,-0.211395263671875
-0.5424652099609375,0.8448944091796875,-0.1983642578125
-0.6671600341796875,0.8931121826171875,-0.13006591796875
-0.66180419921875,0.8596038818359375,-0.09295654296875
-0.662933349609375,0.7944488525390625,-0.1135101318359375
-0.63275146484375,0.8242950439453125,-0.162933349609375
-0.54705810546875,0.854339599609375,-0.1435546875
-0.484893798828125,0.8189697265625,-0.1414794921875
-0.4801025390625,0.82073974609375,-0.083160400390625
-0.4839935302734375,0.8344268798828125,-0.0691375732421875
-0.43597412109375,0.8146514892578125,-0.066802978515625
-0.456817626953125,0.81024169921875,0.01959228515625
-0.49005126953125,0.853179931640625,0.036773681640625
-0.5280609130859375,0.826141357421875,0.0023345947265625
-0.597381591796875,0.81463623046875,-0.0035552978515625
-0.620574951171875,0.9142913818359376,0.0407562255859375
-0.6451873779296875,0.9392242431640624,0.0554046630859375
-0.5861968994140625,0.91778564453125,-0.0152740478515625
-0.54730224609375,0.7811737060546875,-0.063873291015625
-0.510528564453125,0.7697296142578125,-0.0288543701171875
-0.4893951416015625,0.9169921875,-0.0352935791015625
-0.4600067138671875,0.8592987060546875,-0.0594940185546875
-0.4898529052734375,0.82763671875,0.0080718994140625
-0.5864105224609375,0.8267364501953125,-0.0526123046875
-0.7175750732421875,0.8816070556640625,-0.047454833984375
-0.5747528076171875,0.72637939453125,-0.0363616943359375
-0.6608734130859375,0.7132720947265625,0.0162506103515625
-0.7012786865234375,0.6813201904296875,0.043182373046875
-0.7078704833984375,0.688140869140625,0.081207275390625
-0.6985626220703125,0.7373046875,0.030670166015625
-0.700714111328125,0.7657012939453125,0.0137176513671875
-0.7406768798828125,0.8083648681640625,0.0267181396484375
-0.67913818359375,0.769134521484375,0.014556884765625
-0.6968536376953125,0.8117218017578125,-0.0528564453125
-0.741241455078125,0.9103240966796876,-0.07415771484375
-0.6975860595703125,0.9360504150390624,-0.0590057373046875
-0.653289794921875,0.8018798828125,-0.138153076171875
-0.5627593994140625,0.84710693359375,-0.0877838134765625
-0.395965576171875,1.0072479248046875,-0.0650177001953125
-0.5639190673828125,1.03900146484375,-0.1038360595703125
-0.5480499267578125,0.8988494873046875,-0.09716796875
-0.447662353515625,0.7955474853515625,-0.097564697265625
-0.4830780029296875,0.74212646484375,-0.0567626953125
-0.46435546875,0.7148284912109375,0.0643310546875
-0.39202880859375,0.7335662841796875,0.024749755859375
-0.395050048828125,0.7151336669921875,-0.037445068359375
-0.4658203125,0.7793121337890625,-0.036865234375
-0.5342254638671875,0.86669921875,0.0223846435546875
-0.5527191162109375,0.919647216796875,-0.031494140625
-0.6370849609375,1.007598876953125,-0.081024169921875
-0.721435546875,1.155303955078125,-0.084381103515625
-0.62945556640625,0.989044189453125,-0.1736602783203125
-0.571258544921875,0.7358551025390625,-0.1399688720703125
-0.6425933837890625,0.616058349609375,-0.0206146240234375
-0.630340576171875,0.59478759765625,-0.003753662109375
-0.566558837890625,0.6388397216796875,-0.018341064453125
-0.5277557373046875,0.7408447265625,0.0223846435546875
-0.5118560791015625,0.763275146484375,0.0206756591796875
-0.52020263671875,0.743804931640625,-0.1475677490234375
-0.5498809814453125,0.716461181640625,-0.135650634765625
-0.5858306884765625,0.7325439453125,-0.0269927978515625
-0.658843994140625,0.765533447265625,-0.03533935546875
-0.6926116943359375,0.8171539306640625,-0.0478515625
-0.668487548828125,0.8243560791015625,0.01165771484375
-0.6822357177734375,0.8359527587890625,0.00897216796875
-0.748992919921875,0.7985992431640625,-0.076995849609375
-0.6932830810546875,0.85504150390625,-0.095947265625
-0.7421722412109375,0.9541778564453124,-0.085968017578125
-0.7214813232421875,0.9245758056640624,-0.1157989501953125
-0.6182708740234375,0.86346435546875,-0.160003662109375
-0.5470428466796875,0.9178924560546876,-0.15509033203125
-0.59747314453125,0.9266204833984376,-0.242889404296875
-0.4322662353515625,0.862274169921875,-0.048187255859375
-0.2413787841796875,0.7884368896484375,0.0036468505859375
-0.3741302490234375,0.6890869140625,-0.0312652587890625
-0.513519287109375,0.665252685546875,-0.0384674072265625
-0.43035888671875,0.7430267333984375,-0.0218505859375
-0.483642578125,0.8312530517578125,-0.06805419921875
-0.6265869140625,0.9085235595703124,-0.049560546875
-0.6995697021484375,0.948516845703125,-0.0984344482421875
-0.714874267578125,0.880767822265625,-0.1287078857421875
-0.76904296875,0.913787841796875,-0.085357666015625
-0.71685791015625,0.875335693359375,-0.1301422119140625
-0.5996856689453125,0.6636962890625,-0.1188812255859375
-0.6015625,0.5072784423828125,0.0332489013671875
-0.6555938720703125,0.601043701171875,0.09222412109375
-0.690093994140625,0.7220611572265625,0.0351715087890625
-0.6336669921875,0.704864501953125,-0.0810394287109375
-0.5873260498046875,0.7041168212890625,-0.1285552978515625
-0.5659332275390625,0.72235107421875,-0.0775909423828125
-0.5238189697265625,0.7110748291015625,-0.031219482421875
-0.53802490234375,0.7084197998046875,-0.111297607421875
-0.6843109130859375,0.765411376953125,-0.15423583984375
-0.8148193359375,0.8272552490234375,-0.0467681884765625
-0.832733154296875,0.8037872314453125,0.0035858154296875
-0.82025146484375,0.743408203125,0.0455474853515625
-0.9414520263671876,0.82305908203125,-0.0795745849609375
-0.9353790283203124,0.8912353515625,-0.10162353515625
-0.81573486328125,0.836822509765625,-0.1431121826171875
-0.640899658203125,0.6331939697265625,-0.2568511962890625
-0.564300537109375,0.7685546875,-0.352752685546875
-0.48846435546875,0.8826141357421875,-0.306396484375
-0.46282958984375,0.7848052978515625,-0.2046356201171875
-0.462249755859375,0.714385986328125,-0.2099609375
-0.43682861328125,0.7320404052734375,-0.182159423828125
-0.4719390869140625,0.7349090576171875,-0.10626220703125
-0.5328369140625,0.72991943359375,-0.046142578125
-0.5912933349609375,0.7574920654296875,-0.0705413818359375
-0.6528472900390625,0.8849639892578125,-0.082122802734375
-0.697540283203125,0.9685821533203124,-0.1066131591796875
-0.6752166748046875,0.8952484130859375,-0.1118621826171875
-0.6480712890625,0.85687255859375,-0.021575927734375
-0.624053955078125,0.931427001953125,0.0103302001953125
-0.545257568359375,0.7888336181640625,0.0081024169921875
-0.5624542236328125,0.581634521484375,0.072052001953125
-0.706634521484375,0.675811767578125,0.103668212890625
-0.84619140625,0.811798095703125,0.0914306640625
-0.6923065185546875,0.7707977294921875,-0.0174560546875
-0.5426788330078125,0.6652374267578125,-0.0952606201171875
-0.49627685546875,0.680877685546875,-0.1092071533203125
-0.55523681640625,0.6835174560546875,0.0004730224609375
-0.5595245361328125,0.6897735595703125,0.039947509765625
-0.5990753173828125,0.7257232666015625,-0.1117706298828125
-0.6903839111328125,0.763580322265625,-0.1862030029296875
-0.7618408203125,0.79083251953125,-0.1693115234375
-0.7368927001953125,0.7778167724609375,-0.0240478515625
-0.7633056640625,0.7701873779296875,0.0116424560546875
-0.79034423828125,0.942047119140625,-0.071746826171875
-0.77716064453125,0.9841156005859376,-0.107818603515625
-0.7217559814453125,0.8257293701171875,-0.0804595947265625
-0.574859619140625,0.88525390625,-0.0852813720703125
-0.45489501953125,0.9626922607421876,-0.0798187255859375
-0.4503631591796875,0.93206787109375,-0.0729522705078125
-0.35595703125,0.825531005859375,-0.0878753662109375
-0.3558502197265625,0.7393341064453125,-0.177978515625
-0.530487060546875,0.7365875244140625,-0.162750244140625
-0.589691162109375,0.7274627685546875,-0.0203399658203125
-0.5263214111328125,0.7672119140625,0.002532958984375
-0.515594482421875,0.78582763671875,-0.0851898193359375
-0.6126556396484375,0.817352294921875,-0.1047515869140625
-0.67431640625,0.9132232666015624,-0.0273284912109375
-0.5823974609375,0.88519287109375,0.01239013671875
-0.573455810546875,0.9423065185546876,-0.0257720947265625
-0.5328369140625,0.943023681640625,-0.1851806640625
-0.5078582763671875,0.928741455078125,-0.231170654296875
-0.4742431640625,0.7086944580078125,-0.1456451416015625
-0.6026611328125,0.6511993408203125,0.01043701171875
-0.7138824462890625,0.749603271484375,-0.0217437744140625
-0.6488800048828125,0.7819671630859375,-0.1237945556640625
-0.6011199951171875,0.7012176513671875,-0.1811676025390625
-0.56658935546875,0.6665496826171875,-0.0644073486328125
-0.57989501953125,0.6432037353515625,-0.0159149169921875
-0.595550537109375,0.6533660888671875,-0.0039215087890625
-0.64569091796875,0.7352752685546875,-0.0768280029296875
-0.731109619140625,0.772705078125,-0.0972900390625
-0.7796630859375,0.7960052490234375,-0.0601806640625
-0.772552490234375,0.818328857421875,-0.03240966796875
-0.7327728271484375,0.801116943359375,-0.0109405517578125
-0.658355712890625,0.7784271240234375,0.0325927734375
-0.6886138916015625,0.9005126953125,-0.00146484375
-0.780792236328125,0.9367218017578124,-0.0566253662109375
-0.7789459228515625,0.7641754150390625,0.035491943359375
-0.70843505859375,0.856414794921875,0.0358123779296875
-0.665496826171875,0.9838104248046876,-0.0392303466796875
-0.7357635498046875,0.9844512939453124,-0.08612060546875
-0.5828399658203125,0.87371826171875,-0.019439697265625
-0.444488525390625,0.7714080810546875,0.0012969970703125
-0.466033935546875,0.6766815185546875,0.0635986328125
-0.4944000244140625,0.62713623046875,0.10858154296875
-0.5211334228515625,0.6528472900390625,0.0172271728515625
-0.5020904541015625,0.6931304931640625,-0.0402374267578125
-0.5279083251953125,0.7355804443359375,-0.0761566162109375
-0.6067352294921875,0.806427001953125,-0.0925445556640625
-0.6638946533203125,0.8917694091796875,-0.1780242919921875
-0.6657257080078125,0.8749542236328125,-0.2673797607421875
-0.663848876953125,0.9415740966796876,-0.2686309814453125
-0.76812744140625,0.9999237060546876,-0.2290802001953125
-0.690093994140625,0.8592987060546875,-0.1771240234375
-0.5088348388671875,0.62652587890625,-0.131622314453125
-0.583831787109375,0.660614013671875,-0.0648651123046875
-0.595794677734375,0.7944793701171875,-0.08148193359375
-0.547637939453125,0.8648529052734375,-0.137786865234375
-0.5392303466796875,0.7763519287109375,-0.0973358154296875
-0.5533447265625,0.6938323974609375,-0.0466156005859375
-0.592254638671875,0.64093017578125,-0.042694091796875
-0.6453857421875,0.63336181640625,0.0015106201171875
-0.725860595703125,0.6752166748046875,0.0086669921875
-0.832489013671875,0.7511138916015625,0.009307861328125
-0.879425048828125,0.7803497314453125,-0.00689697265625
-0.905426025390625,0.7508544921875,-0.0720672607421875
-0.837615966796875,0.760528564453125,-0.031402587890625
-0.802215576171875,0.8300018310546875,-0.0034942626953125
-0.715423583984375,0.87554931640625,-0.0076751708984375
-0.717010498046875,0.89398193359375,-0.051116943359375
-0.7253570556640625,0.8568572998046875,-0.1145477294921875
-0.6165618896484375,0.7845001220703125,-0.0556488037109375
-0.5770263671875,0.87542724609375,-0.0769500732421875
-0.539306640625,0.962860107421875,-0.11090087890625
-0.5318450927734375,0.90191650390625,-0.14202880859375
-0.4678955078125,0.8016204833984375,-0.0785980224609375
-0.466796875,0.77166748046875,-0.08551025390625
-0.517822265625,0.7506866455078125,-0.0841217041015625
-0.5429229736328125,0.71221923828125,-0.086639404296875
-0.554046630859375,0.7106475830078125,-0.0812225341796875
-0.547515869140625,0.737548828125,-0.0389404296875
-0.5764923095703125,0.7846527099609375,0.002685546875
-0.6170501708984375,0.815399169921875,0.02288818359375
-0.6550445556640625,0.86383056640625,0.019989013671875
-0.6678619384765625,0.9779052734375,-0.0295867919921875
-0.672637939453125,1.0031890869140625,-0.126800537109375
-0.613494873046875,0.814544677734375,-0.223175048828125
-0.667938232421875,0.5615692138671875,-0.09100341796875
-0.720733642578125,0.6037139892578125,0.0161590576171875
-0.64862060546875,0.777069091796875,-0.0098419189453125
-0.628662109375,0.7768096923828125,-0.08404541015625
-0.6513824462890625,0.69769287109375,-0.1409912109375
-0.647125244140625,0.6503448486328125,-0.11102294921875
-0.6683349609375,0.6518402099609375,-0.064239501953125
-0.7206878662109375,0.64617919921875,-0.0431365966796875
-0.6886749267578125,0.6439666748046875,-0.0758514404296875
-0.6597442626953125,0.666412353515625,-0.0916595458984375
-0.774871826171875,0.776885986328125,-0.06829833984375
-0.857452392578125,0.8047637939453125,0.0464324951171875
-0.8448333740234375,0.79901123046875,0.0372314453125
-0.880767822265625,0.9511871337890624,-0.0825347900390625
-0.8387908935546875,0.9739227294921876,-0.140289306640625
-0.7006683349609375,0.76849365234375,-0.2118377685546875
-0.68505859375,0.6531219482421875,-0.1578369140625
-0.65771484375,0.790191650390625,-0.0474395751953125
-0.536895751953125,0.8382110595703125,-0.0567474365234375
-0.4753570556640625,0.73895263671875,-0.0859375
-0.5082550048828125,0.670989990234375,-0.07354736328125
-0.4949951171875,0.62347412109375,-0.0863189697265625
-0.505950927734375,0.6328277587890625,-0.0388336181640625
-0.5297698974609375,0.674896240234375,-0.0289154052734375
-0.580413818359375,0.7387847900390625,-0.0624237060546875
-0.6566162109375,0.7704315185546875,0.0298919677734375
-0.69610595703125,0.812957763671875,0.0889129638671875
-0.689453125,0.87322998046875,-0.0039520263671875
-0.7388763427734375,0.9403839111328124,-0.070068359375
-0.7516937255859375,1.0107574462890625,-0.1141357421875
-0.7534332275390625,0.6962432861328125,-0.008880615234375
-0.78936767578125,0.514892578125,0.149810791015625
-0.7450714111328125,0.622711181640625,0.1039886474609375
-0.7198944091796875,0.74407958984375,-0.06219482421875
-0.731475830078125,0.7239990234375,-0.15777587890625
-0.7720947265625,0.68408203125,-0.1234588623046875
-0.75494384765625,0.668670654296875,-0.07806396484375
-0.701934814453125,0.675201416015625,-0.0746917724609375
-0.6314697265625,0.6793212890625,-0.0684661865234375
-0.6358184814453125,0.708251953125,-0.065704345703125
-0.6696014404296875,0.7510223388671875,-0.082427978515625
-0.6748046875,0.768310546875,-0.1291351318359375
-0.6874237060546875,0.812591552734375,-0.15924072265625
-0.722137451171875,0.8732147216796875,-0.154083251953125
-0.7555084228515625,0.950042724609375,-0.1929473876953125
-0.760894775390625,0.9386444091796876,-0.1905059814453125
-0.6811676025390625,0.7400970458984375,-0.1110992431640625
-0.653839111328125,0.7115936279296875,-0.1142730712890625
-0.579925537109375,0.8102569580078125,-0.1483001708984375
-0.4721527099609375,0.8125457763671875,-0.1925201416015625
-0.4585723876953125,0.6995086669921875,-0.1953582763671875
-0.5063018798828125,0.7058258056640625,-0.2169952392578125
-0.5540771484375,0.7503204345703125,-0.1561279296875
-0.652984619140625,0.75335693359375,-0.1538238525390625
-0.6844940185546875,0.7277374267578125,-0.1323089599609375
-0.66912841796875,0.8221588134765625,-0.213348388671875
-0.599945068359375,0.9149932861328124,-0.16400146484375
-0.5490570068359375,0.89947509765625,-0.0908203125
-0.5304107666015625,0.8795013427734375,-0.022308349609375
-0.4700775146484375,0.8856658935546875,0.07275390625
-0.4891510009765625,0.88671875,0.0618133544921875
-0.51214599609375,0.7714385986328125,0.1160125732421875
-0.52020263671875,0.661834716796875,0.19866943359375
-0.608123779296875,0.7482147216796875,0.13690185546875
-0.745391845703125,0.88519287109375,0.0669097900390625
-0.807159423828125,0.805877685546875,0.0546875
-0.826568603515625,0.716522216796875,0.0253448486328125
-0.8236083984375,0.6737060546875,-0.0063323974609375
-0.7142333984375,0.637939453125,-0.0061187744140625
-0.6554107666015625,0.6144866943359375,-0.0255584716796875
-0.621124267578125,0.628082275390625,-0.04449462890625
-0.5616302490234375,0.58013916015625,-0.08294677734375
-0.5352783203125,0.4888458251953125,-0.0285186767578125
-0.559600830078125,0.4920806884765625,0.00897216796875
-0.4886932373046875,0.4600067138671875,0.0824432373046875
-0.4015960693359375,0.3710784912109375,0.0454864501953125
-0.4930572509765625,0.37200927734375,-0.027801513671875
-0.6893157958984375,0.5423126220703125,-0.0413360595703125
-1.07354736328125,1.22052001953125,-0.0654144287109375
-1.380950927734375,1.8858642578125,-0.1489105224609375
-1.2367095947265625,1.9936981201171875,-0.1822662353515625
-0.7326812744140625,1.6170196533203125,-0.2210540771484375
-0.253814697265625,1.0374603271484375,-0.2044677734375
-0.0840606689453125,0.63580322265625,-0.1336212158203125
-0.0704498291015625,0.37884521484375,0.0767669677734375
-0.1644439697265625,0.21893310546875,0.29736328125
-0.22320556640625,0.187774658203125,0.30841064453125
-0.2489013671875,0.2410736083984375,0.3276824951171875
-0.34515380859375,0.32098388671875,0.2700958251953125
-0.4847564697265625,0.4284515380859375,0.1336517333984375
-0.573486328125,0.6857757568359375,0.01898193359375
-0.989776611328125,1.6043243408203125,-0.1311187744140625
-1.45947265625,2.157806396484375,-0.3421630859375
-1.422393798828125,1.4722442626953125,-0.4040374755859375
-1.165740966796875,1.1072235107421875,0.133392333984375
-0.7253875732421875,0.81829833984375,0.6427764892578125
-0.515228271484375,0.44134521484375,0.429229736328125
-0.4072113037109375,0.26324462890625,0.04962158203125
-0.3480377197265625,0.2124786376953125,-0.1043853759765625
-0.3075408935546875,0.16552734375,-0.051239013671875
-0.3151092529296875,0.1428375244140625,0.033355712890625
-0.3293914794921875,0.241851806640625,0.0855712890625
-0.2630767822265625,0.3862152099609375,-0.0533599853515625
-0.2818756103515625,0.630096435546875,-0.1483917236328125
-0.7153472900390625,1.262603759765625,-0.0413818359375
-1.3377227783203125,1.8444976806640625,0.048370361328125
-1.5221405029296875,1.9287872314453125,-0.1334381103515625
-1.2754364013671875,1.6007080078125,-0.3729400634765625
-0.72998046875,1.3553924560546875,-0.2228851318359375
-0.341064453125,0.86541748046875,-0.0366668701171875
-0.4058990478515625,0.46881103515625,0.0578765869140625
-0.24462890625,0.2232513427734375,0.319488525390625
-0.25506591796875,0.1875,0.34930419921875
-0.4279022216796875,0.202972412109375,0.2223663330078125
-0.488983154296875,0.2946929931640625,0.1763153076171875
-0.4911651611328125,0.551361083984375,0.0962677001953125
-0.37603759765625,0.7778778076171875,-0.045745849609375
-0.3870391845703125,0.9345703125,-0.139617919921875
-0.662689208984375,1.137054443359375,-0.22747802734375
-0.83935546875,1.392059326171875,-0.113555908203125
-1.2698516845703125,1.9178924560546875,-0.4421234130859375
-1.2579345703125,1.30328369140625,0.0507965087890625
-0.8616790771484375,0.6857452392578125,0.43890380859375
-0.5167694091796875,0.3580780029296875,0.2985992431640625
-0.3356475830078125,0.2108154296875,0.0244903564453125
-0.1961517333984375,0.150848388671875,0.022216796875
-0.083740234375,0.04168701171875,0.1381988525390625
-0.21942138671875,0.1395721435546875,0.127532958984375
-0.32818603515625,0.3598785400390625,-0.0095977783203125
-0.413055419921875,0.540557861328125,-0.0359954833984375
-0.8238677978515625,0.901031494140625,0.028228759765625
-1.1639556884765625,1.640655517578125,-0.1070404052734375
-1.3914337158203125,1.9940032958984373,-0.312896728515625
-1.33209228515625,1.763519287109375,-0.3783111572265625
-1.0861358642578125,1.16754150390625,-0.2588958740234375
-0.7458343505859375,0.869049072265625,-0.1057586669921875
-0.2525787353515625,0.643890380859375,0.043548583984375
-0.0446929931640625,0.4007568359375,0.1377410888671875
-0.22088623046875,0.308074951171875,0.05755615234375
-0.2444610595703125,0.296722412109375,0.12603759765625
-0.2824249267578125,0.341339111328125,0.1627960205078125
-0.292999267578125,0.383880615234375,0.1220703125
-0.2459716796875,0.376007080078125,0.1149444580078125
-0.2344818115234375,0.540771484375,0.138031005859375
-0.60064697265625,1.3674163818359375,-0.0224761962890625
-0.854278564453125,1.986785888671875,-0.17266845703125
-1.4521942138671875,2.190399169921875,-0.2347259521484375
-1.2791595458984375,1.220855712890625,-0.3477020263671875
-1.051239013671875,0.7828826904296875,-0.008575439453125
-0.6999969482421875,0.6044158935546875,0.3301849365234375
-0.4426116943359375,0.4620208740234375,0.255157470703125
-0.426605224609375,0.3973388671875,0.043701171875
-0.466033935546875,0.280303955078125,0.022491455078125
-0.4396820068359375,0.209075927734375,-0.0017852783203125
-0.515472412109375,0.2611236572265625,-0.0142822265625
-0.6052703857421875,0.34088134765625,0.0178985595703125
-0.7081146240234375,0.3844146728515625,0.0346221923828125
-1.027099609375,0.8077392578125,-0.0045166015625
-1.2816009521484375,1.5730133056640625,-0.165283203125
-1.7096099853515625,2.481674194335937,-0.4442291259765625
-1.2349395751953125,1.9951019287109373,-0.5496063232421875
-0.9271087646484376,1.602020263671875,-0.4962615966796875
-0.69012451171875,1.4121551513671875,-0.2325592041015625
-0.32305908203125,1.0951385498046875,-0.2005462646484375
-0.1705474853515625,0.773529052734375,-0.266876220703125
-0.2136993408203125,0.6674957275390625,-0.141082763671875
-0.23065185546875,0.6470489501953125,0.0741119384765625
-0.1745452880859375,0.6454010009765625,0.24981689453125
-0.1780242919921875,0.6453857421875,0.1737518310546875
-0.187347412109375,0.6493988037109375,0.1690673828125
-0.1749420166015625,0.62042236328125,0.272705078125
-0.159027099609375,0.60223388671875,0.19561767578125
-0.1271514892578125,0.6180572509765625,0.0730438232421875
-0.1586456298828125,0.605255126953125,0.1112518310546875
-0.3980712890625,0.5353240966796875,0.3651275634765625
-0.801727294921875,0.8920745849609375,0.289581298828125
-1.432525634765625,1.76507568359375,0.0072021484375
-2.301544189453125,1.553192138671875,-0.1287689208984375
-1.9605255126953125,1.0223236083984375,-0.081787109375
-1.066741943359375,0.4553680419921875,-0.343505859375
-0.4669647216796875,0.2227935791015625,-0.477325439453125
-0.660736083984375,-0.0095977783203125,-0.4756317138671875
-0.7392730712890625,-0.041168212890625,-0.3968048095703125
-0.4830780029296875,0.0041046142578125,-0.347747802734375
-0.354888916015625,0.0924835205078125,-0.4749298095703125
-0.4463653564453125,0.271209716796875,-0.7691497802734375
-0.5117034912109375,0.3122100830078125,-0.6182098388671875
-0.531982421875,0.3982696533203125,-0.5590057373046875
-0.36712646484375,0.5210418701171875,-1.185150146484375
-0.5418853759765625,0.460693359375,-1.19451904296875
-0.3679351806640625,0.2821044921875,-1.317962646484375
-0.368438720703125,0.2443084716796875,-1.248931884765625
-0.493377685546875,0.168792724609375,-1.4200439453125
-0.393646240234375,0.0612030029296875,-1.5576019287109375
-0.2838897705078125,0.067626953125,-1.48785400390625
-0.242523193359375,-0.1435699462890625,-1.5768280029296875
-0.302947998046875,-0.2724609375,-1.3141632080078125
0.1813507080078125,-0.2288055419921875,-1.3561248779296875
0.05010986328125,-0.2221832275390625,-0.9425201416015624
0.06463623046875,-0.3023529052734375,-0.724395751953125
0.1462554931640625,-0.2974090576171875,-0.973175048828125
-0.013519287109375,-0.3289947509765625,-0.834716796875
-0.04296875,-0.444000244140625,-0.564239501953125
