AccelerationX,AccelerationY,AccelerationZ
0.3654327392578125,-0.8171234130859375,-0.428466796875
0.3701019287109375,-0.783233642578125,-0.461212158203125
0.3907012939453125,-0.795196533203125,-0.4938507080078125
0.3605499267578125,-0.7629241943359375,-0.4951019287109375
0.422119140625,-0.789031982421875,-0.5352325439453125
0.348663330078125,-0.7968597412109375,-0.554412841796875
0.3862762451171875,-0.769866943359375,-0.54925537109375
0.3510284423828125,-0.7613983154296875,-0.5202789306640625
0.3600921630859375,-0.792877197265625,-0.5218963623046875
0.35125732421875,-0.821044921875,-0.481201171875
0.36553955078125,-0.81951904296875,-0.4227752685546875
0.3733673095703125,-0.7762908935546875,-0.3896942138671875
0.3636932373046875,-0.777679443359375,-0.4795684814453125
0.3191986083984375,-0.7227630615234375,-0.4394073486328125
0.34466552734375,-0.7196502685546875,-0.3915863037109375
0.176483154296875,-0.6885528564453125,-0.41815185546875
0.218231201171875,-0.71575927734375,-0.5303955078125
0.308502197265625,-0.7580108642578125,-0.6996002197265625
0.4541778564453125,-0.818084716796875,-0.792205810546875
0.4726104736328125,-0.8096466064453125,-0.8785247802734375
0.37939453125,-0.7143402099609375,-0.97174072265625
0.459228515625,-0.675872802734375,-0.8391571044921875
0.402587890625,-0.6019287109375,-0.6403656005859375
0.5840301513671875,-0.6394500732421875,-0.5528411865234375
0.50518798828125,-0.8229522705078125,-0.4656982421875
0.3357696533203125,-1.0712432861328125,-0.3961029052734375
0.209503173828125,-1.33514404296875,-0.3253173828125
0.1894073486328125,-1.1940765380859375,-0.116485595703125
0.2731475830078125,-1.040679931640625,-0.0931396484375
0.1786346435546875,-1.015655517578125,-0.13275146484375
0.10888671875,-0.8834228515625,-0.1508636474609375
0.1803436279296875,-1.0469970703125,-0.1460418701171875
-0.1344146728515625,-0.978668212890625,-0.066436767578125
-0.4369964599609375,-0.9792327880859376,-0.0832366943359375
0.0815277099609375,-0.557830810546875,-0.3116912841796875
0.47332763671875,-0.5417938232421875,-0.31317138671875
0.330535888671875,-0.5971221923828125,-0.2928466796875
0.305511474609375,-0.799041748046875,-0.2019500732421875
0.1578216552734375,-0.9674835205078124,-0.0303497314453125
0.015411376953125,-1.1614990234375,-0.0390472412109375
0.1640625,-1.352020263671875,-0.174468994140625
0.38018798828125,-1.5116424560546875,-0.409820556640625
0.39141845703125,-1.3153228759765625,-0.5487518310546875
0.233154296875,-0.8759002685546875,-0.431060791015625
0.0804595947265625,-0.8461761474609375,-0.2338409423828125
0.0875396728515625,-1.04010009765625,-0.1124267578125
0.0756072998046875,-0.9269561767578124,-0.123809814453125
0.1491851806640625,-0.8082275390625,-0.1820831298828125
0.1774749755859375,-0.7138824462890625,-0.19451904296875
0.1259765625,-0.693511962890625,-0.146148681640625
0.1085968017578125,-0.720611572265625,-0.1255340576171875
0.238067626953125,-0.9339141845703124,-0.07342529296875
0.333099365234375,-1.28753662109375,0.028350830078125
0.2605743408203125,-1.4586334228515625,0.0560455322265625
0.096649169921875,-1.379669189453125,0.082733154296875
0.0122833251953125,-1.372039794921875,0.096893310546875
0.039093017578125,-1.0198516845703125,-0.2221832275390625
0.1770477294921875,-0.6852874755859375,-0.357269287109375
0.0680084228515625,-0.6517333984375,-0.1430206298828125
-0.0225067138671875,-0.919189453125,0.0652313232421875
-0.2089691162109375,-0.96209716796875,-0.1761474609375
0.027862548828125,-0.675994873046875,-0.2236175537109375
0.140106201171875,-0.60711669921875,-0.1848907470703125
0.0705108642578125,-0.8015289306640625,-0.0955810546875
0.0783843994140625,-0.9190216064453124,-0.1118927001953125
0.0233001708984375,-0.9424896240234376,-0.1666717529296875
0.146881103515625,-1.0453643798828125,-0.2496185302734375
0.3121795654296875,-1.131622314453125,-0.394378662109375
0.2792816162109375,-1.139923095703125,-0.3961334228515625
0.218048095703125,-1.3040008544921875,-0.3226318359375
0.108306884765625,-1.1661376953125,-0.1932373046875
0.0534820556640625,-1.04205322265625,-0.087982177734375
0.1182861328125,-1.1464385986328125,-0.10980224609375
0.1640472412109375,-1.1522216796875,-0.1073760986328125
0.16552734375,-0.93890380859375,-0.0994720458984375
0.1957244873046875,-0.7924652099609375,-0.117828369140625
0.15423583984375,-0.8021392822265625,-0.076019287109375
0.1260528564453125,-0.83648681640625,-0.004425048828125
0.15435791015625,-0.8440704345703125,0.0559539794921875
0.1825103759765625,-0.9573516845703124,0.1156768798828125
0.1995086669921875,-1.1378631591796875,0.1173858642578125
0.2268829345703125,-1.1287078857421875,0.009368896484375
0.2877197265625,-1.368804931640625,-0.16326904296875
0.2587890625,-1.345123291015625,-0.2453460693359375
0.0922088623046875,-0.8780975341796875,-0.205718994140625
-0.02264404296875,-0.7268524169921875,-0.2408905029296875
-0.0144805908203125,-0.9652862548828124,-0.1706695556640625
-0.062225341796875,-0.9364013671875,-0.1265716552734375
-0.149658203125,-0.749359130859375,-0.230499267578125
0.1108245849609375,-0.6822052001953125,-0.2040863037109375
0.3043060302734375,-0.81573486328125,-0.2569122314453125
0.1316986083984375,-0.8589019775390625,-0.2046356201171875
0.0210113525390625,-0.850830078125,-0.2128448486328125
0.1114959716796875,-1.0064544677734375,-0.2668609619140625
0.27679443359375,-1.113555908203125,-0.447235107421875
0.2491302490234375,-1.1269989013671875,-0.463226318359375
0.222564697265625,-1.260986328125,-0.4232635498046875
0.1602020263671875,-1.17218017578125,-0.3395233154296875
0.0874786376953125,-1.1749420166015625,-0.2118072509765625
0.1172332763671875,-1.2340850830078125,-0.193817138671875
0.0824432373046875,-1.18170166015625,-0.1439971923828125
0.059814453125,-0.956207275390625,-0.147613525390625
0.086761474609375,-0.7825164794921875,-0.1847076416015625
0.098541259765625,-0.7896728515625,-0.1556396484375
0.1538238525390625,-0.829071044921875,-0.116546630859375
0.204498291015625,-0.8857574462890625,-0.0684967041015625
0.238739013671875,-0.8874664306640625,-0.0147857666015625
0.222442626953125,-1.005645751953125,0.0147552490234375
0.1969757080078125,-1.0172576904296875,-0.0578765869140625
0.2282257080078125,-1.136749267578125,-0.181427001953125
0.24700927734375,-1.204254150390625,-0.2697601318359375
0.2837982177734375,-1.0370330810546875,-0.359100341796875
0.1838226318359375,-0.8630218505859375,-0.3743133544921875
0.0794525146484375,-1.00421142578125,-0.2948455810546875
0.0464019775390625,-1.0088348388671875,-0.1819610595703125
0.0172576904296875,-0.7801513671875,-0.1311798095703125
-0.0119781494140625,-0.6313629150390625,-0.2201690673828125
0.1476287841796875,-0.725860595703125,-0.25250244140625
0.006072998046875,-0.8029022216796875,-0.2410736083984375
0.11810302734375,-0.866119384765625,-0.3028411865234375
0.2193756103515625,-0.8756103515625,-0.4091339111328125
0.312408447265625,-1.0496673583984375,-0.4981842041015625
0.2519073486328125,-1.1717376708984375,-0.506866455078125
0.172515869140625,-1.3954925537109375,-0.407135009765625
0.06097412109375,-1.325286865234375,-0.2815399169921875
-0.0473785400390625,-1.090179443359375,-0.15203857421875
0.048309326171875,-1.1990509033203125,-0.1799774169921875
0.087799072265625,-1.2240753173828125,-0.20086669921875
0.1585693359375,-0.9557037353515624,-0.20916748046875
0.182220458984375,-0.692535400390625,-0.2274169921875
0.1483001708984375,-0.649566650390625,-0.1984405517578125
0.1451416015625,-0.7161102294921875,-0.14910888671875
0.1898345947265625,-0.73931884765625,-0.1059417724609375
0.2027130126953125,-0.8141632080078125,-0.0576629638671875
0.203216552734375,-1.0319976806640625,-0.0196380615234375
0.232666015625,-1.1140594482421875,-0.0098724365234375
0.263519287109375,-1.0589447021484375,-0.1270751953125
0.26995849609375,-1.217071533203125,-0.2238311767578125
0.2486114501953125,-1.1480865478515625,-0.383758544921875
0.2026824951171875,-0.90869140625,-0.42144775390625
0.1719970703125,-0.9248809814453124,-0.2589263916015625
0.1656341552734375,-1.069183349609375,-0.1086578369140625
-0.12030029296875,-1.0515289306640625,-0.0352325439453125
-0.0933837890625,-0.765716552734375,-0.340362548828125
0.349395751953125,-0.6593170166015625,-0.3328857421875
0.3453216552734375,-0.7194976806640625,-0.3359832763671875
0.1887359619140625,-0.75421142578125,-0.2725677490234375
-0.0312652587890625,-0.6715850830078125,-0.2692413330078125
0.140228271484375,-0.8691558837890625,-0.3629913330078125
0.3549346923828125,-1.0968780517578125,-0.542694091796875
0.3620452880859375,-1.33148193359375,-0.4979248046875
0.218536376953125,-1.450592041015625,-0.339263916015625
0.1134185791015625,-1.3043365478515625,-0.2846527099609375
-0.0019378662109375,-0.994293212890625,-0.1790008544921875
0.060943603515625,-1.052398681640625,-0.1126861572265625
0.1284637451171875,-1.0895233154296875,-0.1913604736328125
0.2195281982421875,-0.94696044921875,-0.253936767578125
0.2674713134765625,-0.750396728515625,-0.2561798095703125
0.240020751953125,-0.710205078125,-0.2076873779296875
0.19012451171875,-0.760284423828125,-0.1057891845703125
0.1895904541015625,-0.8248443603515625,-0.0487060546875
0.3541259765625,-0.9462738037109376,-0.07989501953125
0.2067413330078125,-1.139251708984375,-0.0198974609375
0.108123779296875,-1.308349609375,0.0281524658203125
0.180877685546875,-1.50360107421875,-0.017913818359375
0.2383575439453125,-1.24615478515625,-0.4085845947265625
0.1235809326171875,-0.6353912353515625,-0.5670013427734375
0.0375213623046875,-0.5729522705078125,-0.352325439453125
0.12396240234375,-0.9225616455078124,-0.1238861083984375
0.064910888671875,-1.1365966796875,-0.0166015625
-0.143463134765625,-0.935516357421875,-0.15667724609375
-0.120819091796875,-0.755462646484375,-0.2560272216796875
-0.06964111328125,-0.6012420654296875,-0.2787017822265625
-0.005828857421875,-0.764251708984375,-0.2723388671875
-0.013031005859375,-0.8465576171875,-0.3402557373046875
0.057342529296875,-0.825958251953125,-0.3655242919921875
0.170501708984375,-1.01959228515625,-0.4298858642578125
0.1639251708984375,-1.185577392578125,-0.4932403564453125
0.1797027587890625,-1.2038421630859375,-0.412628173828125
0.213714599609375,-1.248443603515625,-0.3693084716796875
0.305908203125,-1.124755859375,-0.421661376953125
0.3387298583984375,-0.9527435302734376,-0.371917724609375
0.4268341064453125,-1.0491943359375,-0.370086669921875
0.4131011962890625,-1.038970947265625,-0.3085174560546875
0.2494049072265625,-0.8583831787109375,-0.2541351318359375
0.1545867919921875,-0.7029876708984375,-0.1587677001953125
0.0967864990234375,-0.620697021484375,-0.144195556640625
0.23858642578125,-0.6907958984375,-0.14599609375
0.2870635986328125,-0.8602294921875,-0.1598663330078125
0.2848663330078125,-1.126129150390625,-0.1582489013671875
0.179473876953125,-1.4633331298828125,-0.031707763671875
0.173583984375,-1.3913421630859375,-0.0308380126953125
0.0776519775390625,-1.3824615478515625,-0.095306396484375
0.001861572265625,-1.135345458984375,-0.2061920166015625
0.029205322265625,-0.7816925048828125,-0.271453857421875
0.06915283203125,-0.69256591796875,-0.2440643310546875
0.092376708984375,-0.858917236328125,-0.1719970703125
0.0757598876953125,-0.898040771484375,-0.176177978515625
0.0327911376953125,-0.74114990234375,-0.199188232421875
-0.0112457275390625,-0.6911468505859375,-0.1977081298828125
0.0076141357421875,-0.7663421630859375,-0.1671142578125
-0.0076904296875,-0.7823333740234375,-0.199493408203125
0.035675048828125,-0.827606201171875,-0.250152587890625
0.0785675048828125,-0.9652862548828124,-0.2977294921875
0.132965087890625,-1.1020660400390625,-0.3765411376953125
0.1194915771484375,-1.1458587646484375,-0.4053955078125
0.214019775390625,-1.3455657958984375,-0.4352569580078125
0.2485809326171875,-1.2283782958984375,-0.42608642578125
0.142181396484375,-1.1995697021484375,-0.2259063720703125
0.1461944580078125,-1.448944091796875,-0.2404327392578125
0.0929107666015625,-1.3373565673828125,-0.188995361328125
0.093109130859375,-1.0642242431640625,-0.1287841796875
0.0481719970703125,-0.83184814453125,-0.12261962890625
0.066986083984375,-0.7750244140625,-0.1234283447265625
0.1607513427734375,-0.7725677490234375,-0.1452789306640625
0.3743743896484375,-0.8636016845703125,-0.138275146484375
0.324737548828125,-1.0314483642578125,-0.329803466796875
0.4274444580078125,-1.226470947265625,-0.287200927734375
0.3126220703125,-1.1609344482421875,-0.277099609375
0.3856201171875,-1.022491455078125,-0.2917633056640625
0.2139434814453125,-0.8456878662109375,-0.379058837890625
-0.012969970703125,-0.6391754150390625,-0.4018096923828125
-0.0231781005859375,-0.5933685302734375,-0.3618621826171875
0.0655670166015625,-0.8997344970703125,-0.25885009765625
0.0563201904296875,-0.871734619140625,-0.333160400390625
0.0849456787109375,-0.8363800048828125,-0.482818603515625
-0.061431884765625,-0.6468658447265625,-0.428375244140625
-0.067840576171875,-0.579315185546875,-0.3356475830078125
0.0175933837890625,-0.675079345703125,-0.342071533203125
-0.0428619384765625,-0.702667236328125,-0.4186248779296875
0.045379638671875,-0.845062255859375,-0.5531158447265625
0.0922088623046875,-1.102020263671875,-0.6517181396484375
0.0953826904296875,-1.0921630859375,-0.6535186767578125
0.160400390625,-1.3388214111328125,-0.589935302734375
0.0439300537109375,-1.0760955810546875,-0.56793212890625
0.0929412841796875,-1.0579071044921875,-0.50030517578125
0.2517242431640625,-1.3192291259765625,-0.523040771484375
0.27947998046875,-1.32568359375,-0.5546112060546875
0.19146728515625,-1.09130859375,-0.42230224609375
0.0882720947265625,-0.852142333984375,-0.3147735595703125
0.092254638671875,-0.763946533203125,-0.234954833984375
0.1736297607421875,-0.7594757080078125,-0.258331298828125
0.20233154296875,-0.765777587890625,-0.2358551025390625
0.2900238037109375,-0.799346923828125,-0.2557373046875
0.2299041748046875,-0.9085845947265624,-0.1835174560546875
0.244476318359375,-1.0114288330078125,-0.1748504638671875
0.2370758056640625,-0.9522705078125,-0.214385986328125
0.15643310546875,-1.038818359375,-0.25762939453125
0.106903076171875,-1.001251220703125,-0.265533447265625
0.0767059326171875,-1.116973876953125,-0.20989990234375
0.131744384765625,-1.147430419921875,-0.2890167236328125
0.0778350830078125,-1.157684326171875,-0.3166656494140625
0.02691650390625,-0.9270172119140624,-0.3145294189453125
-0.01788330078125,-0.646240234375,-0.2612152099609375
0.0239410400390625,-0.6230316162109375,-0.1759185791015625
0.0147247314453125,-0.731689453125,-0.2242889404296875
-0.050384521484375,-0.8120880126953125,-0.282867431640625
-0.0276641845703125,-0.8157958984375,-0.3205718994140625
0.05615234375,-1.009490966796875,-0.4048614501953125
0.0825347900390625,-1.0624542236328125,-0.523773193359375
0.0682525634765625,-1.319366455078125,-0.5136871337890625
0.025543212890625,-1.3680419921875,-0.423614501953125
0.068450927734375,-1.308807373046875,-0.331512451171875
0.161712646484375,-1.3818206787109375,-0.3238525390625
0.1368408203125,-1.346527099609375,-0.251739501953125
0.138092041015625,-1.0900421142578125,-0.1927947998046875
0.1349639892578125,-0.854644775390625,-0.215301513671875
0.1304931640625,-0.8148345947265625,-0.1922607421875
0.1541290283203125,-0.8218994140625,-0.150543212890625
0.161285400390625,-0.81072998046875,-0.1560211181640625
0.2751007080078125,-0.865020751953125,-0.2077789306640625
0.2831573486328125,-0.916778564453125,-0.180633544921875
0.2341766357421875,-1.0362548828125,-0.14776611328125
0.1698455810546875,-0.9876861572265624,-0.11871337890625
0.139312744140625,-1.0699920654296875,-0.1788482666015625
0.1677093505859375,-0.97454833984375,-0.3237152099609375
0.027801513671875,-0.7899932861328125,-0.453216552734375
0.1202239990234375,-1.0288543701171875,-0.3678436279296875
0.14129638671875,-1.177001953125,-0.2856292724609375
-0.0114898681640625,-1.071441650390625,-0.254150390625
-0.1224517822265625,-0.8100128173828125,-0.212249755859375
0.0127716064453125,-0.675201416015625,-0.2646942138671875
-0.049774169921875,-0.6938934326171875,-0.250640869140625
-0.01873779296875,-0.776153564453125,-0.34722900390625
0.0046539306640625,-0.825714111328125,-0.4439849853515625
0.1087799072265625,-1.1201324462890625,-0.570098876953125
0.1187896728515625,-1.0921173095703125,-0.7542877197265625
0.1249542236328125,-1.4514617919921875,-0.61627197265625
0.0699462890625,-1.45257568359375,-0.4851226806640625
0.0173187255859375,-1.174530029296875,-0.2978668212890625
0.0732269287109375,-1.353973388671875,-0.2580108642578125
0.025665283203125,-1.3975830078125,-0.1312713623046875
0.1331329345703125,-1.1511383056640625,-0.109130859375
0.1549072265625,-0.8523712158203125,-0.1873931884765625
0.1479339599609375,-0.8146514892578125,-0.2433929443359375
0.1364898681640625,-0.7949371337890625,-0.1947784423828125
0.160003662109375,-0.726898193359375,-0.131500244140625
0.2199554443359375,-0.791229248046875,-0.031005859375
0.2045745849609375,-0.86016845703125,-0.009246826171875
0.1911773681640625,-0.895233154296875,-0.0318756103515625
0.2014007568359375,-0.843994140625,-0.14471435546875
0.2378692626953125,-0.957855224609375,-0.204620361328125
0.222412109375,-1.054595947265625,-0.359954833984375
0.1396636962890625,-1.030181884765625,-0.403045654296875
0.1134490966796875,-1.1223907470703125,-0.3001251220703125
0.18017578125,-1.3160858154296875,-0.3562469482421875
0.1704864501953125,-1.225616455078125,-0.3913726806640625
0.089019775390625,-0.885894775390625,-0.2882843017578125
0.01837158203125,-0.731231689453125,-0.2691497802734375
-0.1129608154296875,-0.7676544189453125,-0.2135772705078125
-0.041015625,-0.77978515625,-0.2586822509765625
0.02734375,-0.7718963623046875,-0.314666748046875
0.1404876708984375,-0.9241790771484376,-0.4032745361328125
0.3086700439453125,-1.0859832763671875,-0.583740234375
0.3155059814453125,-1.17462158203125,-0.5001220703125
0.2397003173828125,-1.3026275634765625,-0.3421630859375
0.2293243408203125,-1.1735992431640625,-0.3531036376953125
0.189727783203125,-1.247100830078125,-0.223236083984375
0.25604248046875,-1.4904632568359375,-0.164031982421875
0.15850830078125,-1.3329010009765625,-0.1073760986328125
0.14483642578125,-0.994293212890625,-0.1112823486328125
0.114349365234375,-0.82794189453125,-0.1325836181640625
0.1224365234375,-0.8059844970703125,-0.1119842529296875
0.179290771484375,-0.8189697265625,-0.078277587890625
0.2509765625,-0.923797607421875,-0.0444793701171875
0.2669830322265625,-1.04962158203125,0.00604248046875
0.23455810546875,-1.2076263427734375,0.015106201171875
0.245208740234375,-1.1764068603515625,-0.0149688720703125
0.2310638427734375,-1.151885986328125,-0.0758056640625
0.2894134521484375,-0.9195556640625,-0.300445556640625
0.2620849609375,-0.659698486328125,-0.56329345703125
0.2693328857421875,-0.9489593505859376,-0.417022705078125
0.1583099365234375,-0.9820404052734376,-0.1844024658203125
0.179656982421875,-0.8939971923828125,-0.120513916015625
0.056060791015625,-0.811004638671875,-0.1810150146484375
-0.0883331298828125,-0.7469024658203125,-0.224212646484375
-0.111724853515625,-0.78631591796875,-0.240692138671875
-0.0886993408203125,-0.8274383544921875,-0.3011627197265625
-0.0564727783203125,-0.8669586181640625,-0.3723602294921875
0.0488128662109375,-0.997955322265625,-0.430267333984375
0.165496826171875,-1.1336517333984375,-0.5882110595703125
0.159271240234375,-1.22564697265625,-0.558319091796875
0.099609375,-1.345947265625,-0.41802978515625
0.2317352294921875,-1.303070068359375,-0.423370361328125
0.3038177490234375,-1.0763397216796875,-0.3971099853515625
0.2853546142578125,-1.048858642578125,-0.2916107177734375
0.4014434814453125,-1.017547607421875,-0.2887725830078125
0.3508148193359375,-0.881927490234375,-0.2420806884765625
0.2842559814453125,-0.76544189453125,-0.209320068359375
0.3077392578125,-0.62164306640625,-0.23956298828125
0.319580078125,-0.5776519775390625,-0.1757354736328125
0.3321685791015625,-0.6243133544921875,-0.1669769287109375
0.3351898193359375,-0.814483642578125,-0.163848876953125
0.2451171875,-1.1429595947265625,-0.153167724609375
0.169921875,-1.2477569580078125,-0.0367889404296875
0.228607177734375,-1.4052886962890625,-0.05755615234375
0.202301025390625,-1.4505767822265625,-0.1435699462890625
0.1541595458984375,-1.040985107421875,-0.3731842041015625
0.1206817626953125,-0.6681365966796875,-0.477935791015625
0.09613037109375,-0.83343505859375,-0.304931640625
0.1370391845703125,-0.936065673828125,-0.2686004638671875
0.1670379638671875,-0.8733367919921875,-0.3006744384765625
0.1265716552734375,-0.708160400390625,-0.328399658203125
-0.0157318115234375,-0.634490966796875,-0.321258544921875
0.01959228515625,-0.679351806640625,-0.299285888671875
0.0413360595703125,-0.7621002197265625,-0.347503662109375
0.108184814453125,-0.849395751953125,-0.3968963623046875
0.109771728515625,-0.9869842529296876,-0.4514617919921875
0.0875244140625,-1.1845245361328125,-0.4390716552734375
0.186798095703125,-1.185791015625,-0.4428863525390625
0.104278564453125,-1.395843505859375,-0.344451904296875
0.13360595703125,-1.27935791015625,-0.403533935546875
0.1343994140625,-0.8343505859375,-0.401031494140625
0.2152099609375,-0.890167236328125,-0.3176116943359375
0.289581298828125,-0.9871673583984376,-0.302215576171875
0.268524169921875,-0.9781951904296876,-0.349273681640625
0.243804931640625,-0.9420928955078124,-0.3321533203125
0.201416015625,-0.84490966796875,-0.2925872802734375
0.264892578125,-0.75958251953125,-0.3221282958984375
0.24578857421875,-0.7102203369140625,-0.325592041015625
0.29376220703125,-0.7733306884765625,-0.3880462646484375
0.1949462890625,-0.77203369140625,-0.3697967529296875
0.3684539794921875,-0.8985137939453125,-0.455078125
0.1952667236328125,-1.1216888427734375,-0.5159149169921875
0.0560150146484375,-1.2066192626953125,-0.4818267822265625
0.0857391357421875,-1.01556396484375,-0.4734344482421875
0.045166015625,-0.7492218017578125,-0.3766326904296875
0.053863525390625,-0.76153564453125,-0.285858154296875
0.0531158447265625,-0.894683837890625,-0.341064453125
0.1094512939453125,-0.96551513671875,-0.4471282958984375
0.0181884765625,-0.8950042724609375,-0.3117218017578125
-0.0532684326171875,-0.8071746826171875,-0.243316650390625
-0.02947998046875,-0.7322845458984375,-0.254241943359375
0.00201416015625,-0.774505615234375,-0.3348846435546875
-0.06304931640625,-0.787261962890625,-0.378173828125
-0.0830535888671875,-0.8542633056640625,-0.4229583740234375
-0.009521484375,-0.9592437744140624,-0.525360107421875
0.0531463623046875,-1.0075225830078125,-0.5548553466796875
0.1658935546875,-1.1175994873046875,-0.6053619384765625
0.215911865234375,-1.0673828125,-0.698272705078125
0.286285400390625,-1.0389556884765625,-0.674072265625
0.2433013916015625,-1.0595855712890625,-0.59356689453125
0.1508636474609375,-1.0577850341796875,-0.4945220947265625
0.13330078125,-0.9134521484375,-0.4233856201171875
0.10870361328125,-0.7745819091796875,-0.362213134765625
0.0858001708984375,-0.69390869140625,-0.29388427734375
0.1170196533203125,-0.6810150146484375,-0.2970428466796875
0.1845245361328125,-0.817230224609375,-0.2873077392578125
0.2151336669921875,-0.9728546142578124,-0.2328643798828125
0.354827880859375,-1.21514892578125,-0.2266998291015625
0.3088836669921875,-1.22381591796875,-0.300933837890625
0.1256256103515625,-1.32177734375,-0.2818450927734375
0.1196746826171875,-1.146514892578125,-0.2785797119140625
0.009979248046875,-0.966400146484375,-0.19171142578125
-0.0379791259765625,-0.8918914794921875,-0.1022186279296875
0.0265655517578125,-0.8704376220703125,-0.1574249267578125
0.0561981201171875,-0.6920928955078125,-0.239959716796875
-0.007720947265625,-0.6135406494140625,-0.247222900390625
0.0167083740234375,-0.6628265380859375,-0.2644805908203125
-0.00445556640625,-0.75494384765625,-0.3320465087890625
0.0143890380859375,-0.880035400390625,-0.4101715087890625
0.00164794921875,-1.0053863525390625,-0.4119415283203125
0.0491180419921875,-1.112091064453125,-0.4804229736328125
0.0236968994140625,-1.1520843505859375,-0.5658721923828125
0.0391387939453125,-1.3760528564453125,-0.623565673828125
0.0044097900390625,-1.3182373046875,-0.5398406982421875
0.021484375,-1.33050537109375,-0.402191162109375
0.023406982421875,-1.3046417236328125,-0.349273681640625
0.007415771484375,-1.1501617431640625,-0.3155517578125
0.0262298583984375,-0.8495941162109375,-0.231658935546875
0.032012939453125,-0.6900634765625,-0.190032958984375
0.0844879150390625,-0.646942138671875,-0.175811767578125
0.107635498046875,-0.684844970703125,-0.15325927734375
0.188507080078125,-0.8061676025390625,-0.1541290283203125
0.1844940185546875,-0.8988800048828125,-0.128814697265625
0.2282867431640625,-1.042724609375,-0.145294189453125
0.167236328125,-1.1313323974609375,-0.284393310546875
0.0489654541015625,-1.3077545166015625,-0.2041015625
0.2904052734375,-1.1884613037109375,-0.2266998291015625
0.0550689697265625,-1.0487060546875,-0.31097412109375
-0.036529541015625,-1.068603515625,-0.1988525390625
0.0168609619140625,-0.92669677734375,-0.1405487060546875
-0.014984130859375,-0.699249267578125,-0.17919921875
-0.0205078125,-0.58062744140625,-0.2294769287109375
-0.02874755859375,-0.5998382568359375,-0.225311279296875
0.035003662109375,-0.7200164794921875,-0.3165435791015625
0.16082763671875,-0.9256591796875,-0.486236572265625
0.0326080322265625,-1.0608673095703125,-0.5458526611328125
-0.0138092041015625,-1.15655517578125,-0.59197998046875
0.00592041015625,-1.2353515625,-0.5472564697265625
0.075592041015625,-1.422027587890625,-0.483856201171875
0.059112548828125,-1.2524871826171875,-0.4564208984375
0.1430511474609375,-1.235687255859375,-0.421661376953125
0.17242431640625,-1.2146453857421875,-0.3826141357421875
0.081085205078125,-1.080841064453125,-0.3710174560546875
0.1129608154296875,-0.8136749267578125,-0.2362823486328125
0.17950439453125,-0.6322021484375,-0.1842498779296875
0.1432342529296875,-0.6541290283203125,-0.1624908447265625
0.1418609619140625,-0.720977783203125,-0.1401519775390625
0.12548828125,-0.7899017333984375,-0.142730712890625
0.2023162841796875,-0.9539642333984376,-0.2127227783203125
0.308929443359375,-1.2746429443359375,-0.176910400390625
0.2878570556640625,-1.0657501220703125,-0.25531005859375
0.1516265869140625,-1.27301025390625,-0.246337890625
0.0570220947265625,-1.214019775390625,-0.19488525390625
0.010589599609375,-1.05340576171875,-0.1805877685546875
0.057281494140625,-0.9462738037109376,-0.23529052734375
0.0081787109375,-0.9459381103515624,-0.2912445068359375
-0.0573272705078125,-0.7906036376953125,-0.2705230712890625
-0.04193115234375,-0.60003662109375,-0.2135467529296875
0.020294189453125,-0.60040283203125,-0.2008056640625
0.1295318603515625,-0.743804931640625,-0.255706787109375
0.1015777587890625,-0.916839599609375,-0.3493804931640625
0.1401824951171875,-1.086395263671875,-0.3823089599609375
0.1738739013671875,-1.194488525390625,-0.4220733642578125
0.2175445556640625,-1.146087646484375,-0.5632171630859375
0.3108673095703125,-1.4323883056640625,-0.6765594482421875
0.2953643798828125,-1.3052978515625,-0.49542236328125
0.255462646484375,-1.1688690185546875,-0.3566741943359375
0.1244049072265625,-1.2412109375,-0.346343994140625
0.0606231689453125,-1.0931243896484375,-0.2795257568359375
0.133758544921875,-0.832733154296875,-0.2358245849609375
0.1891326904296875,-0.674285888671875,-0.2142181396484375
0.168243408203125,-0.6580963134765625,-0.205841064453125
0.12451171875,-0.66180419921875,-0.2033233642578125
0.1676788330078125,-0.8225555419921875,-0.13446044921875
0.2577056884765625,-1.0618438720703125,0.0210418701171875
0.2786712646484375,-1.2512969970703125,0.1118011474609375
0.227752685546875,-1.20184326171875,0.0563201904296875
0.1351318359375,-1.374969482421875,-0.02142333984375
0.1910400390625,-1.0311431884765625,-0.2293853759765625
0.137725830078125,-0.8443450927734375,-0.3796234130859375
0.1446685791015625,-1.0327606201171875,-0.26275634765625
0.09014892578125,-0.9685211181640624,-0.0898284912109375
0.0652313232421875,-0.7620086669921875,-0.093536376953125
-0.098236083984375,-0.605743408203125,-0.16925048828125
0.06915283203125,-0.6947174072265625,-0.2557525634765625
0.1103057861328125,-0.9192047119140624,-0.3394012451171875
0.1006622314453125,-1.1239471435546875,-0.3309478759765625
0.1194915771484375,-1.2796478271484375,-0.367950439453125
0.0861053466796875,-1.4899444580078125,-0.4270477294921875
0.0877838134765625,-1.367645263671875,-0.490081787109375
0.125640869140625,-1.3607635498046875,-0.501007080078125
0.1707916259765625,-1.1773834228515625,-0.5539093017578125
0.079620361328125,-1.0859375,-0.3350982666015625
0.160369873046875,-1.14501953125,-0.2606964111328125
0.1752166748046875,-1.1951904296875,-0.1598968505859375
0.0787506103515625,-0.987823486328125,0.0980682373046875
0.1532135009765625,-0.8417816162109375,0.04132080078125
0.113128662109375,-0.89141845703125,0.03216552734375
0.12554931640625,-0.916107177734375,0.044891357421875
0.3335418701171875,-1.197845458984375,0.14654541015625
0.3280487060546875,-1.1824188232421875,0.1711578369140625
0.1782989501953125,-1.341461181640625,0.1884307861328125
0.2994842529296875,-1.312225341796875,0.084686279296875
0.2166290283203125,-1.2241363525390625,-0.0432891845703125
0.2093658447265625,-0.9889068603515624,-0.2802581787109375
0.1679840087890625,-0.6692352294921875,-0.4581756591796875
0.02740478515625,-0.749908447265625,-0.3858489990234375
0.0483245849609375,-0.896148681640625,-0.335418701171875
-0.070770263671875,-0.84271240234375,-0.383331298828125
-0.1735076904296875,-0.7228546142578125,-0.388153076171875
0.012481689453125,-0.6753692626953125,-0.422210693359375
0.0538177490234375,-0.71307373046875,-0.439208984375
0.0199737548828125,-0.664215087890625,-0.377593994140625
0.1050872802734375,-0.79315185546875,-0.4511260986328125
0.170257568359375,-0.932220458984375,-0.6241455078125
0.2588958740234375,-0.9544830322265624,-0.7384185791015625
0.3106842041015625,-1.0917510986328125,-0.818756103515625
0.186737060546875,-1.211181640625,-0.7005157470703125
0.2218475341796875,-1.6015472412109375,-0.5565185546875
0.19873046875,-1.5852813720703125,-0.39630126953125
0.0740814208984375,-1.27789306640625,-0.1693267822265625
0.0673370361328125,-0.9647979736328124,-0.1463470458984375
0.0954132080078125,-0.98992919921875,-0.0007476806640625
0.100921630859375,-0.9798126220703124,0.0502777099609375
0.1798248291015625,-1.001251220703125,0.0383453369140625
0.230926513671875,-1.0039825439453125,-0.0392303466796875
0.2812652587890625,-0.8784637451171875,-0.11126708984375
0.22412109375,-0.888916015625,-0.108978271484375
0.13861083984375,-0.756072998046875,-0.0928497314453125
0.165679931640625,-0.619232177734375,-0.1959075927734375
0.1213836669921875,-0.596771240234375,-0.32177734375
0.12774658203125,-0.6973114013671875,-0.379302978515625
0.0977020263671875,-0.8643035888671875,-0.4091796875
0.203826904296875,-0.9043121337890624,-0.3372955322265625
0.2078857421875,-0.86566162109375,-0.30230712890625
0.1240386962890625,-0.8263397216796875,-0.1876983642578125
0.008697509765625,-0.833465576171875,-0.143707275390625
0.05816650390625,-0.820587158203125,-0.2886199951171875
0.082275390625,-0.675689697265625,-0.6703948974609375
0.4295654296875,-0.8803863525390625,-0.958251953125
0.14727783203125,-1.183441162109375,-0.7567138671875
0.011474609375,-1.9891357421875,-0.436798095703125
-0.0573272705078125,-2.467636108398437,-0.222015380859375
-0.0349884033203125,-1.717071533203125,0.0936431884765625
0.20037841796875,-1.0638580322265625,-0.19927978515625
0.0861968994140625,-1.01788330078125,-0.16766357421875
0.1716461181640625,-0.8922882080078125,-0.103424072265625
0.3815155029296875,-1.0151824951171875,-0.179107666015625
0.2534637451171875,-1.2365570068359375,0.015960693359375
-0.0631256103515625,-0.92608642578125,0.2880401611328125
-0.2375335693359375,-0.717620849609375,0.3316650390625
0.31005859375,-1.0101776123046875,0.0250244140625
0.3988800048828125,-0.853485107421875,-0.2514190673828125
0.112701416015625,-1.0581817626953125,-0.4058837890625
0.04742431640625,-1.42755126953125,-0.389312744140625
0.3250732421875,-1.4154052734375,-0.279754638671875
0.3570556640625,-1.0363006591796875,-0.34307861328125
-0.0107879638671875,-0.81158447265625,-0.159515380859375
0.046173095703125,-0.898529052734375,-0.1283721923828125
-0.0069732666015625,-0.848907470703125,-0.1897125244140625
0.1287689208984375,-0.7177581787109375,-0.3493499755859375
0.3224945068359375,-0.5521240234375,-0.5388336181640625
0.5077362060546875,-0.278045654296875,-0.6687164306640625
0.59991455078125,-0.254547119140625,-0.54949951171875
0.457244873046875,-0.399566650390625,-0.438262939453125
0.46258544921875,-0.7848663330078125,-0.596160888671875
0.6279144287109375,-2.392578125,-0.413665771484375
-0.2711181640625,-1.98565673828125,0.331024169921875
0.4989776611328125,-1.75604248046875,0.3675079345703125
0.428619384765625,-1.4481353759765625,-0.7167510986328125
-0.295440673828125,-0.990936279296875,-0.3826751708984375
0.2098236083984375,-0.8382415771484375,-0.0339508056640625
0.0519866943359375,-0.503814697265625,0.2314300537109375
-0.6872711181640625,-0.12481689453125,0.3817596435546875
0.0191192626953125,-0.7453765869140625,0.023712158203125
0.7109832763671875,-2.0048065185546875,-0.211700439453125
0.4686126708984375,-1.554962158203125,-0.2933807373046875
-0.25714111328125,-1.4066619873046875,-0.3354949951171875
0.43023681640625,-1.0985260009765625,-0.7370758056640625
1.20068359375,-0.6853179931640625,-0.454254150390625
0.379058837890625,-0.550872802734375,-0.4315948486328125
0.440826416015625,-0.3902435302734375,-0.320770263671875
0.519927978515625,-0.1587982177734375,-0.3011016845703125
0.576171875,-0.340484619140625,-0.2974090576171875
0.845184326171875,-0.9679412841796876,-0.439453125
0.5480499267578125,-2.7324371337890625,-0.430908203125
0.01263427734375,-1.7906036376953125,-0.0699310302734375
-0.5070037841796875,-1.4242401123046875,0.5834503173828125
-0.2212677001953125,-1.1396026611328125,-0.0724029541015625
0.2409820556640625,-0.9236297607421876,-0.29742431640625
0.5487213134765625,-0.781097412109375,-0.26904296875
0.2718963623046875,-0.8685150146484375,-0.338470458984375
0.1578826904296875,-0.7863006591796875,0.0094757080078125
-0.387725830078125,-0.48626708984375,0.3290863037109375
-0.207427978515625,-0.4435272216796875,0.201416015625
0.4057159423828125,-1.1030426025390625,-0.0939788818359375
0.506103515625,-1.2260284423828125,-0.4403076171875
0.684600830078125,-1.5761260986328125,-0.7379608154296875
0.121917724609375,-1.477752685546875,-0.5432891845703125
0.149993896484375,-1.042510986328125,-0.2468719482421875
0.256988525390625,-0.6849365234375,-0.1907196044921875
0.15277099609375,-0.6148681640625,-0.36895751953125
0.0940399169921875,-0.44439697265625,-0.598968505859375
0.378936767578125,-0.17315673828125,-0.814544677734375
0.436676025390625,-0.283843994140625,-0.8055572509765625
0.4029083251953125,-0.8412322998046875,-0.54376220703125
0.15557861328125,-2.3894195556640625,-0.39715576171875
-0.0945281982421875,-2.2436065673828125,0.0751495361328125
0.0838165283203125,-1.4027252197265625,0.232391357421875
0.277923583984375,-1.3308258056640625,-0.6353912353515625
0.3835601806640625,-1.1406097412109375,-0.6756591796875
0.1361846923828125,-1.1789703369140625,-0.044097900390625
0.301361083984375,-1.0600738525390625,0.3013458251953125
-0.9539642333984376,-0.421295166015625,0.7873687744140625
-1.0888519287109375,0.455322265625,0.6115264892578125
0.8411102294921875,-1.458038330078125,-0.0081329345703125
0.7594757080078125,-1.4120941162109375,-0.3233184814453125
0.6468048095703125,-1.805419921875,-0.5182037353515625
-0.5173492431640625,-1.5869293212890625,-0.4986724853515625
0.7282257080078125,-1.7854461669921875,-0.830413818359375
0.65869140625,-0.624908447265625,-0.3457489013671875
0.0556793212890625,-0.9451446533203124,-0.374298095703125
0.0598602294921875,-0.9896240234375,-0.727386474609375
0.3917694091796875,-1.1412506103515625,-0.7292633056640625
0.355377197265625,-1.40167236328125,-0.5147552490234375
0.3251800537109375,-1.5029449462890625,-0.3882293701171875
-0.014007568359375,-1.557403564453125,-0.1580963134765625
-0.1821136474609375,-1.249237060546875,-0.027984619140625
0.027496337890625,-0.9629974365234376,-0.11871337890625
0.247406005859375,-0.97503662109375,-0.2115936279296875
0.3070526123046875,-1.1065521240234375,-0.18927001953125
0.24224853515625,-1.35601806640625,-0.116302490234375
0.1610107421875,-1.3948211669921875,0.032684326171875
0.0227203369140625,-1.0533599853515625,0.003692626953125
0.010528564453125,-0.96868896484375,-0.0073394775390625
0.1699371337890625,-0.7807769775390625,-0.2060089111328125
0.0878143310546875,-0.59307861328125,-0.3332061767578125
0.0637054443359375,-0.6441192626953125,-0.370086669921875
0.17059326171875,-0.7558135986328125,-0.4022369384765625
0.1134796142578125,-0.7905120849609375,-0.38861083984375
0.166259765625,-0.7862701416015625,-0.2779693603515625
0.1849212646484375,-0.894622802734375,-0.251861572265625
0.5992279052734375,-0.9284820556640624,-0.5834808349609375
0.5076141357421875,-0.703857421875,-0.6528472900390625
0.4653472900390625,-0.651580810546875,-0.774658203125
0.05291748046875,-0.4360504150390625,-0.62554931640625
0.09857177734375,-0.388916015625,-0.502716064453125
0.53643798828125,-1.0082244873046875,-0.4704132080078125
0.4225921630859375,-2.9411773681640625,-0.365753173828125
-0.020050048828125,-2.0213775634765625,-0.0235137939453125
0.1520843505859375,-0.7991485595703125,0.1203460693359375
0.209381103515625,-0.8815765380859375,-0.6533050537109375
0.073211669921875,-1.148284912109375,-0.6208648681640625
0.05242919921875,-0.906280517578125,-0.0157318115234375
0.52471923828125,-0.71417236328125,0.03216552734375
0.2881622314453125,-0.665924072265625,0.1586151123046875
-0.9183502197265624,-0.135406494140625,0.3015289306640625
-0.3083648681640625,-0.3888092041015625,0.1654510498046875
0.7688751220703125,-1.6025848388671875,0.036102294921875
1.134246826171875,-1.8730010986328125,-0.69317626953125
0.643157958984375,-1.587799072265625,-0.9650726318359376
0.1304168701171875,-1.2791748046875,-0.455902099609375
0.4995880126953125,-0.8555145263671875,-0.179473876953125
-0.0686187744140625,-0.7704010009765625,-0.2655181884765625
-0.20465087890625,-0.5020751953125,-0.4705352783203125
0.3139495849609375,-0.221527099609375,-0.8306732177734375
0.493408203125,-0.197509765625,-0.8099822998046875
0.2251739501953125,-0.38433837890625,-0.6376495361328125
0.1847686767578125,-1.157684326171875,-0.6674346923828125
0.112457275390625,-3.7952728271484375,0.253875732421875
0.328094482421875,-1.3407135009765625,0.985504150390625
0.0984344482421875,-0.9019317626953124,-0.846832275390625
0.2306976318359375,-0.9655914306640624,-1.29437255859375
0.3477630615234375,-1.107635498046875,-0.236053466796875
0.7529296875,-0.811798095703125,-0.152984619140625
-0.2532958984375,-0.989654541015625,0.4555511474609375
-1.0703125,-0.1950836181640625,0.351104736328125
-0.3236846923828125,-0.454559326171875,0.073089599609375
0.1965484619140625,-1.2503204345703125,-0.0073089599609375
1.6389312744140625,-2.0743865966796875,-0.7123870849609375
0.51556396484375,-1.0670166015625,-1.4478912353515625
-0.5014495849609375,-1.1865081787109375,-0.624969482421875
0.660430908203125,-1.3072509765625,-0.4111785888671875
0.480072021484375,-0.9254302978515624,-0.614288330078125
0.004180908203125,-0.702239990234375,-0.3091888427734375
-0.152984619140625,-0.7819671630859375,-0.2108917236328125
0.020416259765625,-1.0759429931640625,-0.257965087890625
0.1442718505859375,-1.142425537109375,-0.4492645263671875
0.17535400390625,-1.7591705322265625,-0.43890380859375
-0.0079498291015625,-1.2313995361328125,-0.168670654296875
0.0721435546875,-1.3175048828125,-0.156036376953125
0.0995941162109375,-1.4824371337890625,-0.1517181396484375
0.2523193359375,-1.1419219970703125,-0.2303314208984375
0.500396728515625,-1.0239715576171875,-0.4338836669921875
0.236724853515625,-1.0509796142578125,-0.400604248046875
0.0078125,-0.91119384765625,-0.30224609375
-0.08209228515625,-0.7878265380859375,-0.1656646728515625
-0.0963134765625,-0.581329345703125,-0.154083251953125
0.0567474365234375,-0.40228271484375,-0.141357421875
0.2288665771484375,-0.3899993896484375,-0.2197113037109375
0.2475128173828125,-0.408111572265625,-0.266357421875
0.376007080078125,-0.5186920166015625,-0.41192626953125
0.513916015625,-1.0117034912109375,-0.3996124267578125
0.306793212890625,-1.512664794921875,-0.373046875
0.0892181396484375,-1.50408935546875,-0.2989349365234375
0.1445159912109375,-1.36614990234375,-0.296295166015625
0.2520599365234375,-1.2305450439453125,-0.339141845703125
0.1465911865234375,-0.944122314453125,-0.2207489013671875
0.124908447265625,-0.74188232421875,-0.116943359375
0.180419921875,-0.7601165771484375,-0.0471649169921875
0.2929534912109375,-0.74664306640625,-0.096099853515625
0.2602996826171875,-0.875030517578125,-0.1662750244140625
0.2704925537109375,-1.068389892578125,-0.2384490966796875
0.3158721923828125,-1.603424072265625,-0.469207763671875
0.062408447265625,-1.336944580078125,-0.396881103515625
-0.124114990234375,-1.012054443359375,-0.334136962890625
-0.097991943359375,-1.1615753173828125,-0.362213134765625
0.221160888671875,-1.3416748046875,-0.4524383544921875
0.10504150390625,-1.254180908203125,-0.424041748046875
0.011322021484375,-1.0048065185546875,-0.3019256591796875
0.1451568603515625,-0.7813720703125,-0.285430908203125
0.1865234375,-0.5907745361328125,-0.2699127197265625
0.155120849609375,-0.4434051513671875,-0.2050018310546875
0.1925506591796875,-0.3532867431640625,-0.1438751220703125
0.277923583984375,-0.37530517578125,-0.1466522216796875
0.4174041748046875,-0.5196533203125,-0.245147705078125
0.486907958984375,-0.669281005859375,-0.3809051513671875
0.42779541015625,-0.92718505859375,-0.3548583984375
0.1971435546875,-1.164276123046875,-0.2201385498046875
0.1837615966796875,-1.72332763671875,-0.06463623046875
0.2457427978515625,-1.657684326171875,-0.15826416015625
0.1912384033203125,-1.0483856201171875,-0.242950439453125
0.0642852783203125,-1.0072479248046875,-0.1544036865234375
0.036590576171875,-1.0986175537109375,-0.0372314453125
0.1369781494140625,-0.926727294921875,-0.027801513671875
0.1330413818359375,-0.76788330078125,-0.0293426513671875
0.223541259765625,-0.6923675537109375,-0.0229644775390625
0.2606658935546875,-0.6342010498046875,-0.1044769287109375
0.3098297119140625,-0.633056640625,-0.2371673583984375
0.2608184814453125,-0.6837615966796875,-0.317535400390625
0.2063446044921875,-0.73773193359375,-0.41265869140625
0.2691650390625,-1.019134521484375,-0.4557342529296875
0.281951904296875,-1.208251953125,-0.489227294921875
0.1610107421875,-1.3915557861328125,-0.5577850341796875
-0.061492919921875,-1.361968994140625,-0.478485107421875
-0.2417755126953125,-0.9553070068359376,-0.3407440185546875
-0.1546478271484375,-1.0727386474609375,-0.2781829833984375
-0.034759521484375,-1.2658538818359375,-0.2201995849609375
0.1508331298828125,-1.256072998046875,-0.1433563232421875
0.346954345703125,-1.118896484375,-0.384765625
0.288116455078125,-1.014892578125,-0.402191162109375
0.1842803955078125,-0.907379150390625,-0.481781005859375
0.18475341796875,-0.853240966796875,-0.427764892578125
0.0496826171875,-0.6795806884765625,-0.322174072265625
0.15106201171875,-0.52545166015625,-0.302947998046875
0.2044525146484375,-0.42333984375,-0.3365020751953125
0.175018310546875,-0.4122772216796875,-0.4966278076171875
0.1679229736328125,-0.552520751953125,-0.59234619140625
0.080108642578125,-0.6113433837890625,-0.59881591796875
0.089691162109375,-0.906097412109375,-0.4442138671875
0.004180908203125,-1.06744384765625,-0.352508544921875
0.089447021484375,-1.170867919921875,-0.373565673828125
0.0492095947265625,-1.29840087890625,-0.21990966796875
0.1893310546875,-1.259307861328125,-0.19580078125
0.185699462890625,-1.0734100341796875,-0.2322540283203125
0.1583251953125,-0.948211669921875,-0.2685546875
0.19696044921875,-0.8285369873046875,-0.2412872314453125
0.2245330810546875,-0.7995452880859375,-0.24395751953125
0.2026519775390625,-0.7498779296875,-0.246612548828125
0.1912841796875,-0.728485107421875,-0.27337646484375
0.1475067138671875,-0.8812255859375,-0.2487030029296875
0.222900390625,-1.0657806396484375,-0.3102569580078125
0.244476318359375,-1.2566070556640625,-0.4210662841796875
0.0669708251953125,-1.002655029296875,-0.5402374267578125
-0.094635009765625,-1.0420379638671875,-0.3421630859375
0.015777587890625,-1.5268402099609375,-0.3332366943359375
-0.175811767578125,-1.3716583251953125,-0.2527618408203125
0.0090484619140625,-1.2552337646484375,-0.3405303955078125
-0.0661163330078125,-1.1274261474609375,-0.398773193359375
0.1227874755859375,-1.065155029296875,-0.4836578369140625
0.1306610107421875,-0.9925384521484376,-0.4638671875
0.0272216796875,-0.852996826171875,-0.475006103515625
0.046356201171875,-0.725311279296875,-0.4716949462890625
0.0443115234375,-0.503570556640625,-0.45880126953125
0.1659393310546875,-0.4702911376953125,-0.5870819091796875
0.1599273681640625,-0.5609130859375,-0.6651611328125
0.0838623046875,-0.6122589111328125,-0.6588897705078125
0.0879364013671875,-0.687530517578125,-0.679962158203125
0.09710693359375,-0.7628631591796875,-0.764190673828125
-0.00250244140625,-0.719635009765625,-0.6897430419921875
-0.0397186279296875,-0.745361328125,-0.5315093994140625
0.033935546875,-0.7760009765625,-0.5819549560546875
-0.0176544189453125,-0.74542236328125,-0.58331298828125
-0.0787811279296875,-0.7061767578125,-0.4463958740234375
-0.0253448486328125,-0.652008056640625,-0.4674072265625
-0.001312255859375,-0.6922454833984375,-0.6264190673828125
-0.087799072265625,-0.686248779296875,-0.6020965576171875
-0.0629119873046875,-0.6678924560546875,-0.5245513916015625
0.0504150390625,-0.698516845703125,-0.5955352783203125
-0.00909423828125,-0.667816162109375,-0.6006927490234375
0.05078125,-0.767486572265625,-0.634735107421875
0.0943756103515625,-0.821624755859375,-0.615478515625
-0.0309600830078125,-1.0540771484375,-0.8314666748046875
0.004425048828125,-1.0001373291015625,-0.9358673095703124
0.4575347900390625,-1.178375244140625,-0.937225341796875
-0.051239013671875,-1.1468963623046875,-0.583282470703125
-0.0636749267578125,-1.290008544921875,-0.5045166015625
0.0205078125,-1.194061279296875,-0.39312744140625
0.0662689208984375,-1.0285797119140625,-0.4215240478515625
0.1441192626953125,-0.849334716796875,-0.4053802490234375
0.152313232421875,-0.7033843994140625,-0.3865509033203125
0.1970672607421875,-0.6206817626953125,-0.4023590087890625
0.1815643310546875,-0.57794189453125,-0.396759033203125
0.134368896484375,-0.503692626953125,-0.402496337890625
0.1903839111328125,-0.449615478515625,-0.416046142578125
0.167724609375,-0.4880523681640625,-0.4418487548828125
0.1843109130859375,-0.675628662109375,-0.56500244140625
0.29608154296875,-0.9468841552734376,-0.532989501953125
0.166595458984375,-1.0964813232421875,-0.4447021484375
0.044342041015625,-1.2041168212890625,-0.4004058837890625
0.1607818603515625,-1.0829925537109375,-0.3969573974609375
0.1697998046875,-1.2142181396484375,-0.347564697265625
-0.0018463134765625,-1.1759490966796875,-0.2247772216796875
0.086029052734375,-1.021942138671875,-0.22979736328125
0.2014617919921875,-0.8319091796875,-0.2058868408203125
0.138031005859375,-0.6985931396484375,-0.2349853515625
0.2352447509765625,-0.70159912109375,-0.2609710693359375
0.2659912109375,-0.53009033203125,-0.2595977783203125
0.26959228515625,-0.619964599609375,-0.3702545166015625
0.1397247314453125,-1.014068603515625,-0.472808837890625
-0.0247955322265625,-1.1126861572265625,-0.419464111328125
-0.0262908935546875,-1.5548095703125,-0.4290618896484375
-0.1662445068359375,-1.520294189453125,-0.319732666015625
-0.09442138671875,-1.24151611328125,-0.300384521484375
0.024169921875,-1.3090667724609375,-0.3240203857421875
0.1842803955078125,-1.3040618896484375,-0.33355712890625
0.1732177734375,-1.174163818359375,-0.4090576171875
0.0959625244140625,-1.0161285400390625,-0.3939361572265625
0.0970001220703125,-0.793487548828125,-0.371673583984375
0.1464080810546875,-0.552032470703125,-0.3906707763671875
0.2812347412109375,-0.41790771484375,-0.4454193115234375
0.2077789306640625,-0.2851715087890625,-0.432952880859375
0.2067108154296875,-0.18475341796875,-0.4772186279296875
0.1716461181640625,-0.2396087646484375,-0.5494232177734375
0.1042938232421875,-0.3509674072265625,-0.559722900390625
0.112335205078125,-0.5611419677734375,-0.5943145751953125
0.14251708984375,-0.8700714111328125,-0.6387939453125
0.3555908203125,-1.2415618896484375,-0.4792633056640625
0.21453857421875,-1.594085693359375,-0.3680267333984375
0.1372528076171875,-1.442535400390625,-0.54632568359375
-0.0138397216796875,-1.52325439453125,-0.343505859375
0.10455322265625,-1.410400390625,-0.08160400390625
0.025665283203125,-1.0426483154296875,0.016693115234375
-0.0337982177734375,-0.7310028076171875,0.0067291259765625
0.11932373046875,-0.5938873291015625,-0.0284423828125
0.2290802001953125,-0.529083251953125,-0.035247802734375
0.446380615234375,-0.6013641357421875,-0.188568115234375
0.6262359619140625,-0.6141510009765625,-0.3265838623046875
0.3107757568359375,-0.63323974609375,-0.261077880859375
0.2897491455078125,-0.383697509765625,-0.4113616943359375
0.5255889892578125,0.147857666015625,-0.3674468994140625
0.344757080078125,0.1922149658203125,-0.4481201171875
0.5527801513671875,-0.4118499755859375,-0.4479827880859375
0.6704864501953125,-1.109375,-0.6658477783203125
0.294097900390625,-0.972503662109375,-0.6639404296875
0.371551513671875,-0.8811798095703125,-0.64593505859375
0.3353118896484375,-0.8737030029296875,-0.58917236328125
0.2246551513671875,-0.7916717529296875,-0.3282623291015625
0.5652923583984375,-0.8215179443359375,-0.649078369140625
0.3493499755859375,-1.2568511962890625,-0.4921875
0.83544921875,-1.2920684814453125,-0.57745361328125
0.1907501220703125,-1.5123291015625,-0.84088134765625
0.2655792236328125,-1.1856842041015625,-1.1952362060546875
0.6955718994140625,-0.8185272216796875,-0.99566650390625
0.1285247802734375,-0.611419677734375,-1.2875213623046875
0.7008209228515625,-0.5478515625,-1.2364349365234375
0.2383880615234375,-0.49102783203125,-1.2358551025390625
0.0570526123046875,-0.669586181640625,-1.2115020751953125
-0.15008544921875,-0.824981689453125,-0.5041351318359375
0.48016357421875,-0.342926025390625,-1.3612518310546875
0.06396484375,0.035675048828125,-1.32684326171875
0.4998321533203125,-0.2594757080078125,-0.7491455078125
-0.319366455078125,0.11663818359375,-1.1799163818359375
-0.557769775390625,-0.5611572265625,-1.0553131103515625
0.10589599609375,-0.27685546875,-1.0167388916015625
0.392791748046875,-0.52850341796875,-0.9325714111328124
-0.0532379150390625,-0.376983642578125,-0.9090423583984376
-0.0987701416015625,-0.206207275390625,-0.867401123046875
-0.012054443359375,-0.1281280517578125,-0.7099609375
-0.023956298828125,-0.25372314453125,-0.734893798828125
0.0073699951171875,-0.2819366455078125,-0.8337860107421875
-0.030548095703125,-0.3477935791015625,-0.9415130615234376
-0.186981201171875,-0.3457183837890625,-0.8365631103515625
0.04498291015625,-0.3719024658203125,-1.131134033203125
-0.1432952880859375,-0.2499542236328125,-1.0158843994140625
-0.122589111328125,-0.2151031494140625,-0.9136505126953124
-0.1963348388671875,-0.1884002685546875,-0.99688720703125
-0.12152099609375,-0.2619781494140625,-0.995208740234375
-0.0485076904296875,-0.3333740234375,-0.9491729736328124
-0.166351318359375,-0.2826690673828125,-1.009796142578125
-0.1628570556640625,-0.2783355712890625,-0.9435882568359376
-0.1327056884765625,-0.2990570068359375,-0.8912506103515625
-0.1941070556640625,-0.3144989013671875,-0.8937225341796875
-0.231292724609375,-0.3078460693359375,-0.9402923583984376
-0.368072509765625,-0.2775726318359375,-0.9992218017578124
-0.280548095703125,-0.276885986328125,-0.938232421875
-0.400360107421875,-0.2175445556640625,-0.9069061279296876
-0.3303070068359375,-0.2332763671875,-0.867431640625
-0.372894287109375,-0.21807861328125,-0.94232177734375
-0.3605499267578125,-0.2431488037109375,-0.92181396484375
-0.3625030517578125,-0.243438720703125,-0.9140167236328124
-0.3394927978515625,-0.2418212890625,-0.899383544921875
-0.357879638671875,-0.2370452880859375,-0.901763916015625
-0.3586883544921875,-0.2169647216796875,-0.90191650390625
-0.3519287109375,-0.23162841796875,-0.9256591796875
-0.3714752197265625,-0.2537384033203125,-0.9252166748046876
-0.396240234375,-0.261871337890625,-0.9008331298828124
-0.4033050537109375,-0.2453155517578125,-0.899444580078125
-0.376861572265625,-0.245574951171875,-0.9405364990234376
-0.404327392578125,-0.242706298828125,-0.90228271484375
-0.415435791015625,-0.23809814453125,-0.882232666015625
-0.387359619140625,-0.226318359375,-0.8901214599609375
-0.4049224853515625,-0.2241668701171875,-0.891082763671875
-0.404998779296875,-0.2250823974609375,-0.885589599609375
-0.4071807861328125,-0.2193756103515625,-0.8743133544921875
-0.432647705078125,-0.2185821533203125,-0.8823394775390625
-0.4484710693359375,-0.2163238525390625,-0.8692626953125
-0.4522552490234375,-0.2262420654296875,-0.8817901611328125
-0.4478759765625,-0.2168426513671875,-0.8687744140625
-0.414154052734375,-0.23388671875,-0.9142303466796876
-0.4199066162109375,-0.2564849853515625,-0.8949432373046875
-0.4193115234375,-0.2516937255859375,-0.8825836181640625
-0.4652099609375,-0.22900390625,-0.87628173828125
-0.414703369140625,-0.235626220703125,-0.8827667236328125
-0.4498138427734375,-0.219635009765625,-0.8610992431640625
-0.4277801513671875,-0.2238616943359375,-0.880126953125
-0.4394989013671875,-0.2249298095703125,-0.878570556640625
-0.4399261474609375,-0.2397613525390625,-0.866546630859375
-0.4394073486328125,-0.242156982421875,-0.879913330078125
-0.471466064453125,-0.224395751953125,-0.8587493896484375
-0.4364471435546875,-0.2158203125,-0.857421875
-0.4568939208984375,-0.2107391357421875,-0.88092041015625
-0.41998291015625,-0.2226409912109375,-0.88604736328125
