AccelerationX,AccelerationY,AccelerationZ
0.047088623046875,0.0949554443359375,-1.0181427001953125
-0.016937255859375,0.063751220703125,-0.9586334228515624
-0.08355712890625,0.0350494384765625,-0.9017333984375
-0.076416015625,0.05023193359375,-1.0129547119140625
0.0731353759765625,0.059967041015625,-1.061614990234375
-0.0198974609375,-0.0319061279296875,-0.958282470703125
-0.2118072509765625,-0.1610107421875,-0.6832275390625
-0.0776214599609375,-0.00701904296875,-1.0285186767578125
-0.1346588134765625,0.0601348876953125,-0.88653564453125
-0.2103729248046875,-0.1147613525390625,-0.852783203125
-0.2736358642578125,-0.1078643798828125,-0.5343017578125
-0.329925537109375,-0.04766845703125,-0.4638824462890625
-0.465606689453125,0.0337982177734375,-0.6338653564453125
-0.438995361328125,0.2455291748046875,-0.184234619140625
-0.479156494140625,0.3710784912109375,0.180511474609375
-0.680419921875,0.5649566650390625,0.3405609130859375
-0.74969482421875,0.7726898193359375,0.3663330078125
-0.9396514892578124,1.1258544921875,0.397247314453125
-1.347869873046875,1.467376708984375,0.2793121337890625
-1.6701507568359375,1.572174072265625,0.033355712890625
-1.721710205078125,1.333282470703125,-0.0009002685546875
-1.5643310546875,0.9990081787109376,0.0904388427734375
-1.456390380859375,0.804443359375,0.04388427734375
-1.41778564453125,0.6679534912109375,0.1397857666015625
-1.3272857666015625,0.5673370361328125,0.259307861328125
-1.3481292724609375,0.5312042236328125,0.187042236328125
-1.3475799560546875,0.473052978515625,0.0030517578125
-1.4143524169921875,0.4319305419921875,-0.217864990234375
-1.37274169921875,0.5958404541015625,-0.290985107421875
-1.106597900390625,0.6280670166015625,-0.09832763671875
-1.3347930908203125,0.96630859375,-0.0360107421875
-1.6097564697265625,1.3830413818359375,-0.050537109375
-1.567535400390625,1.574981689453125,-0.2081451416015625
-1.426971435546875,1.6715087890625,-0.3560333251953125
-1.03070068359375,1.5123138427734375,-0.3090667724609375
-0.75897216796875,1.2845001220703125,-0.21484375
-0.7130889892578125,1.08880615234375,-0.1975860595703125
-0.58380126953125,1.011444091796875,-0.1795654296875
-0.32574462890625,0.9935302734375,0.0011444091796875
0.07318115234375,0.8600921630859375,0.246917724609375
0.1495208740234375,0.88330078125,0.2184295654296875
0.083343505859375,0.9459075927734376,0.11822509765625
-0.3062591552734375,0.9614715576171876,0.00628662109375
-0.8154754638671875,1.3842315673828125,0.079986572265625
-1.11865234375,1.6695404052734375,0.1978912353515625
-1.2764129638671875,1.70172119140625,0.191131591796875
-1.3263092041015625,1.4782257080078125,0.07366943359375
-1.3723602294921875,1.26239013671875,-0.048980712890625
-1.360260009765625,0.9839935302734376,-0.2441558837890625
-1.4312896728515625,0.6286163330078125,-0.211578369140625
-1.57635498046875,0.6190185546875,-0.156829833984375
-1.3579254150390625,0.6799774169921875,0.1183929443359375
-1.2838287353515625,0.5799560546875,0.0471954345703125
-1.37811279296875,0.6193695068359375,-0.275970458984375
-1.4236907958984375,0.9147186279296876,-0.493133544921875
-1.1839141845703125,0.823272705078125,-0.2818450927734375
-1.4249114990234375,1.2443389892578125,-0.18896484375
-1.4601287841796875,1.626129150390625,-0.0388031005859375
-1.3996734619140625,1.7001495361328125,-0.127960205078125
-1.288238525390625,1.786468505859375,-0.29473876953125
-0.9465789794921876,1.6765289306640625,-0.17584228515625
-0.63525390625,1.3911590576171875,0.0360565185546875
-0.52886962890625,1.1001739501953125,0.1005096435546875
-0.3532867431640625,0.891448974609375,0.0878448486328125
0.0482330322265625,0.7066650390625,0.1380615234375
0.274444580078125,0.5762481689453125,0.070587158203125
0.093353271484375,0.6223602294921875,-0.1009368896484375
-0.0675811767578125,0.67987060546875,-0.0680999755859375
-0.378814697265625,0.9432830810546876,0.053863525390625
-0.66461181640625,1.2698516845703125,0.3299560546875
-0.988922119140625,1.411590576171875,0.14190673828125
-1.165557861328125,1.533477783203125,-0.056884765625
-1.3484649658203125,1.7464447021484375,-0.0960693359375
-1.4582672119140625,1.6964569091796875,0.034393310546875
-1.576019287109375,1.3241729736328125,0.19439697265625
-1.4908905029296875,0.902099609375,0.12921142578125
-1.4252471923828125,0.7992095947265625,0.032501220703125
-1.382049560546875,0.7742919921875,0.0522003173828125
-1.25128173828125,0.5672760009765625,-0.4104461669921875
-1.198577880859375,0.5219573974609375,-0.8159942626953125
-1.103668212890625,0.709381103515625,-0.537811279296875
-1.3645782470703125,1.08990478515625,-0.1965179443359375
-1.690948486328125,1.5040283203125,-0.046417236328125
-1.6221771240234375,1.67498779296875,-0.200714111328125
-1.545989990234375,1.97406005859375,-0.3714447021484375
-1.2142791748046875,2.167221069335937,-0.3861236572265625
-0.7830352783203125,2.046661376953125,-0.3338470458984375
-0.6505889892578125,1.876861572265625,-0.3956146240234375
-0.3924713134765625,1.5540618896484375,-0.323883056640625
-0.2178802490234375,1.3756866455078125,-0.1533966064453125
0.4656829833984375,1.1063995361328125,0.0302734375
0.6573638916015625,0.8686676025390625,-0.1055145263671875
0.3917236328125,0.944976806640625,0.0092620849609375
0.0770721435546875,1.053558349609375,0.09283447265625
-0.365142822265625,1.518341064453125,0.0233612060546875
-0.98077392578125,1.7907257080078125,-0.0239105224609375
-1.252288818359375,1.8425445556640625,0.1005401611328125
-1.1790313720703125,1.6466217041015625,0.08880615234375
-1.3294219970703125,1.4883270263671875,0.1110992431640625
-1.3627166748046875,1.1766815185546875,0.22503662109375
-1.4770965576171875,1.2055206298828125,0.0806732177734375
-1.4158782958984375,1.2120361328125,-0.2463836669921875
-1.50970458984375,1.0739898681640625,-0.5345001220703125
-1.5948944091796875,0.4881134033203125,-0.689727783203125
-2.12188720703125,0.474853515625,-0.7873687744140625
-1.6556243896484375,0.648773193359375,-0.3815155029296875
-1.5174560546875,1.2070770263671875,-0.0490875244140625
-1.80279541015625,1.852447509765625,-0.1442108154296875
-1.8789520263671875,2.5985565185546875,-0.3608551025390625
-1.3111572265625,2.6390838623046875,-0.307952880859375
-0.8668060302734375,2.219818115234375,-0.2624359130859375
-0.5836334228515625,1.646209716796875,-0.1793670654296875
-0.5452728271484375,1.37628173828125,0.0363616943359375
-0.3805694580078125,1.147003173828125,-0.005462646484375
-0.1138916015625,0.9223785400390624,-0.080047607421875
0.0169677734375,0.78009033203125,-0.101959228515625
0.05181884765625,0.66937255859375,-0.0394287109375
-0.0766143798828125,0.8182373046875,0.0708465576171875
-0.100555419921875,0.80047607421875,-0.04888916015625
-0.256744384765625,1.1096954345703125,-0.0686798095703125
-0.5024566650390625,1.3970184326171875,-0.005157470703125
-1.1255340576171875,1.6004638671875,0.1477508544921875
-1.2455902099609375,1.5487213134765625,0.32708740234375
-1.19647216796875,1.5503997802734375,0.18194580078125
-1.3303680419921875,1.4190826416015625,-0.068359375
-1.3473968505859375,1.0718994140625,-0.2184600830078125
-1.698028564453125,0.98187255859375,-0.3496551513671875
-1.88470458984375,0.95281982421875,-0.5462188720703125
-1.707916259765625,0.9095001220703124,-0.6534881591796875
-1.4357147216796875,0.58245849609375,-0.5495758056640625
-1.550140380859375,0.81317138671875,-0.51849365234375
-1.1981353759765625,0.9484100341796876,-0.318695068359375
-1.306793212890625,1.304901123046875,-0.010162353515625
-1.5354766845703125,1.89678955078125,-0.2302703857421875
-1.0845794677734375,1.958984375,-0.727996826171875
-0.5942230224609375,1.3986053466796875,-0.52142333984375
-0.6057281494140625,1.17724609375,-0.0252532958984375
-0.605926513671875,1.0801239013671875,0.1878814697265625
-0.5840911865234375,1.0582275390625,0.206695556640625
-0.602783203125,1.04595947265625,0.002105712890625
-0.5211639404296875,1.0449981689453125,-0.24066162109375
-0.3969573974609375,0.93231201171875,-0.2852935791015625
-0.2645721435546875,0.7873687744140625,-0.2223358154296875
-0.032440185546875,0.8168487548828125,-0.157196044921875
0.412994384765625,0.71795654296875,-0.0201873779296875
-0.0412750244140625,0.9909820556640624,0.164764404296875
-0.590911865234375,1.3584136962890625,0.3786163330078125
-0.9832611083984376,1.520782470703125,0.29541015625
-1.2063140869140625,1.6873931884765625,0.1577301025390625
-1.3982391357421875,1.60009765625,0.1290740966796875
-1.4686279296875,1.3504180908203125,0.2640838623046875
-1.476898193359375,0.97515869140625,0.3844146728515625
-1.46142578125,0.732513427734375,0.285430908203125
-1.3527984619140625,0.867767333984375,0.0980987548828125
-1.12457275390625,0.883941650390625,0.1413116455078125
-1.040863037109375,0.5627899169921875,0.045196533203125
-1.276885986328125,0.5056915283203125,-0.0356597900390625
-1.3909149169921875,0.777252197265625,-0.03240966796875
-1.480438232421875,1.218170166015625,0.0214080810546875
-1.59039306640625,1.6176605224609375,-0.0958099365234375
-1.5800018310546875,1.858001708984375,-0.2186126708984375
-1.282257080078125,1.8665924072265625,-0.259368896484375
-1.0728912353515625,1.9196624755859373,-0.1573638916015625
-0.7036590576171875,1.6460418701171875,-0.11212158203125
-0.549591064453125,1.3020477294921875,-0.2047882080078125
-0.5506744384765625,1.1929168701171875,-0.1937103271484375
-0.375701904296875,1.1214141845703125,-0.035400390625
-0.0623931884765625,0.96044921875,0.13031005859375
0.25384521484375,0.64422607421875,0.13525390625
0.010345458984375,0.724700927734375,-0.083038330078125
0.0285797119140625,0.7265625,-0.0330657958984375
-0.2962188720703125,0.946380615234375,-0.012664794921875
-0.6884918212890625,1.362518310546875,0.0906982421875
-0.9820556640625,1.6006927490234375,0.28887939453125
-1.20452880859375,1.55047607421875,0.27008056640625
-1.2508697509765625,1.4288787841796875,0.1751251220703125
-1.268463134765625,1.4128875732421875,0.048126220703125
-1.3483734130859375,1.3109893798828125,0.012115478515625
-1.404693603515625,1.108642578125,-0.0688323974609375
-1.427520751953125,0.94390869140625,-0.003936767578125
-1.6070404052734375,0.661865234375,-0.0977020263671875
-1.648529052734375,0.5059814453125,-0.088104248046875
-1.494171142578125,0.6443939208984375,-0.12066650390625
-1.311981201171875,0.83990478515625,-0.1435394287109375
-1.26904296875,1.076995849609375,-0.1233978271484375
-1.4175262451171875,1.4752044677734375,-0.155670166015625
-1.4879150390625,1.7909698486328125,-0.183837890625
-1.31134033203125,1.7811279296875,-0.16583251953125
-1.1618499755859375,1.7155303955078125,-0.12762451171875
-1.0514068603515625,1.6922760009765625,-0.0931396484375
-0.7142486572265625,1.4846649169921875,-0.1209869384765625
-0.3988800048828125,1.1141357421875,-0.1489410400390625
-0.373443603515625,0.9082794189453124,-0.1315460205078125
-0.3143768310546875,0.739654541015625,-0.124481201171875
-0.2071685791015625,0.5550384521484375,-0.096893310546875
-0.19830322265625,0.531768798828125,-0.1367034912109375
0.0008544921875,0.65802001953125,-0.1190185546875
-0.1272430419921875,0.6498870849609375,-0.1096038818359375
-0.631317138671875,0.837066650390625,0.06817626953125
-0.8576812744140625,1.096923828125,0.053802490234375
-1.17010498046875,1.4469146728515625,0.3499755859375
-1.344329833984375,1.4827728271484375,0.1376190185546875
-1.5337371826171875,1.3577880859375,0.2734222412109375
-1.4776763916015625,1.0362091064453125,0.5296173095703125
-1.3942413330078125,0.7736663818359375,0.6298065185546875
-1.2618560791015625,0.7416534423828125,0.57293701171875
-1.0752105712890625,0.6881561279296875,0.507354736328125
-1.0496826171875,0.631072998046875,0.35650634765625
-1.027191162109375,0.5482177734375,0.3315277099609375
-0.9152069091796876,0.5403289794921875,0.4525909423828125
-0.8997955322265625,0.6229248046875,0.214508056640625
-1.0527496337890625,0.9053802490234376,-0.203704833984375
-1.1323699951171875,1.1189422607421875,-0.526641845703125
-0.6823883056640625,0.8853607177734375,-0.722869873046875
-0.76226806640625,0.7475128173828125,-1.0233612060546875
-0.7623138427734375,0.627685546875,-0.9075164794921876
-0.7090606689453125,0.505889892578125,-0.8266143798828125
-0.9858551025390624,0.60443115234375,-1.1174468994140625
-1.2284393310546875,0.73345947265625,-1.0025177001953125
-1.1749114990234375,0.98406982421875,-0.9635009765625
-0.9969635009765624,1.2212982177734375,-0.866973876953125
-1.0030364990234375,1.3213043212890625,-0.8878936767578125
-1.0422210693359375,1.4156951904296875,-0.7987518310546875
-0.93243408203125,1.4284515380859375,-0.562469482421875
-0.7100067138671875,1.37451171875,-0.443572998046875
-0.4875335693359375,1.1685028076171875,-0.3365020751953125
-0.4412994384765625,1.0102691650390625,-0.179168701171875
-0.165252685546875,0.9610443115234376,0.04998779296875
0.2621612548828125,0.9966583251953124,0.296356201171875
0.2278900146484375,1.0138397216796875,0.3221893310546875
-0.3945770263671875,1.1384735107421875,0.0843963623046875
-0.5011138916015625,1.170166015625,0.0333099365234375
-0.71685791015625,1.1717071533203125,0.1492919921875
-1.0443572998046875,1.1548919677734375,0.3811187744140625
-1.1527557373046875,1.1521453857421875,0.2833099365234375
-1.12164306640625,1.110626220703125,0.1485748291015625
-1.218719482421875,1.06488037109375,0.0552978515625
-1.3113250732421875,0.9829254150390624,0.0509796142578125
-1.3593597412109375,0.838958740234375,0.0532073974609375
-1.3573150634765625,0.8036651611328125,0.069122314453125
-1.2154998779296875,0.599212646484375,-0.0312347412109375
-1.3029327392578125,0.3142242431640625,-0.2342529296875
-1.7152862548828125,0.45953369140625,-0.43792724609375
-1.35797119140625,0.62896728515625,-0.1836090087890625
-1.3298797607421875,1.080413818359375,-0.1326751708984375
-1.4005889892578125,1.3951263427734375,-0.1645660400390625
-1.4378814697265625,1.628631591796875,-0.2967529296875
-1.2978057861328125,1.7720489501953125,-0.356597900390625
-1.068572998046875,1.7758941650390625,-0.2776336669921875
-0.7608642578125,1.5960845947265625,-0.174835205078125
-0.7395172119140625,1.4039154052734375,-0.1385955810546875
-0.6394805908203125,1.241119384765625,-0.1230926513671875
-0.3003997802734375,1.187591552734375,0.1070709228515625
0.35614013671875,0.986328125,0.201629638671875
0.3001556396484375,0.8675079345703125,-0.08251953125
0.0530548095703125,0.8279876708984375,0.00311279296875
-0.3671875,0.90765380859375,0.024169921875
-0.6182403564453125,1.2032318115234375,0.0934600830078125
-0.870269775390625,1.38983154296875,0.1884002685546875
-1.0933074951171875,1.4093780517578125,0.177703857421875
-1.221343994140625,1.4477691650390625,0.0291595458984375
-1.2906036376953125,1.37347412109375,-0.060577392578125
-1.3438873291015625,1.070587158203125,-0.00946044921875
-1.348846435546875,0.8061065673828125,0.01239013671875
-1.3050994873046875,0.8848876953125,0.0264739990234375
-1.214996337890625,0.84674072265625,-0.012298583984375
-1.2083587646484375,0.6714324951171875,-0.092926025390625
-1.3071136474609375,0.6238861083984375,-0.1510467529296875
-1.1557769775390625,0.63751220703125,-0.0868377685546875
-1.05584716796875,0.630828857421875,-0.0150604248046875
-1.22918701171875,0.8930816650390625,-0.0307159423828125
-1.3506927490234375,1.2491455078125,-0.1093292236328125
-1.3581390380859375,1.46221923828125,-0.2006988525390625
-1.2801666259765625,1.551849365234375,-0.1270904541015625
-1.1522064208984375,1.583099365234375,0.0567169189453125
-0.9240570068359376,1.4830474853515625,0.23797607421875
-0.7404327392578125,1.352081298828125,0.2466278076171875
-0.5895538330078125,1.2520904541015625,0.1245880126953125
-0.268402099609375,0.990875244140625,0.315185546875
-0.00244140625,0.701324462890625,0.5529937744140625
-0.046234130859375,0.588348388671875,0.4636077880859375
-0.1625213623046875,0.7086181640625,0.259185791015625
-0.3090667724609375,0.8838958740234375,-0.0438079833984375
-0.4996185302734375,0.9616851806640624,-0.224212646484375
-0.6645660400390625,1.0424957275390625,-0.20428466796875
-0.803466796875,1.01251220703125,-0.14239501953125
-0.876678466796875,0.891845703125,-0.038421630859375
-0.839141845703125,0.7358551025390625,0.0918426513671875
-0.7897186279296875,0.6749420166015625,0.0886077880859375
-0.8158111572265625,0.728363037109375,-0.1231231689453125
-1.1486663818359375,1.1273956298828125,-0.19549560546875
-1.215667724609375,1.0954132080078125,-0.3126220703125
-1.6512908935546875,1.038421630859375,-0.3439483642578125
-1.9839935302734373,0.8880157470703125,-0.375335693359375
-1.737060546875,0.49853515625,-0.5107879638671875
-1.58502197265625,0.6439666748046875,-0.4275970458984375
-1.16571044921875,0.552703857421875,-0.3840179443359375
-1.200653076171875,0.8952789306640625,-0.396636962890625
-1.1934661865234375,1.24053955078125,-0.325103759765625
-0.9085693359375,1.125244140625,-0.3080902099609375
-0.87078857421875,1.0034332275390625,-0.2196197509765625
-0.8732147216796875,1.0073394775390625,-0.0821533203125
-0.7165985107421875,0.9736328125,0.060272216796875
-0.5493927001953125,0.9609527587890624,0.1149749755859375
-0.4433135986328125,0.8806304931640625,-0.0379791259765625
-0.35015869140625,0.8445892333984375,-0.0852203369140625
-0.15875244140625,0.7803802490234375,0.100433349609375
-0.0367279052734375,0.666595458984375,0.1419219970703125
-0.148712158203125,0.59173583984375,-0.0343170166015625
-0.4687347412109375,0.8535003662109375,0.037750244140625
-0.552459716796875,1.0033111572265625,0.1349334716796875
-0.8793487548828125,1.358795166015625,0.0359039306640625
-1.1156158447265625,1.5447998046875,0.0261688232421875
-1.1167755126953125,1.174102783203125,-0.0080718994140625
-1.0677490234375,0.9150390625,0.060546875
-0.9304046630859376,0.79718017578125,0.1973724365234375
-0.858154296875,0.8059539794921875,0.2698211669921875
-0.900726318359375,0.8853912353515625,0.173492431640625
-1.0016021728515625,0.973358154296875,-0.0652923583984375
-1.2462921142578125,0.852813720703125,-0.141510009765625
-1.44427490234375,0.67919921875,-0.1080780029296875
-1.320892333984375,0.678802490234375,-0.1121673583984375
-1.1501007080078125,1.0331268310546875,-0.0431671142578125
-0.9316253662109376,0.9356689453125,0.056793212890625
-1.193267822265625,1.21038818359375,0.0337066650390625
-1.3433837890625,1.500518798828125,-0.0754241943359375
-1.1436920166015625,1.3986053466796875,-0.20135498046875
-0.9714813232421876,1.3354644775390625,-0.2512054443359375
-0.907012939453125,1.44720458984375,-0.146484375
-0.639068603515625,1.373687744140625,-0.129913330078125
-0.4842071533203125,1.18804931640625,-0.203094482421875
-0.4887237548828125,1.0750274658203125,-0.1215057373046875
-0.307586669921875,1.064697265625,0.1797943115234375
0.244903564453125,0.815338134765625,0.402587890625
0.230255126953125,0.6988372802734375,-0.017303466796875
-0.126312255859375,0.842529296875,-0.277679443359375
-0.3509368896484375,0.9251251220703124,-0.1905059814453125
-0.7186126708984375,1.2859649658203125,-0.0024871826171875
-1.01434326171875,1.5172271728515625,0.2448577880859375
-1.108123779296875,1.3596649169921875,0.2433929443359375
-1.1185302734375,1.146026611328125,0.0608978271484375
-1.1214447021484375,1.0741729736328125,-0.0688018798828125
-1.1164093017578125,0.983154296875,-0.0751190185546875
-1.1988372802734375,0.8788604736328125,0.0359649658203125
-1.181854248046875,0.8089752197265625,0.05413818359375
-1.1887359619140625,0.8388519287109375,-0.0185546875
-1.192138671875,0.789031982421875,-0.0621185302734375
-1.133575439453125,0.6196136474609375,-0.0496063232421875
-1.280853271484375,0.77081298828125,-0.0261688232421875
-1.1624908447265625,0.69512939453125,0.0335540771484375
-1.2796630859375,0.877044677734375,-0.0718994140625
-1.38140869140625,1.213287353515625,-0.07513427734375
-1.3951873779296875,1.613616943359375,-0.06689453125
-1.234771728515625,1.7700042724609375,-0.0032501220703125
-0.998626708984375,1.7024078369140625,0.116851806640625
-0.7985992431640625,1.4491729736328125,0.20001220703125
-0.5103759765625,1.392120361328125,0.415771484375
0.1915435791015625,1.0527496337890625,0.6307830810546875
0.4679107666015625,0.9145965576171876,0.5653076171875
0.029052734375,0.89306640625,0.1270599365234375
-0.377960205078125,0.9095611572265624,-0.0470123291015625
-0.584564208984375,0.961639404296875,-0.1388702392578125
-0.6639556884765625,1.062225341796875,-0.198974609375
-0.8252105712890625,1.08026123046875,-0.217529296875
-1.1237640380859375,1.284515380859375,-0.1534423828125
-1.0792083740234375,1.2108154296875,-0.29217529296875
-0.9969940185546876,0.9785919189453124,-0.4083251953125
-0.961151123046875,0.7792205810546875,-0.2782745361328125
-0.956878662109375,0.691802978515625,-0.0355987548828125
-0.944580078125,0.6899871826171875,0.0461883544921875
-1.045654296875,0.8640899658203125,0.06329345703125
-1.0963897705078125,0.926055908203125,0.0677642822265625
-1.281707763671875,0.9565887451171876,-0.0085601806640625
-1.396636962890625,0.750335693359375,-0.17657470703125
-1.45989990234375,0.462127685546875,-0.181060791015625
-1.551239013671875,0.5946197509765625,-0.1820831298828125
-1.2452850341796875,0.6950531005859375,-0.049835205078125
-1.3373870849609375,0.9830169677734376,-0.096923828125
-1.5129241943359375,1.3293304443359375,-0.198822021484375
-1.4528045654296875,1.618011474609375,-0.248992919921875
-1.219757080078125,1.6825103759765625,-0.2283935546875
-0.8781280517578125,1.5675811767578125,-0.0907745361328125
-0.5846099853515625,1.2220916748046875,-0.003173828125
-0.53497314453125,0.9769287109375,-0.0869903564453125
-0.4653472900390625,0.830841064453125,-0.093841552734375
-0.3104248046875,0.797882080078125,-0.0440521240234375
-0.14385986328125,0.72955322265625,-0.0233001708984375
-0.0052642822265625,0.5983428955078125,0.0217437744140625
-0.140106201171875,0.6410369873046875,0.008026123046875
-0.2215118408203125,0.77423095703125,0.04290771484375
-0.449371337890625,0.996368408203125,-0.0575408935546875
-0.8608551025390625,1.3939056396484375,0.044921875
-1.09197998046875,1.56658935546875,0.1868438720703125
-1.19744873046875,1.35382080078125,0.314208984375
-1.2005615234375,1.22222900390625,0.263946533203125
-1.109588623046875,1.1539459228515625,0.0862274169921875
-1.072113037109375,1.024322509765625,-0.0960845947265625
-1.12353515625,0.90606689453125,-0.1819915771484375
-1.09954833984375,0.8726959228515625,-0.1199951171875
-1.111480712890625,0.911041259765625,-0.0097503662109375
-1.086181640625,0.723602294921875,0.09429931640625
-1.157928466796875,0.51318359375,0.096038818359375
-1.2930145263671875,0.630645751953125,0.08953857421875
-1.146270751953125,0.734283447265625,0.06427001953125
-1.1830902099609375,0.9015960693359376,-0.073486328125
-1.2404327392578125,1.091796875,-0.1703643798828125
-1.4127349853515625,1.44970703125,-0.1542510986328125
-1.2967987060546875,1.5608367919921875,-0.14306640625
-1.22174072265625,1.6418609619140625,-0.191864013671875
-0.9862060546875,1.59466552734375,-0.213897705078125
-0.6653289794921875,1.3426055908203125,-0.2036895751953125
-0.517425537109375,1.03485107421875,-0.1414642333984375
-0.44183349609375,0.805633544921875,-0.061187744140625
-0.33782958984375,0.688568115234375,-0.00732421875
-0.2469940185546875,0.62725830078125,-0.01708984375
-0.157073974609375,0.52825927734375,-0.051239013671875
-0.219024658203125,0.6069488525390625,-0.0149078369140625
-0.23760986328125,0.6753387451171875,0.0508880615234375
-0.47515869140625,0.81842041015625,0.1608123779296875
-0.7866058349609375,1.0906982421875,0.2060089111328125
-1.023101806640625,1.4537353515625,0.24365234375
-1.1918182373046875,1.5054779052734375,0.3207550048828125
-1.3627471923828125,1.354949951171875,0.365264892578125
-1.291290283203125,1.0845794677734375,0.3574066162109375
-1.2164154052734375,0.917022705078125,0.3919830322265625
-1.08990478515625,0.7682342529296875,0.349456787109375
-1.039398193359375,0.7126007080078125,0.4397735595703125
-0.9582366943359376,0.643798828125,0.4742584228515625
-0.9529571533203124,0.5990753173828125,0.3495330810546875
-0.947296142578125,0.5915069580078125,0.2139434814453125
-0.8935089111328125,0.674835205078125,0.1868743896484375
-0.8449859619140625,0.7550506591796875,0.030120849609375
-1.008270263671875,1.0207672119140625,-0.2831878662109375
-0.773406982421875,1.2817230224609375,-0.5087890625
-0.2962188720703125,1.1847686767578125,-0.699676513671875
-0.272857666015625,0.9109954833984376,-0.7082061767578125
-0.388031005859375,0.6989288330078125,-0.5919036865234375
-0.4654541015625,0.581756591796875,-0.5484771728515625
-0.6924285888671875,0.6666259765625,-0.69207763671875
-0.94036865234375,0.8058319091796875,-0.8638153076171875
-1.074371337890625,0.9084625244140624,-0.959014892578125
-1.0031890869140625,0.814727783203125,-0.9878997802734376
-1.0972442626953125,0.9434356689453124,-0.7852630615234375
-1.15423583984375,1.13580322265625,-0.6265411376953125
-1.1072845458984375,1.43255615234375,-0.522918701171875
-0.853759765625,1.5160064697265625,-0.5363006591796875
-0.724639892578125,1.4562530517578125,-0.5367584228515625
-0.5872039794921875,1.2827301025390625,-0.491424560546875
-0.4096832275390625,1.0915069580078125,-0.3619842529296875
-0.234893798828125,0.9464874267578124,-0.2623291015625
-0.2146453857421875,0.952362060546875,-0.0933990478515625
0.0125885009765625,1.029083251953125,0.3139495849609375
-0.138885498046875,1.07598876953125,0.4117889404296875
-0.4622802734375,1.1324615478515625,0.0946044921875
-0.57550048828125,1.0563201904296875,0.1611785888671875
-0.6435699462890625,1.030120849609375,0.5233001708984375
-0.82342529296875,1.053680419921875,0.476715087890625
-0.996795654296875,1.1676025390625,0.3001708984375
-1.030181884765625,1.2227020263671875,0.1734771728515625
-1.0552825927734375,1.116119384765625,0.106353759765625
-1.15020751953125,1.031005859375,0.15283203125
-1.2294158935546875,0.899932861328125,0.1198883056640625
-1.313751220703125,0.7541656494140625,0.082916259765625
-1.2825164794921875,0.4836578369140625,-0.11309814453125
-1.4420623779296875,0.54852294921875,-0.1567535400390625
-1.230010986328125,0.777130126953125,-0.07757568359375
-1.1351165771484375,0.87432861328125,-0.059112548828125
-1.3825836181640625,1.243377685546875,-0.1393280029296875
-1.4759979248046875,1.6728668212890625,-0.212310791015625
-1.251373291015625,1.759124755859375,-0.3390350341796875
-1.1766510009765625,1.7884368896484375,-0.3639068603515625
-0.9013519287109376,1.6409759521484375,-0.1765594482421875
-0.5657806396484375,1.3360443115234375,-0.0921478271484375
-0.48974609375,1.1143798828125,-0.120391845703125
-0.3719024658203125,1.0176239013671875,-0.054931640625
-0.151336669921875,0.9329071044921876,0.110107421875
0.093536376953125,0.7003631591796875,0.235443115234375
0.02435302734375,0.5878143310546875,0.1398468017578125
-0.186065673828125,0.639739990234375,0.1021728515625
-0.3659820556640625,0.845428466796875,0.11761474609375
-0.5173797607421875,1.108123779296875,0.00750732421875
-0.861053466796875,1.549346923828125,0.0027618408203125
-1.136566162109375,1.5732269287109375,-0.069000244140625
-1.2818450927734375,1.3037109375,0.015533447265625
-1.18829345703125,1.022918701171875,0.1300506591796875
-1.1101531982421875,0.8064117431640625,0.082977294921875
-1.23919677734375,0.71527099609375,-0.0402984619140625
-1.449005126953125,0.78619384765625,-0.109161376953125
-1.437652587890625,0.8555908203125,-0.0807647705078125
-1.235931396484375,0.743560791015625,-0.1871337890625
-1.090484619140625,0.71234130859375,-0.4288330078125
-1.1188507080078125,0.84893798828125,-0.486907958984375
-0.9734954833984376,0.89935302734375,-0.315216064453125
-0.847503662109375,0.928802490234375,-0.00439453125
-1.19329833984375,1.2412109375,-0.073211669921875
-0.9208831787109376,1.3348388671875,-0.321197509765625
-0.61456298828125,1.1537933349609375,-0.3243408203125
-0.6328125,1.0644989013671875,-0.1951904296875
-0.5853118896484375,0.9901123046875,-0.011932373046875
-0.4874114990234375,0.9217529296875,0.0592803955078125
-0.4153289794921875,0.8316802978515625,0.0204315185546875
-0.422637939453125,0.887939453125,-0.04205322265625
-0.147857666015625,0.8082122802734375,-0.0736541748046875
0.13446044921875,0.5634307861328125,-0.175323486328125
-0.1725921630859375,0.8510284423828125,-0.056427001953125
-0.0290679931640625,0.9467315673828124,0.1392669677734375
-0.4040985107421875,1.2375030517578125,0.3144073486328125
-0.9654998779296876,1.3928375244140625,0.2358245849609375
-1.0460662841796875,1.4468231201171875,-0.038482666015625
-1.079315185546875,1.3870086669921875,-0.226531982421875
-1.1014404296875,1.181884765625,-0.0291748046875
-1.094573974609375,0.9124298095703124,0.187591552734375
-1.1245574951171875,0.68658447265625,0.2145538330078125
-1.1957550048828125,0.6956329345703125,0.0889739990234375
-1.1930999755859375,0.8389129638671875,-0.0012664794921875
-1.127655029296875,0.9488372802734376,-0.135345458984375
-1.05584716796875,0.873931884765625,-0.27117919921875
-1.0240478515625,0.652435302734375,-0.2879486083984375
-1.1212005615234375,0.8656768798828125,-0.2481536865234375
-1.101898193359375,1.082611083984375,-0.3952484130859375
-1.1855010986328125,1.283447265625,-0.6650390625
-1.128265380859375,1.6094207763671875,-0.83746337890625
-0.8544921875,1.7920684814453125,-0.8419647216796875
-0.644744873046875,1.716705322265625,-0.55877685546875
-0.723785400390625,1.56500244140625,-0.2980804443359375
-0.7951812744140625,1.4644775390625,-0.283416748046875
-0.5633087158203125,1.335968017578125,-0.29638671875
-0.143157958984375,1.20416259765625,-0.1586456298828125
0.241973876953125,1.0449676513671875,-0.18096923828125
0.2792510986328125,0.8275604248046875,-0.402984619140625
-0.0289154052734375,0.9075164794921876,-0.2928466796875
-0.0865325927734375,0.886749267578125,-0.12646484375
-0.3820343017578125,1.0956268310546875,-0.0438232421875
-0.62060546875,1.26214599609375,0.1026458740234375
-0.8181304931640625,1.2662811279296875,0.1243743896484375
-0.859893798828125,1.2706146240234375,-0.046630859375
-0.8836212158203125,1.3101654052734375,-0.1732177734375
-0.9974517822265624,1.340240478515625,-0.103118896484375
-1.2109222412109375,1.295196533203125,0.0304718017578125
-1.289459228515625,1.2033843994140625,0.04522705078125
-1.4209747314453125,1.11541748046875,-0.05352783203125
-1.4081268310546875,0.811920166015625,-0.155548095703125
-1.3964385986328125,0.6298370361328125,-0.075164794921875
-1.18218994140625,0.8080596923828125,0.141510009765625
-1.0163726806640625,0.8397674560546875,-0.0449066162109375
-1.15435791015625,1.0579986572265625,-0.17578125
-1.2071533203125,1.2928009033203125,-0.2168426513671875
-1.1853485107421875,1.441314697265625,-0.2823333740234375
-1.0999908447265625,1.4760284423828125,-0.16839599609375
-1.097930908203125,1.6535491943359375,-0.021453857421875
-0.84307861328125,1.6699676513671875,-0.036590576171875
-0.559844970703125,1.422271728515625,-0.1558837890625
-0.4464569091796875,1.26458740234375,-0.182098388671875
-0.1352081298828125,0.957000732421875,-0.064849853515625
0.0683135986328125,0.8528594970703125,0.105255126953125
0.0953369140625,0.7136688232421875,0.0123443603515625
-0.175201416015625,0.825775146484375,-0.0964202880859375
-0.1034088134765625,0.8678436279296875,0.0050201416015625
-0.428070068359375,1.1022186279296875,-0.10516357421875
-0.7707672119140625,1.27947998046875,-0.0611419677734375
-0.9115142822265624,1.2381439208984375,0.09063720703125
-0.8871612548828125,1.110015869140625,0.0205230712890625
-0.954620361328125,1.1363983154296875,-0.0558013916015625
-1.0859375,1.139984130859375,-0.0489044189453125
-1.160736083984375,1.018524169921875,-0.0903778076171875
-1.2478179931640625,1.004669189453125,-0.37054443359375
-1.37237548828125,0.9627838134765624,-0.649078369140625
-1.41156005859375,1.0181121826171875,-0.93304443359375
-1.4134674072265625,0.8175811767578125,-0.34326171875
-1.223388671875,0.5577239990234375,0.111541748046875
-1.0548095703125,0.9600372314453124,0.0814971923828125
-0.970947265625,1.27215576171875,-0.514984130859375
-0.9918365478515624,1.6352996826171875,-0.897613525390625
-0.6157379150390625,1.644012451171875,-0.5621490478515625
-0.4325714111328125,1.2435455322265625,-0.3527374267578125
-0.6241302490234375,1.09765625,-0.2818145751953125
-0.6478729248046875,1.2103271484375,-0.15692138671875
-0.5160064697265625,1.3173980712890625,-0.2718353271484375
-0.4013824462890625,1.40167236328125,-0.4520263671875
-0.1808624267578125,1.4137725830078125,-0.3255767822265625
0.124267578125,1.191986083984375,-0.1483612060546875
0.1969757080078125,0.9599609375,-0.224334716796875
0.19720458984375,0.7295074462890625,-0.1416778564453125
0.0293731689453125,0.9851531982421876,0.2928314208984375
-0.1579132080078125,0.8579864501953125,0.1632537841796875
-0.615997314453125,1.2317657470703125,0.1079864501953125
-0.7092132568359375,1.3731536865234375,0.2844085693359375
-0.8879241943359375,1.2155609130859375,0.3411712646484375
-0.9822998046875,1.05975341796875,0.5254058837890625
-0.9255523681640624,1.031036376953125,0.4690399169921875
-0.9562225341796876,1.082550048828125,0.17718505859375
-1.0774078369140625,0.973846435546875,-0.114044189453125
-1.1366119384765625,0.94354248046875,-0.176971435546875
-1.0694427490234375,1.036407470703125,-0.02874755859375
-0.8385467529296875,0.822052001953125,0.000244140625
-0.844085693359375,0.6740875244140625,-0.071685791015625
-1.002410888671875,0.8938140869140625,-0.1285858154296875
-1.1041412353515625,1.05224609375,-0.085357666015625
-1.123626708984375,1.13970947265625,-0.082550048828125
-1.160064697265625,1.2769927978515625,-0.1564788818359375
-1.0121917724609375,1.3050994873046875,-0.1622772216796875
-0.919219970703125,1.33917236328125,-0.094482421875
-0.8305511474609375,1.4185638427734375,-0.016754150390625
-0.673431396484375,1.4048309326171875,-0.0598297119140625
-0.530120849609375,1.3162078857421875,-0.1509552001953125
-0.3845062255859375,1.18890380859375,-0.14971923828125
-0.2485198974609375,1.0344696044921875,-0.033935546875
-0.04351806640625,0.796295166015625,0.1765289306640625
0.010528564453125,0.60650634765625,0.1335296630859375
-0.122589111328125,0.8357086181640625,0.1432037353515625
-0.111328125,1.05255126953125,0.0300140380859375
-0.4557037353515625,1.3683624267578125,-0.09765625
-0.8960418701171875,1.47711181640625,-0.0009765625
-0.9517669677734376,1.196807861328125,0.1364288330078125
-0.902557373046875,0.989288330078125,0.3231201171875
-0.8377227783203125,0.971282958984375,0.2771759033203125
-0.8546905517578125,1.1247406005859375,0.0615997314453125
-0.9550628662109376,1.1177520751953125,-0.1833648681640625
-1.0361175537109375,1.019012451171875,-0.25250244140625
-1.1450958251953125,1.062713623046875,-0.1100921630859375
-1.1750335693359375,0.9072113037109376,0.149200439453125
-1.1140289306640625,0.6165313720703125,0.22021484375
-1.2938385009765625,0.674407958984375,0.0372467041015625
-1.2178497314453125,0.8518829345703125,-0.05133056640625
-1.08538818359375,0.9732513427734376,-0.089752197265625
-1.1883087158203125,1.2050323486328125,-0.1799774169921875
-1.2802886962890625,1.5139617919921875,-0.125701904296875
-1.2166748046875,1.681854248046875,-0.1244659423828125
-1.0143890380859375,1.6865997314453125,-0.18511962890625
-0.7809600830078125,1.59478759765625,-0.1867828369140625
-0.5478363037109375,1.3535003662109375,-0.1771087646484375
-0.40106201171875,1.0602264404296875,-0.1497802734375
-0.38909912109375,0.850982666015625,-0.11083984375
-0.4172210693359375,0.7843170166015625,-0.046630859375
-0.3159637451171875,0.6741180419921875,-0.017181396484375
-0.2427215576171875,0.57354736328125,-0.001678466796875
-0.2276763916015625,0.604034423828125,-0.0154571533203125
-0.070159912109375,0.6163787841796875,-0.020751953125
-0.1214447021484375,0.6490936279296875,-0.0385894775390625
-0.6359100341796875,0.9810638427734376,0.0886077880859375
-0.8324127197265625,1.2806549072265625,0.360137939453125
-1.0117340087890625,1.536834716796875,0.4103240966796875
-1.279815673828125,1.6028900146484375,0.4014129638671875
-1.3568267822265625,1.412322998046875,0.312164306640625
-1.2884979248046875,1.1790924072265625,0.3755035400390625
-1.1541748046875,0.9586029052734376,0.578094482421875
-1.10760498046875,0.83978271484375,0.7033538818359375
-1.0391845703125,0.756500244140625,0.5472412109375
-1.1182708740234375,0.759429931640625,0.2574310302734375
-0.94989013671875,0.7475433349609375,0.1443634033203125
-0.892852783203125,0.8628387451171875,0.0537872314453125
-0.9475250244140624,1.067138671875,-0.09136962890625
-0.936676025390625,1.1319580078125,-0.384368896484375
-0.772918701171875,0.9998626708984376,-0.731658935546875
-0.8646392822265625,0.8619537353515625,-0.7102203369140625
-1.00616455078125,0.6627349853515625,-0.7688446044921875
-1.133056640625,0.6186065673828125,-1.168914794921875
-1.1750640869140625,0.528228759765625,-1.086761474609375
-1.1511688232421875,0.56976318359375,-0.7547760009765625
-1.0439605712890625,0.7123870849609375,-0.77008056640625
-1.0208282470703125,1.0008087158203125,-0.7339935302734375
-1.0031890869140625,1.3022003173828125,-0.5866241455078125
-0.947479248046875,1.4761505126953125,-0.526336669921875
-0.9106292724609376,1.511688232421875,-0.5663909912109375
-0.8704986572265625,1.5985107421875,-0.4486541748046875
-0.6938323974609375,1.4448699951171875,-0.4112396240234375
-0.5908050537109375,1.283294677734375,-0.43017578125
-0.259033203125,1.3357696533203125,-0.1634368896484375
0.640045166015625,1.0479888916015625,0.3465728759765625
0.441070556640625,1.05450439453125,0.5176849365234375
-0.2463836669921875,1.2935028076171875,0.2086944580078125
-0.526611328125,1.37298583984375,0.1198883056640625
-0.8334197998046875,1.283843994140625,0.2247467041015625
-1.0229339599609375,1.2076873779296875,0.35784912109375
-1.0121002197265625,1.0992279052734375,0.3657684326171875
-0.934356689453125,1.0469818115234375,0.2091064453125
-0.975616455078125,0.957611083984375,0.0293121337890625
-1.0655059814453125,0.929168701171875,0.1064300537109375
-1.1312103271484375,0.9635009765625,0.1677703857421875
-1.10107421875,0.9333953857421876,0.1385650634765625
-1.0903472900390625,0.802581787109375,0.073089599609375
-1.159332275390625,0.637603759765625,0.011932373046875
-1.3483428955078125,0.7294158935546875,0.0299224853515625
-1.066619873046875,0.7140350341796875,0.1593475341796875
-1.1797027587890625,1.0861358642578125,0.073486328125
-1.24371337890625,1.3704986572265625,-0.0361785888671875
-1.294097900390625,1.5667266845703125,-0.234832763671875
-1.1424713134765625,1.57745361328125,-0.384002685546875
-0.974639892578125,1.5714111328125,-0.363006591796875
-0.8042144775390625,1.505035400390625,-0.201751708984375
-0.564178466796875,1.25396728515625,-0.1081390380859375
-0.584503173828125,1.1451873779296875,-0.183258056640625
-0.4851837158203125,1.118499755859375,-0.185089111328125
-0.2455902099609375,0.9646148681640624,0.0069732666015625
0.0616607666015625,0.667999267578125,0.1409759521484375
0.0626068115234375,0.542938232421875,0.0825958251953125
-0.04046630859375,0.7184295654296875,0.2186737060546875
-0.200347900390625,0.945068359375,0.1408233642578125
-0.533355712890625,1.3040924072265625,-0.08660888671875
-0.8295135498046875,1.4280853271484375,-0.0243072509765625
-1.0484466552734375,1.2967987060546875,0.201416015625
-1.124267578125,1.205108642578125,0.329254150390625
-1.10113525390625,1.2178497314453125,0.2098846435546875
-1.0825653076171875,1.094635009765625,-0.0029144287109375
-1.1792449951171875,0.9748992919921876,-0.159088134765625
-1.234619140625,0.9168548583984376,-0.218048095703125
-1.2084197998046875,0.8815460205078125,0.049530029296875
-1.072723388671875,0.73724365234375,0.2098541259765625
-1.077606201171875,0.6016082763671875,0.103607177734375
-1.1805877685546875,0.8107452392578125,-0.0669708251953125
-1.12677001953125,0.80841064453125,-0.127105712890625
-1.282623291015625,0.9763031005859376,-0.0230712890625
-1.3098907470703125,1.2115631103515625,0.043487548828125
-1.1822662353515625,1.3987884521484375,-0.0449066162109375
-1.1098785400390625,1.4539337158203125,-0.1705474853515625
-0.95416259765625,1.50335693359375,0.0074310302734375
-0.6392974853515625,1.2794647216796875,0.23138427734375
-0.492828369140625,1.0043487548828125,0.3397674560546875
-0.503387451171875,0.983734130859375,0.35833740234375
-0.3773193359375,0.9340667724609376,0.3544769287109375
-0.268707275390625,0.7894287109375,0.2983245849609375
-0.157745361328125,0.6280670166015625,0.2735748291015625
-0.31243896484375,0.6609954833984375,0.183868408203125
-0.4444122314453125,0.899444580078125,0.0431365966796875
-0.478851318359375,0.962738037109375,-0.2481842041015625
-0.7183074951171875,1.0818023681640625,-0.260406494140625
-0.914306640625,1.04852294921875,-0.20806884765625
-0.93792724609375,0.8761749267578125,-0.109619140625
-0.81390380859375,0.7130126953125,-0.058197021484375
-0.711944580078125,0.6242523193359375,-0.07781982421875
-0.679107666015625,0.6732177734375,-0.06085205078125
-0.7187957763671875,0.627288818359375,-0.1943511962890625
-1.0395965576171875,0.7842559814453125,-0.212982177734375
-1.419952392578125,1.0623016357421875,-0.1556243896484375
-1.896759033203125,1.226470947265625,-0.173675537109375
-1.8197479248046875,0.6725311279296875,-0.0938873291015625
-1.6050262451171875,0.4818878173828125,0.0451812744140625
-1.25616455078125,0.5688018798828125,-0.0182037353515625
-1.014373779296875,0.6261138916015625,-0.1442718505859375
-1.0978851318359375,0.94049072265625,-0.3516082763671875
-1.0297393798828125,1.10772705078125,-0.358856201171875
-0.779449462890625,0.89312744140625,-0.30615234375
-0.889862060546875,0.8729248046875,-0.286163330078125
-0.9292144775390624,0.97821044921875,-0.1573333740234375
-0.79541015625,1.075927734375,-0.0149688720703125
-0.5388336181640625,1.079833984375,-0.0011444091796875
-0.3637847900390625,0.9099884033203124,-0.151092529296875
-0.390960693359375,0.9295196533203124,-0.1292877197265625
-0.1968841552734375,0.7713470458984375,0.0175628662109375
-0.1750335693359375,0.6246490478515625,0.130584716796875
-0.2135772705078125,0.845672607421875,0.3720703125
-0.0524444580078125,0.87249755859375,0.2054595947265625
-0.5679779052734375,1.33892822265625,0.0302276611328125
-0.9736785888671876,1.5370941162109375,-0.1193389892578125
-0.94073486328125,1.072784423828125,-0.01336669921875
-0.93316650390625,0.8795928955078125,0.2621002197265625
-0.905303955078125,0.772064208984375,0.301239013671875
-0.8565826416015625,0.8224334716796875,0.095489501953125
-0.8576507568359375,0.9305419921875,-0.0225372314453125
-0.9517669677734376,0.9876556396484376,-0.05419921875
-1.3173980712890625,1.0219268798828125,-0.042694091796875
-1.44403076171875,0.726348876953125,-0.1263275146484375
-1.6147918701171875,0.6096038818359375,-0.2681427001953125
-1.4534759521484375,1.05908203125,0.0688934326171875
-1.03106689453125,0.9015960693359376,0.0831298828125
-1.3074493408203125,1.256561279296875,-0.10821533203125
-1.41107177734375,1.659912109375,-0.197784423828125
-1.0802764892578125,1.59765625,-0.253692626953125
-0.8558349609375,1.4727783203125,-0.1751556396484375
-0.6634979248046875,1.2676849365234375,-0.026947021484375
-0.4875946044921875,1.0279388427734375,-0.0283966064453125
-0.4893798828125,0.9595947265625,-0.075653076171875
-0.40234375,1.0359344482421875,-0.064453125
-0.1322479248046875,0.9858551025390624,-0.052947998046875
0.083892822265625,0.8980865478515625,0.0689697265625
0.095611572265625,0.7184906005859375,-0.050384521484375
-0.195343017578125,0.8406982421875,0.019561767578125
-0.2660980224609375,0.88427734375,0.0558013916015625
-0.6053619384765625,1.2723541259765625,-0.018341064453125
-0.8886260986328125,1.703125,0.0607452392578125
-1.1153106689453125,1.715728759765625,0.0332489013671875
-1.2507476806640625,1.395050048828125,0.033966064453125
-1.2229766845703125,1.1164093017578125,0.059295654296875
-1.1587066650390625,0.9352569580078124,0.0942840576171875
-1.1574249267578125,0.843536376953125,0.0712890625
-1.0928802490234375,0.8579864501953125,-0.088165283203125
-1.0691070556640625,0.8846282958984375,-0.1018829345703125
-1.059844970703125,0.807952880859375,-0.0271759033203125
-1.03948974609375,0.62725830078125,-0.0171051025390625
-1.0467376708984375,0.6941070556640625,-0.01055908203125
-1.0880889892578125,0.8978271484375,-0.05169677734375
-1.11553955078125,0.9237060546875,-0.0416259765625
-1.3784637451171875,1.1107940673828125,0.0074462890625
-1.5774383544921875,1.5632781982421875,0.0680999755859375
-1.4313812255859375,1.8395538330078125,0.06561279296875
-1.20587158203125,1.99365234375,0.0985565185546875
-0.8236846923828125,1.69610595703125,0.127532958984375
-0.631622314453125,1.364715576171875,0.1617889404296875
-0.34027099609375,1.055145263671875,0.2143402099609375
-0.2100830078125,0.884033203125,0.271575927734375
-0.01397705078125,0.7550811767578125,0.265625
0.111480712890625,0.5927734375,0.22039794921875
-0.01068115234375,0.5345916748046875,0.133392333984375
-0.205047607421875,0.6382293701171875,0.06103515625
-0.4157257080078125,0.93426513671875,-0.0577392578125
-0.6364593505859375,1.2794342041015625,-0.1765899658203125
-0.9404449462890624,1.608673095703125,-0.1653289794921875
-1.2966766357421875,1.7657470703125,-0.14739990234375
-1.360809326171875,1.394805908203125,-0.2994842529296875
-1.2882080078125,1.0418243408203125,-0.3412628173828125
-1.122467041015625,0.803497314453125,-0.26153564453125
-1.1108245849609375,0.780120849609375,-0.305877685546875
-1.0733184814453125,0.7851104736328125,-0.54998779296875
-1.1779632568359375,0.9723052978515624,-0.4311676025390625
-1.2197418212890625,0.7985382080078125,-0.3865509033203125
-1.2439117431640625,0.4826507568359375,-0.4921722412109375
-1.412628173828125,0.408294677734375,-0.7130584716796875
-1.456207275390625,0.5477294921875,-0.665771484375
-1.3048858642578125,0.8219757080078125,-0.415496826171875
-1.363311767578125,1.15374755859375,-0.4206695556640625
-1.41387939453125,1.3932037353515625,-0.3971710205078125
-1.335052490234375,1.484619140625,-0.3047943115234375
-1.2635345458984375,1.64862060546875,-0.1371917724609375
-1.0454559326171875,1.692291259765625,0.010833740234375
-0.750091552734375,1.4466705322265625,-0.00714111328125
-0.6098480224609375,1.1759796142578125,-0.0702362060546875
-0.4877166748046875,0.989898681640625,-0.1432952880859375
-0.3602447509765625,0.8620758056640625,-0.08636474609375
-0.2017059326171875,0.715423583984375,0.0356292724609375
-0.0224609375,0.497650146484375,0.0704498291015625
-0.1527862548828125,0.6346893310546875,0.027313232421875
-0.1115875244140625,0.686492919921875,0.0670166015625
-0.4193115234375,0.9680328369140624,0.04486083984375
-0.89691162109375,1.245635986328125,0.048187255859375
-1.1173858642578125,1.495452880859375,0.049102783203125
-1.1826324462890625,1.526031494140625,-0.116607666015625
-1.3843536376953125,1.4911651611328125,-0.1482696533203125
-1.4437713623046875,1.287139892578125,-0.0593719482421875
-1.344024658203125,0.9644927978515624,0.0405426025390625
-1.317108154296875,0.784149169921875,0.1189117431640625
-1.263031005859375,0.7769012451171875,0.1179351806640625
-1.1759796142578125,0.86834716796875,0.0373077392578125
-1.088348388671875,0.6829376220703125,-0.0787353515625
-1.2303314208984375,0.533935546875,-0.0963897705078125
-1.4004669189453125,0.7191314697265625,0.01617431640625
-1.14544677734375,0.697998046875,0.0488739013671875
-1.2075042724609375,0.9738006591796876,-0.071685791015625
-1.27215576171875,1.239044189453125,-0.190582275390625
-1.424407958984375,1.6370086669921875,-0.2635040283203125
-1.3298187255859375,1.7646636962890625,-0.272491455078125
-1.188812255859375,1.769134521484375,-0.2616119384765625
-0.964111328125,1.6814117431640625,-0.2080230712890625
-0.64208984375,1.2955780029296875,-0.1675872802734375
-0.4566650390625,0.93951416015625,-0.0850982666015625
-0.4129638671875,0.744598388671875,-0.0467376708984375
-0.31982421875,0.64544677734375,-0.03704833984375
-0.14971923828125,0.4838104248046875,-0.0530853271484375
-0.091705322265625,0.405059814453125,-0.060089111328125
-0.1362457275390625,0.5418548583984375,0.000579833984375
-0.2097625732421875,0.7520294189453125,0.0987091064453125
-0.3539886474609375,0.961090087890625,0.1873779296875
-0.92694091796875,1.3525238037109375,0.539306640625
-1.21051025390625,1.5920867919921875,0.478179931640625
-1.42474365234375,1.7854766845703125,0.2243804931640625
-1.4308624267578125,1.4542236328125,0.0380401611328125
-1.3988189697265625,1.1051025390625,-0.0416412353515625
-1.2847900390625,0.8881683349609375,-0.038330078125
-1.052764892578125,0.7678375244140625,0.1649322509765625
-0.9345855712890624,0.7872467041015625,0.300750732421875
-0.889251708984375,0.700103759765625,0.24169921875
-0.9624481201171876,0.6376190185546875,0.11370849609375
-1.0016021728515625,0.57598876953125,0.152587890625
-0.9535980224609376,0.5425567626953125,0.259765625
-0.901123046875,0.643798828125,0.1553802490234375
-1.015350341796875,0.981597900390625,-0.11065673828125
-1.0079803466796875,1.1698455810546875,-0.4294281005859375
-0.853607177734375,1.3256072998046875,-0.8542327880859375
-0.4881744384765625,1.221466064453125,-0.93017578125
-0.256317138671875,0.9731597900390624,-0.82275390625
-0.3411407470703125,0.7926177978515625,-0.708038330078125
-0.60906982421875,0.6768646240234375,-0.813323974609375
-0.6491851806640625,0.6449737548828125,-0.8936920166015625
-0.7376556396484375,0.7137298583984375,-0.9749298095703124
-0.9492034912109376,0.868011474609375,-0.87152099609375
-0.97308349609375,0.761505126953125,-0.537353515625
-1.289520263671875,1.0534210205078125,-0.547515869140625
-1.3232421875,1.2503662109375,-0.434173583984375
-1.2218780517578125,1.54327392578125,-0.3673248291015625
-0.9469146728515624,1.709991455078125,-0.3136749267578125
-0.5955963134765625,1.4358978271484375,-0.264892578125
-0.5248870849609375,1.146484375,-0.3046722412109375
-0.478851318359375,1.0522613525390625,-0.29864501953125
-0.290069580078125,1.0592193603515625,-0.1963348388671875
0.3559417724609375,0.973968505859375,0.01678466796875
0.2622528076171875,0.8739013671875,0.2534637451171875
-0.5217742919921875,1.197906494140625,0.2578582763671875
-0.7235260009765625,1.0879974365234375,0.2779541015625
-0.6334991455078125,0.952789306640625,0.2283172607421875
-0.779937744140625,1.0018463134765625,0.2394866943359375
-0.8524017333984375,0.9524383544921876,0.2682952880859375
-0.9050140380859376,0.9338836669921876,0.586761474609375
-0.94476318359375,0.8814849853515625,0.6790313720703125
-0.910888671875,0.788604736328125,0.4721527099609375
-0.911529541015625,0.775848388671875,0.2443695068359375
-0.911712646484375,0.824371337890625,0.061279296875
-0.9977264404296876,0.7804412841796875,0.053680419921875
-1.0941619873046875,0.647705078125,0.1546783447265625
-1.141265869140625,0.488922119140625,0.0322265625
-1.2956085205078125,0.681640625,-0.118011474609375
-1.321075439453125,1.0613555908203125,-0.18023681640625
-1.1564178466796875,1.1094207763671875,-0.2139739990234375
-1.22705078125,1.33349609375,-0.2642974853515625
-1.1371002197265625,1.3994598388671875,-0.2917022705078125
-0.90234375,1.1900177001953125,-0.28668212890625
-0.85205078125,1.051361083984375,-0.2454071044921875
-0.8706207275390625,1.04962158203125,-0.1962738037109375
-0.7803497314453125,1.0019683837890625,-0.154022216796875
-0.6491851806640625,0.89910888671875,-0.1627044677734375
-0.564788818359375,0.84423828125,-0.1714935302734375
-0.3619537353515625,0.7879180908203125,-0.1650238037109375
-0.088348388671875,0.58123779296875,-0.2253265380859375
0.065032958984375,0.480865478515625,-0.278778076171875
0.0434722900390625,0.4377593994140625,-0.0995330810546875
-0.0184173583984375,0.486297607421875,0.07696533203125
-0.6509246826171875,1.002105712890625,-0.254150390625
-1.1560516357421875,0.9868621826171876,-0.917999267578125
-1.2016754150390625,0.927642822265625,-1.1768951416015625
-1.314117431640625,0.8659515380859375,-1.00579833984375
-1.4389495849609375,0.7366943359375,-1.534149169921875
-1.2259521484375,0.8922271728515625,-1.92938232421875
-0.898162841796875,0.991241455078125,-1.53021240234375
-0.7413330078125,0.90789794921875,-1.3569488525390625
-0.7904815673828125,0.9307708740234376,-1.4850006103515625
-0.715667724609375,1.1207427978515625,-1.7581329345703125
-0.5523529052734375,1.3873748779296875,-1.7317047119140625
-0.4566497802734375,1.4930267333984375,-1.627166748046875
-0.3746337890625,1.339385986328125,-1.2201385498046875
-0.257415771484375,1.1537933349609375,-0.991363525390625
-0.1382293701171875,0.86334228515625,-0.8944549560546875
-0.067352294921875,0.6303863525390625,-0.7049407958984375
-0.0754547119140625,0.350494384765625,-0.274749755859375
-0.0155181884765625,0.10052490234375,-0.1446075439453125
-0.101409912109375,0.29656982421875,-0.9348602294921876
0.1948699951171875,0.1340789794921875,-0.7491455078125
0.274749755859375,-0.0528717041015625,-0.2661895751953125
0.1745147705078125,-0.2032623291015625,-0.0944061279296875
0.113067626953125,-0.3376922607421875,-0.0831146240234375
0.0303955078125,-0.4472503662109375,-0.2048187255859375
-0.0948333740234375,-0.5519561767578125,-0.2633056640625
0.0236663818359375,-0.6332550048828125,-0.5731964111328125
0.053924560546875,-0.6657257080078125,-0.53887939453125
0.0565948486328125,-0.665313720703125,-0.6251373291015625
0.00750732421875,-0.6722869873046875,-0.707611083984375
0.1017913818359375,-0.541778564453125,-0.3160400390625
0.1009979248046875,-0.317413330078125,-0.05511474609375
0.28466796875,0.0246429443359375,0.201446533203125
-0.1429595947265625,0.37957763671875,0.6543121337890625
-0.08612060546875,1.1847991943359375,1.0076141357421875
-0.0865478515625,2.082061767578125,0.9817657470703124
-0.5589752197265625,2.03729248046875,0.764373779296875
0.2227020263671875,0.014068603515625,-0.3052520751953125
0.1908416748046875,0.0150604248046875,-0.0174102783203125
0.1755523681640625,0.02490234375,0.0054168701171875
-8.0982666015625,-7.455657958984375,-3.880889892578125
0.427581787109375,1.347808837890625,-0.323150634765625
0.3149261474609375,0.0360565185546875,0.020294189453125
0.1683349609375,-0.00128173828125,0.02923583984375
0.615966796875,-0.0531005859375,-0.42022705078125
0.8663787841796875,0.003448486328125,-1.02764892578125
0.5686798095703125,-0.15362548828125,-0.318817138671875
-1.5043792724609375,0.00714111328125,-1.647674560546875
-0.507110595703125,0.08056640625,-0.55902099609375
-0.1566314697265625,-0.0574493408203125,-1.13922119140625
-0.396636962890625,-0.0475006103515625,-0.91131591796875
-0.309783935546875,-0.0264739990234375,-0.954803466796875
-0.3089141845703125,-0.059326171875,-0.94049072265625
-0.32305908203125,-0.0239105224609375,-0.9360809326171876
-0.292877197265625,-0.0370025634765625,-0.943939208984375
-0.3313140869140625,-0.0428009033203125,-0.9196624755859376
-0.3006744384765625,-0.0235137939453125,-0.9495391845703124
-0.319580078125,-0.0540618896484375,-0.9364013671875
-0.3150482177734375,-0.0223388671875,-0.9434661865234376
-0.2984466552734375,-0.013763427734375,-0.9413299560546876
-0.327789306640625,-0.037506103515625,-0.9319915771484376
-0.3060760498046875,-0.0515594482421875,-0.955474853515625
-0.309356689453125,-0.050689697265625,-0.93402099609375
-0.3112945556640625,-0.0324859619140625,-0.94586181640625
-0.3055572509765625,-0.0537872314453125,-0.9426422119140624
-0.3137664794921875,-0.0449066162109375,-0.9404449462890624
-0.3071441650390625,-0.053924560546875,-0.9471282958984376
-0.310455322265625,-0.04376220703125,-0.94512939453125
-0.3078765869140625,-0.047607421875,-0.943634033203125
-0.3106842041015625,-0.0465545654296875,-0.9409332275390624
-0.3025970458984375,-0.0467529296875,-0.94512939453125
-0.3025970458984375,-0.0488739013671875,-0.9512939453125
-0.31884765625,-0.0538787841796875,-0.9834136962890624
-0.3068084716796875,-0.0595855712890625,-0.9491424560546876
-0.303558349609375,-0.0553131103515625,-0.9613189697265624
-0.3012542724609375,-0.051361083984375,-0.9395599365234376
-0.323699951171875,-0.038726806640625,-0.9388885498046876
-0.29229736328125,-0.0359344482421875,-0.9547119140625
-0.3211212158203125,-0.057342529296875,-0.9339447021484376
-0.2905120849609375,-0.04486083984375,-0.9510498046875
-0.3094635009765625,-0.0666656494140625,-0.9345550537109376
-0.2981719970703125,-0.0383453369140625,-0.950897216796875
-0.308929443359375,-0.0625152587890625,-0.929840087890625
-0.2950286865234375,-0.0735626220703125,-0.9325714111328124
-0.2653045654296875,-0.077301025390625,-0.941619873046875
-0.2273712158203125,-0.0647125244140625,-0.9836883544921876
-0.2363128662109375,-0.0644378662109375,-0.97442626953125
-0.240936279296875,-0.079193115234375,-0.976837158203125
-0.2722930908203125,-0.085540771484375,-0.9326324462890624
-0.264617919921875,-0.0875396728515625,-0.99884033203125
-0.222991943359375,-0.087371826171875,-0.9553985595703124
-0.23419189453125,-0.0930938720703125,-0.971954345703125
-0.2241973876953125,-0.079559326171875,-0.976043701171875
-0.2103729248046875,-0.1092071533203125,-0.9649810791015624
-0.2249908447265625,-0.0922393798828125,-0.9639129638671876
-0.231597900390625,-0.1056365966796875,-0.9674530029296876
-0.2181549072265625,-0.089202880859375,-0.9616851806640624
-0.2385406494140625,-0.0963897705078125,-0.9759979248046876
-0.2179412841796875,-0.0913848876953125,-0.972564697265625
-0.2350006103515625,-0.0936737060546875,-0.970062255859375
-0.205902099609375,-0.09747314453125,-0.966522216796875
-0.2337493896484375,-0.115753173828125,-0.9644927978515624
-0.2225189208984375,-0.0889739990234375,-0.9693756103515624
-0.208648681640625,-0.099639892578125,-0.9792938232421876
