AccelerationX,AccelerationY,AccelerationZ
-0.01611328125,-0.401031494140625,-0.8912353515625
-0.015167236328125,-0.468292236328125,-0.722076416015625
0.0483245849609375,-0.4665679931640625,-0.761138916015625
-0.009674072265625,-0.381866455078125,-0.9082794189453124
-0.069061279296875,-0.3845062255859375,-0.8896026611328125
-0.139373779296875,-0.4152069091796875,-0.8163604736328125
-0.202789306640625,-0.4626922607421875,-0.84765625
-0.2232818603515625,-0.5105438232421875,-0.7403717041015625
0.1667327880859375,-0.800567626953125,-0.5177001953125
-0.087493896484375,-0.6099700927734375,-0.88287353515625
-0.506988525390625,-0.3968963623046875,-0.707672119140625
-0.4145660400390625,-0.514190673828125,-0.7303314208984375
-0.6854095458984375,-0.349945068359375,-0.5059814453125
-0.5974578857421875,0.02813720703125,-0.6549072265625
-0.611358642578125,0.1256561279296875,-0.6352691650390625
-0.638671875,0.0900726318359375,-0.62109375
-0.772705078125,0.0691070556640625,-0.5513916015625
-0.543548583984375,0.065582275390625,-0.76953125
-0.580108642578125,-0.032623291015625,-0.6139068603515625
-0.4611053466796875,-0.0113067626953125,-0.5039215087890625
-0.4285888671875,-0.1010894775390625,-0.6137237548828125
-1.0145721435546875,-0.1787261962890625,-0.5282440185546875
-1.3902587890625,-0.8629913330078125,-0.2805023193359375
-1.5051422119140625,-1.049041748046875,-0.3130035400390625
-1.6356201171875,-1.367340087890625,-0.187347412109375
-1.6854095458984375,-1.312225341796875,-0.062347412109375
-1.8926239013671875,-0.8061370849609375,-0.10101318359375
-2.07586669921875,-0.476806640625,0.0941162109375
-1.8142547607421875,-0.151641845703125,0.2176666259765625
-2.0564727783203125,-0.002197265625,0.4119415283203125
-1.9758758544921875,0.14788818359375,0.581634521484375
-1.344573974609375,0.3766326904296875,0.3973541259765625
-0.8018646240234375,0.31536865234375,0.1601409912109375
-0.279388427734375,0.36004638671875,-0.1324462890625
0.0506134033203125,0.266876220703125,-0.130615234375
0.20269775390625,0.1349029541015625,-0.039520263671875
0.223602294921875,0.080169677734375,0.0645599365234375
0.095703125,0.0462188720703125,0.2024078369140625
-0.0856170654296875,0.039337158203125,0.304443359375
-0.562103271484375,0.13134765625,0.4139251708984375
-1.378509521484375,0.11273193359375,0.522186279296875
-2.2919921875,-0.1392059326171875,0.5762176513671875
-2.49224853515625,-0.669189453125,0.8193511962890625
-1.97998046875,-0.623260498046875,0.4744415283203125
-1.45062255859375,-0.4671630859375,-0.0428924560546875
-1.0003204345703125,-0.563201904296875,-0.18023681640625
-0.741851806640625,-0.6844482421875,-0.1629791259765625
-0.7137298583984375,-0.8712158203125,-0.0149078369140625
-0.7696380615234375,-1.098388671875,0.146209716796875
-0.9075775146484376,-1.2177276611328125,0.1325531005859375
-1.222686767578125,-1.0578155517578125,0.025848388671875
-1.384796142578125,-0.950531005859375,0.1721038818359375
-1.7343902587890625,-0.7904510498046875,0.1407012939453125
-2.4546661376953125,-0.8832855224609375,0.361541748046875
-2.7688446044921875,-0.65838623046875,0.3140106201171875
-2.22698974609375,-0.20263671875,0.267608642578125
-1.56658935546875,0.089447021484375,-0.26654052734375
-0.94512939453125,0.427459716796875,-0.525115966796875
-0.5176239013671875,0.5706939697265625,-0.4444427490234375
-0.23626708984375,0.495086669921875,-0.2429351806640625
-0.140289306640625,0.42327880859375,-0.1942291259765625
-0.0410919189453125,0.376434326171875,0.014068603515625
0.1410064697265625,0.212554931640625,0.090667724609375
0.06707763671875,0.0626373291015625,0.07867431640625
-0.3773956298828125,0.116302490234375,0.137451171875
-1.5112457275390625,0.5014801025390625,0.3017425537109375
-2.462371826171875,0.6515655517578125,0.628143310546875
-2.434783935546875,-0.0494384765625,0.8201141357421875
-2.2773590087890625,-0.279052734375,0.5360107421875
-2.1729278564453125,-0.4325408935546875,0.39697265625
-1.6955413818359375,-0.7308807373046875,0.3515777587890625
-1.248016357421875,-0.77056884765625,0.162811279296875
-1.074371337890625,-0.89434814453125,-0.0033111572265625
-0.9389190673828124,-0.918609619140625,-0.00958251953125
-0.8497161865234375,-0.8695831298828125,-0.076812744140625
-0.866851806640625,-0.690521240234375,-0.0923919677734375
-0.95404052734375,-0.47406005859375,-0.051910400390625
-1.111175537109375,-0.3762359619140625,0.0261383056640625
-1.64886474609375,-0.2123870849609375,-0.02752685546875
-2.3233795166015625,-0.34320068359375,-0.039093017578125
-2.7945098876953125,-0.6527099609375,0.40716552734375
-2.504241943359375,-0.253082275390625,0.354461669921875
-2.223175048828125,0.1093292236328125,0.3123779296875
-1.4929046630859375,0.264007568359375,0.21734619140625
-0.801300048828125,0.30755615234375,0.120635986328125
-0.3745574951171875,0.34521484375,0.00592041015625
-0.1468963623046875,0.3199462890625,-0.04998779296875
-0.0829620361328125,0.2191162109375,-0.1187744140625
-0.0751800537109375,0.1522064208984375,-0.08123779296875
-0.053070068359375,0.108001708984375,-0.084747314453125
-0.05859375,0.1009674072265625,-0.13604736328125
-0.4277496337890625,0.1745452880859375,-0.151519775390625
-1.03826904296875,0.385467529296875,0.0577239990234375
-1.7736663818359375,0.347503662109375,0.3325042724609375
-2.6861572265625,0.19256591796875,0.715087890625
-2.185394287109375,-0.2811279296875,0.8296966552734375
-1.6316070556640625,-0.24676513671875,0.6076202392578125
-1.5567779541015625,-0.3560333251953125,0.32696533203125
-1.3410797119140625,-0.5808868408203125,0.26605224609375
-1.09869384765625,-0.669830322265625,0.1673736572265625
-1.0516510009765625,-0.6846466064453125,0.2537994384765625
-1.0185089111328125,-0.581024169921875,0.221343994140625
-1.0861358642578125,-0.446197509765625,0.2662811279296875
-1.2273406982421875,-0.328277587890625,0.3831634521484375
-1.4523468017578125,-0.25677490234375,0.5078125
-1.83551025390625,-0.22113037109375,0.6233367919921875
-2.61944580078125,-0.02001953125,0.77545166015625
-2.4297637939453125,0.09771728515625,0.8996734619140625
-1.8249053955078125,0.3426971435546875,0.7216949462890625
-1.36322021484375,0.2443084716796875,0.4817047119140625
-0.834991455078125,0.2374725341796875,0.28546142578125
-0.4154052734375,0.2570648193359375,0.18829345703125
-0.161224365234375,0.179595947265625,0.1814727783203125
0.0167236328125,0.1693115234375,0.1763916015625
0.097442626953125,0.174713134765625,0.15179443359375
0.068023681640625,0.1589813232421875,0.126861572265625
-0.0105743408203125,0.1996917724609375,0.1576080322265625
-0.120269775390625,0.183197021484375,0.221038818359375
-0.593994140625,0.263702392578125,0.352386474609375
-1.759918212890625,0.3635101318359375,0.648895263671875
-2.370697021484375,0.04766845703125,0.544342041015625
-2.261871337890625,0.2384185791015625,0.3872833251953125
-2.047821044921875,0.1751861572265625,-0.0166473388671875
-1.862945556640625,0.0688934326171875,0.0054931640625
-1.6074676513671875,-0.1879119873046875,0.069793701171875
-1.3614959716796875,-0.3675079345703125,0.0207977294921875
-1.02496337890625,-0.5190277099609375,-0.0915069580078125
-0.92364501953125,-0.621826171875,-0.13800048828125
-1.0704193115234375,-0.7123260498046875,-0.1002960205078125
-1.18365478515625,-1.02215576171875,0.0348663330078125
-1.610321044921875,-0.91156005859375,0.36285400390625
-1.8344879150390625,-0.4236602783203125,0.2836151123046875
-2.3370819091796875,0.0080718994140625,0.2443084716796875
-2.6850128173828125,0.3328094482421875,0.28076171875
-2.5196685791015625,0.6518096923828125,0.272979736328125
-2.0257110595703125,0.7509765625,0.2691192626953125
-1.51434326171875,0.716583251953125,0.2040863037109375
-0.9173431396484376,0.6015625,0.2484588623046875
-0.5390625,0.332000732421875,0.1850128173828125
-0.2285919189453125,0.4205169677734375,0.0828399658203125
-0.0007171630859375,0.3068695068359375,0.0941619873046875
-0.02911376953125,0.22406005859375,0.114837646484375
-0.03204345703125,0.1751861572265625,0.093536376953125
-0.104095458984375,0.2039642333984375,0.0270843505859375
-0.3106689453125,0.27117919921875,-0.05206298828125
-0.81219482421875,0.4248199462890625,0.023956298828125
-1.48291015625,0.5581512451171875,0.1190338134765625
-2.2687530517578125,0.5955352783203125,0.036346435546875
-2.809051513671875,0.6993560791015625,-0.557891845703125
-2.2746124267578125,0.108001708984375,-0.326507568359375
-1.6479034423828125,-0.209503173828125,-0.319122314453125
-1.1687469482421875,-0.4301300048828125,-0.407989501953125
-0.97894287109375,-0.5291595458984375,-0.35308837890625
-0.791229248046875,-0.55364990234375,-0.3156890869140625
-0.6954345703125,-0.496612548828125,-0.2554473876953125
-0.8590545654296875,-0.5891571044921875,-0.122833251953125
-1.299713134765625,-0.47027587890625,-0.06915283203125
-1.7269744873046875,-0.1988677978515625,-0.0662994384765625
-1.7935943603515625,-0.101776123046875,-0.0359039306640625
-1.9332275390625,-0.103973388671875,0.048797607421875
-2.24456787109375,0.074462890625,-0.0659637451171875
-1.9607086181640625,0.280120849609375,-0.018890380859375
-1.420806884765625,0.1437225341796875,-0.0129241943359375
-0.975006103515625,0.12164306640625,-0.0434722900390625
-0.5598297119140625,0.018280029296875,-0.08905029296875
-0.2345123291015625,-0.0308380126953125,-0.0765838623046875
0.0505828857421875,0.0204620361328125,-0.0155792236328125
0.202850341796875,0.01873779296875,0.021026611328125
0.2214202880859375,0.0265350341796875,0.0420989990234375
0.19873046875,0.010650634765625,0.042083740234375
0.1043701171875,0.054412841796875,0.03192138671875
-0.264404296875,0.1632232666015625,0.048370361328125
-1.1026611328125,0.1063232421875,0.1841278076171875
-1.8057403564453125,-0.0218353271484375,0.504058837890625
-2.352157592773437,0.5138397216796875,0.3869476318359375
-2.375518798828125,0.6032867431640625,0.426483154296875
-2.035873413085937,0.3816680908203125,0.4765777587890625
-1.4135894775390625,0.083404541015625,0.4085540771484375
-1.078399658203125,-0.0410308837890625,0.200469970703125
-1.0582427978515625,-0.2144927978515625,0.037322998046875
-1.1607208251953125,-0.38568115234375,-0.06011962890625
-1.231414794921875,-0.4271240234375,-0.1119232177734375
-1.2535400390625,-0.4604339599609375,-0.1059112548828125
-1.2626495361328125,-0.45477294921875,0.008575439453125
-1.2900543212890625,-0.3879852294921875,0.0318450927734375
-1.767974853515625,-0.45458984375,-0.1061553955078125
-3.1071319580078125,0.3045196533203125,-0.21539306640625
-2.79681396484375,0.5385284423828125,0.31732177734375
-2.149642944335937,0.60040283203125,0.287261962890625
-1.6508026123046875,0.4154205322265625,0.132171630859375
-1.255096435546875,0.316619873046875,0.1970367431640625
-0.668182373046875,0.2599334716796875,0.1094207763671875
-0.288177490234375,0.16754150390625,0.0167694091796875
-0.04962158203125,0.0863800048828125,-0.09576416015625
0.0785064697265625,0.012359619140625,-0.0578460693359375
0.0238189697265625,0.0368194580078125,-0.04718017578125
-0.0631561279296875,0.0521087646484375,-0.0462799072265625
-0.1383056640625,0.143157958984375,-0.034912109375
-0.2928314208984375,0.2530517578125,0.0699310302734375
-0.615478515625,0.3170623779296875,0.3751220703125
-1.3330535888671875,0.1695709228515625,0.8041839599609375
-1.982147216796875,0.2105560302734375,1.0433197021484375
-2.2095184326171875,-0.00213623046875,1.3289794921875
-1.907257080078125,-0.30255126953125,1.3470458984375
-1.4696197509765625,-0.5090484619140625,1.0603485107421875
-1.21240234375,-0.536529541015625,0.7294921875
-0.9623260498046876,-0.6358489990234375,0.5325469970703125
-0.836212158203125,-0.6359405517578125,0.4192962646484375
-0.8526763916015625,-0.5991668701171875,0.40521240234375
-0.9643402099609376,-0.5094757080078125,0.4662017822265625
-1.1431121826171875,-0.359039306640625,0.544952392578125
-1.5180816650390625,-0.25164794921875,0.7458648681640625
-1.8608245849609373,-0.2005615234375,0.9156036376953124
-2.429473876953125,-0.1124267578125,1.2244720458984375
-2.1570281982421875,0.143524169921875,0.9332275390625
-1.679595947265625,0.3233184814453125,0.53253173828125
-1.5865631103515625,0.2143096923828125,0.3995208740234375
-1.413787841796875,0.2751312255859375,0.22119140625
-0.7230377197265625,0.3928680419921875,-0.04901123046875
-0.149322509765625,0.3116912841796875,-0.0518798828125
0.1310272216796875,0.228057861328125,0.0276641845703125
0.28363037109375,0.1085662841796875,0.083831787109375
0.326995849609375,0.054718017578125,0.097198486328125
0.309967041015625,0.07177734375,0.0798492431640625
0.31048583984375,0.0808258056640625,0.06298828125
0.155426025390625,0.305450439453125,0.0330963134765625
-0.772796630859375,0.695068359375,0.2006378173828125
-2.0553741455078125,0.6733856201171875,0.726348876953125
-2.9811248779296875,0.8252105712890625,0.8295440673828125
-3.011077880859375,0.4311981201171875,0.8325042724609375
-2.4447174072265625,0.0590972900390625,0.638397216796875
-1.4941558837890625,-0.18359375,0.38531494140625
-1.0197296142578125,-0.305084228515625,0.27191162109375
-0.794342041015625,-0.36590576171875,0.2037506103515625
-0.8181610107421875,-0.4680633544921875,0.2265472412109375
-0.93115234375,-0.53497314453125,0.230682373046875
-1.320526123046875,-0.5070953369140625,0.2978668212890625
-1.4959564208984375,-0.542266845703125,0.4217071533203125
-1.3677978515625,-0.3579864501953125,0.416961669921875
-1.5664520263671875,-0.285797119140625,0.483154296875
-2.3450164794921875,-0.0329437255859375,0.6349334716796875
-2.524154663085937,0.35772705078125,0.575714111328125
-1.89837646484375,0.6445770263671875,0.3097991943359375
-1.513153076171875,0.3889007568359375,0.1397857666015625
-1.0825653076171875,0.309967041015625,0.1360931396484375
-0.553924560546875,0.3054962158203125,0.1310882568359375
-0.1396636962890625,0.2851409912109375,0.14727783203125
0.0487518310546875,0.23828125,0.12347412109375
0.103729248046875,0.236968994140625,0.1087646484375
0.13427734375,0.230133056640625,0.050140380859375
-0.0234375,0.2064361572265625,-0.033721923828125
-0.2796783447265625,0.2622222900390625,-0.0203704833984375
-0.7237701416015625,0.51910400390625,0.2476654052734375
-1.4207000732421875,0.726959228515625,0.7314300537109375
-2.284774780273437,0.6205291748046875,0.9870452880859376
-2.5374755859375,0.5594940185546875,0.8145751953125
-1.9906768798828125,0.11199951171875,0.6181640625
-1.37591552734375,-0.1201019287109375,0.518096923828125
-1.1274871826171875,-0.2447967529296875,0.4155426025390625
-1.0676116943359375,-0.3587188720703125,0.37091064453125
-0.8925323486328125,-0.4911346435546875,0.2308197021484375
-0.8870849609375,-0.698272705078125,0.1001129150390625
-0.94171142578125,-0.8013763427734375,0.0059356689453125
-1.154266357421875,-0.797637939453125,0.022735595703125
-1.3834228515625,-0.7298736572265625,0.1751861572265625
-2.0507354736328125,-0.5224151611328125,0.2725372314453125
-2.336898803710937,-0.218170166015625,0.569122314453125
-2.0416412353515625,0.114227294921875,0.5469512939453125
-1.8295745849609373,0.1742706298828125,0.4645233154296875
-1.510528564453125,0.175811767578125,0.35906982421875
-1.216339111328125,0.1249237060546875,0.2636566162109375
-0.9411468505859376,0.120849609375,0.1436309814453125
-0.699127197265625,0.116912841796875,0.107421875
-0.4580078125,0.1373291015625,0.078094482421875
-0.22906494140625,0.105560302734375,0.0325469970703125
-0.0576019287109375,0.073394775390625,0.0091552734375
0.068756103515625,0.0810546875,0.012481689453125
0.1195220947265625,0.0408172607421875,0.0389556884765625
0.174224853515625,0.0743560791015625,-0.01702880859375
-0.27203369140625,0.2302398681640625,0.118072509765625
-0.98272705078125,0.2208251953125,0.2535858154296875
-1.7996978759765625,0.46826171875,0.068084716796875
-2.30841064453125,0.2861175537109375,0.1733856201171875
-2.0864410400390625,0.2377166748046875,0.4314422607421875
-1.58856201171875,0.184967041015625,0.2524871826171875
-1.41912841796875,0.167724609375,0.2150726318359375
-1.389556884765625,-0.090667724609375,0.2371826171875
-1.2595977783203125,-0.245513916015625,0.1539459228515625
-1.27667236328125,-0.3353424072265625,0.0077362060546875
-1.2768096923828125,-0.3696746826171875,-0.0877227783203125
-1.063995361328125,-0.434417724609375,-0.10369873046875
-1.064727783203125,-0.4380035400390625,-0.0394439697265625
-1.1942138671875,-0.4355926513671875,-0.0722808837890625
-1.3758697509765625,-0.3763275146484375,-0.1968231201171875
-2.1090087890625,-0.173309326171875,-0.36572265625
-3.1753692626953125,-0.004425048828125,-0.1770782470703125
-2.4481201171875,0.1656341552734375,-0.0804595947265625
-2.538238525390625,0.346710205078125,-0.230621337890625
-2.2582550048828125,0.531494140625,-0.175811767578125
-1.4098052978515625,0.5449981689453125,-0.1108551025390625
-0.7837371826171875,0.4960784912109375,-0.111724853515625
-0.407562255859375,0.4012298583984375,-0.1239776611328125
-0.2214813232421875,0.294891357421875,-0.1724853515625
-0.2121734619140625,0.2550811767578125,-0.1508941650390625
-0.1983489990234375,0.192169189453125,-0.10400390625
-0.1527557373046875,0.1724395751953125,-0.058441162109375
-0.114776611328125,0.202362060546875,-0.0585174560546875
-0.17120361328125,0.2783050537109375,-0.11029052734375
-0.4053955078125,0.60693359375,-0.0207366943359375
-0.934906005859375,0.756256103515625,0.286895751953125
-1.659637451171875,0.795623779296875,0.4405059814453125
-2.2316436767578125,0.9448394775390624,0.441802978515625
-2.689926147460937,0.6999359130859375,0.55859375
-2.422592163085937,0.2380523681640625,0.4838714599609375
-1.94696044921875,-0.168792724609375,0.3377685546875
-1.6122283935546875,-0.4784088134765625,0.2778472900390625
-1.1784515380859375,-0.591705322265625,0.089263916015625
-1.050323486328125,-0.5610809326171875,-0.0875244140625
-1.152313232421875,-0.4584197998046875,-0.0990753173828125
-1.216766357421875,-0.357208251953125,-0.0265960693359375
-1.5211181640625,-0.218719482421875,0.00408935546875
-1.9276123046875,-0.0719757080078125,0.0830230712890625
-2.77984619140625,0.1150665283203125,0.303558349609375
-2.4790191650390625,0.281890869140625,0.308746337890625
-2.1920318603515625,0.442474365234375,0.2239837646484375
-2.330291748046875,0.579132080078125,0.098175048828125
-1.8725738525390625,0.672760009765625,0.110107421875
-1.2631683349609375,0.58062744140625,0.0428924560546875
-0.641998291015625,0.5175628662109375,-0.003936767578125
-0.2002410888671875,0.3762969970703125,-0.0130462646484375
0.012237548828125,0.233856201171875,-0.029266357421875
0.0775146484375,0.164581298828125,-0.0713958740234375
0.0665435791015625,0.1620635986328125,-0.1110992431640625
0.0599822998046875,0.1709442138671875,-0.121734619140625
-0.04681396484375,0.262176513671875,-0.207794189453125
-0.5192108154296875,0.4944000244140625,-0.0048370361328125
-1.13751220703125,0.5204315185546875,0.410552978515625
-1.61016845703125,0.1461334228515625,0.790191650390625
-1.7814483642578125,0.12335205078125,0.80023193359375
-1.8783111572265625,0.176971435546875,0.61370849609375
-1.7513580322265625,0.2265167236328125,0.548095703125
-1.5214691162109375,0.2290496826171875,0.442169189453125
-1.48944091796875,0.1181182861328125,0.489837646484375
-1.6023712158203125,0.1099090576171875,0.4273834228515625
-1.6343536376953125,-0.2669830322265625,0.531280517578125
-1.21307373046875,-0.421875,0.5897979736328125
-0.977874755859375,-0.557464599609375,0.5975494384765625
-1.1419830322265625,-0.62939453125,0.4345855712890625
-1.5780792236328125,-0.6091461181640625,0.1670684814453125
-2.0915679931640625,-0.7285308837890625,0.0980072021484375
-2.26141357421875,-0.4834747314453125,-0.0597991943359375
-3.0146026611328125,-0.2839813232421875,0.06365966796875
-3.257919311523437,0.0134735107421875,0.3380584716796875
-2.5089874267578125,0.3773651123046875,0.0251922607421875
-1.9307098388671875,0.5809478759765625,-0.1993865966796875
-1.36279296875,0.50262451171875,-0.25299072265625
-1.04449462890625,0.429046630859375,-0.208892822265625
-0.6013641357421875,0.3735504150390625,-0.162322998046875
-0.2608184814453125,0.322113037109375,-0.0981597900390625
0.024444580078125,0.2665557861328125,-0.0305328369140625
0.1263427734375,0.2137908935546875,0.0204925537109375
0.1275177001953125,0.1951141357421875,0.0591583251953125
0.1005859375,0.124725341796875,0.06390380859375
0.062469482421875,0.1006622314453125,0.10662841796875
0.0359039306640625,0.1649322509765625,0.103271484375
-0.2545013427734375,0.3364410400390625,0.1138458251953125
-1.067962646484375,0.5254364013671875,0.274139404296875
-2.268783569335937,0.5174102783203125,0.33404541015625
-2.8943328857421875,0.0604095458984375,0.56982421875
-2.9280242919921875,-0.01446533203125,0.70599365234375
-2.4519195556640625,-0.1187896728515625,0.58563232421875
-2.0266876220703125,-0.33538818359375,0.5717010498046875
-1.70428466796875,-0.423492431640625,0.5476837158203125
-1.440948486328125,-0.575103759765625,0.38836669921875
-1.166717529296875,-0.59124755859375,0.25390625
-0.958953857421875,-0.5881805419921875,0.1297607421875
-0.8700408935546875,-0.5765228271484375,0.0940704345703125
-0.8739776611328125,-0.5773468017578125,0.0932464599609375
-0.833740234375,-0.490447998046875,0.110565185546875
-0.94757080078125,-0.4517669677734375,0.1425628662109375
-1.2708740234375,-0.43450927734375,0.1894683837890625
-1.663665771484375,-0.356658935546875,0.2452239990234375
-2.073348999023437,-0.2724456787109375,0.269989013671875
-2.8504638671875,-0.05517578125,0.411956787109375
-3.5248565673828125,-0.0755767822265625,0.5914306640625
-3.1208953857421875,0.2793426513671875,0.5392303466796875
-2.837799072265625,0.281707763671875,0.564697265625
-2.0930938720703125,0.5413055419921875,0.296844482421875
-1.2775421142578125,0.6275177001953125,0.0927276611328125
-0.6170501708984375,0.5609283447265625,0.002838134765625
-0.212127685546875,0.45098876953125,-0.0244598388671875
0.0052337646484375,0.3299560546875,-0.0336761474609375
0.085052490234375,0.24609375,-0.0560455322265625
0.078948974609375,0.22479248046875,-0.076202392578125
0.08135986328125,0.2538604736328125,-0.086822509765625
0.1144256591796875,0.27911376953125,-0.109619140625
0.1135101318359375,0.3838348388671875,-0.1699066162109375
-0.31048583984375,0.8034210205078125,-0.0584564208984375
-1.197540283203125,0.823638916015625,0.40277099609375
-2.758407592773437,0.75830078125,0.909454345703125
-3.4418182373046875,0.914459228515625,0.556488037109375
-3.236663818359375,0.39752197265625,0.76763916015625
-2.4248809814453125,-0.13201904296875,0.7977447509765625
-2.004974365234375,-0.2930908203125,0.54656982421875
-1.8458099365234373,-0.3969573974609375,0.219329833984375
-1.6024627685546875,-0.426116943359375,-0.0133209228515625
-1.1892242431640625,-0.439361572265625,-0.21661376953125
-0.9565277099609376,-0.3349609375,-0.3007659912109375
-1.0058441162109375,-0.3743133544921875,-0.2798004150390625
-1.1054534912109375,-0.29803466796875,-0.1695404052734375
-1.6029815673828125,-0.271392822265625,-0.0966796875
-2.2678985595703125,-0.2027587890625,0.0702972412109375
-2.817626953125,-0.2067718505859375,0.12261962890625
-2.642074584960937,0.1435394287109375,-0.056976318359375
-3.016754150390625,0.3072052001953125,-0.388275146484375
-2.787017822265625,0.47625732421875,-0.263153076171875
-1.94818115234375,0.51495361328125,-0.1578521728515625
-1.1262664794921875,0.6167144775390625,-0.227508544921875
-0.5445404052734375,0.50946044921875,-0.21337890625
-0.2414703369140625,0.4051971435546875,-0.1767578125
-0.0632781982421875,0.319183349609375,-0.11358642578125
-0.0116424560546875,0.261932373046875,-0.116546630859375
0.0079345703125,0.2424163818359375,-0.1433563232421875
0.041595458984375,0.2562713623046875,-0.1024322509765625
0.082550048828125,0.2874755859375,-0.0487060546875
0.0489501953125,0.380279541015625,0.0022125244140625
-0.2552337646484375,0.5391387939453125,0.1428985595703125
-0.9564971923828124,0.665924072265625,0.4419708251953125
-2.2919921875,0.76129150390625,0.3554840087890625
-3.063949584960937,0.6772613525390625,0.7224578857421875
-3.3441314697265625,0.2827301025390625,0.592041015625
-2.88818359375,-0.03680419921875,0.696746826171875
-2.145751953125,-0.1968536376953125,0.606109619140625
-1.53961181640625,-0.0978851318359375,0.3840179443359375
-1.207794189453125,-0.161529541015625,0.1071319580078125
-1.14166259765625,-0.131805419921875,-0.34881591796875
-1.02813720703125,-0.0862884521484375,-0.54400634765625
-0.924835205078125,-0.073089599609375,-0.339752197265625
-1.027496337890625,-0.1172332763671875,-0.15875244140625
-1.1767730712890625,-0.016326904296875,-0.0166015625
-1.428955078125,0.0484619140625,0.0334930419921875
-1.7926483154296875,0.17706298828125,0.04608154296875
-2.390533447265625,0.5856781005859375,0.049072265625
-2.792816162109375,0.922821044921875,-0.24261474609375
-2.6168212890625,1.1656646728515625,-0.238800048828125
-2.2931671142578125,1.2563018798828125,-0.0064544677734375
-1.7623443603515625,1.0792694091796875,0.0250396728515625
-1.3359222412109375,0.872833251953125,0.0416412353515625
-0.969482421875,0.7795562744140625,-0.0265045166015625
-0.7035064697265625,0.7584686279296875,-0.0976715087890625
-0.3737030029296875,0.7431182861328125,-0.0491180419921875
-0.075714111328125,0.4964141845703125,0.0198516845703125
0.1165008544921875,0.317169189453125,0.07415771484375
0.167144775390625,0.2251434326171875,0.0291595458984375
0.1057281494140625,0.315887451171875,-0.0228729248046875
-0.023284912109375,0.4484100341796875,0.064971923828125
-0.3669281005859375,0.6368560791015625,0.2230987548828125
-1.6504058837890625,0.5908050537109375,0.59033203125
-2.883880615234375,0.5626068115234375,0.8303985595703125
-2.932647705078125,0.329498291015625,0.734130859375
-2.5418853759765625,0.0515594482421875,0.7450103759765625
-2.012298583984375,-0.2766876220703125,0.760284423828125
-1.6507415771484375,-0.3329315185546875,0.520660400390625
-1.4651336669921875,-0.501861572265625,0.37982177734375
-1.0706787109375,-0.5514678955078125,0.31005859375
-0.8430328369140625,-0.59783935546875,0.158111572265625
-0.8577423095703125,-0.6201629638671875,0.110198974609375
-0.9720001220703124,-0.5715484619140625,0.0984954833984375
-1.3576507568359375,-0.3564453125,0.1534271240234375
-1.7828216552734375,-0.225128173828125,0.2205352783203125
-2.259429931640625,0.10693359375,0.3412933349609375
-2.7056121826171875,0.2467803955078125,0.31634521484375
-2.5251007080078125,0.4936676025390625,0.32269287109375
-2.179306030273437,0.6428070068359375,0.1258392333984375
-2.1968994140625,0.686431884765625,0.0816497802734375
-1.7798614501953125,0.6943206787109375,0.0875091552734375
-1.1860809326171875,0.6739501953125,0.0474395751953125
-0.720001220703125,0.6288604736328125,0.0097808837890625
-0.4119720458984375,0.6101837158203125,-0.0229339599609375
-0.1998443603515625,0.6076202392578125,0.00372314453125
-0.054718017578125,0.4981689453125,0.0535736083984375
0.0462646484375,0.3180999755859375,0.0547943115234375
0.0668182373046875,0.2005462646484375,0.049774169921875
-0.0707855224609375,0.252838134765625,0.0117950439453125
-0.540496826171875,0.5181884765625,0.0088653564453125
-1.2693023681640625,0.5446929931640625,0.3330535888671875
-2.046981811523437,0.50823974609375,0.4149017333984375
-2.4614410400390625,0.6685028076171875,0.5579071044921875
-2.54840087890625,0.4059906005859375,0.6322784423828125
-2.32373046875,0.191253662109375,0.5634002685546875
-1.894805908203125,-0.1419525146484375,0.4636688232421875
-1.3950347900390625,-0.2796630859375,0.353729248046875
-1.13330078125,-0.3592681884765625,0.22198486328125
-1.0605010986328125,-0.4910736083984375,0.12005615234375
-1.117401123046875,-0.4618377685546875,0.1064605712890625
-1.185089111328125,-0.43878173828125,0.2006072998046875
-1.35302734375,-0.3638458251953125,0.286376953125
-1.54388427734375,-0.349884033203125,0.283233642578125
-2.070159912109375,-0.0627593994140625,0.2094268798828125
-2.6494293212890625,-0.1627044677734375,0.021484375
-2.419921875,0.1663055419921875,-0.1112518310546875
-2.594207763671875,0.244781494140625,-0.3189849853515625
-2.524322509765625,0.435699462890625,-0.2503509521484375
-1.921112060546875,0.394134521484375,-0.1422119140625
-1.3187713623046875,0.4015045166015625,-0.0947723388671875
-0.7166290283203125,0.398834228515625,-0.084075927734375
-0.3333587646484375,0.34039306640625,-0.095794677734375
-0.1479034423828125,0.259735107421875,-0.078216552734375
-0.0084228515625,0.206085205078125,-0.098724365234375
0.04559326171875,0.1725921630859375,-0.109893798828125
0.0038909912109375,0.165802001953125,-0.0972900390625
-0.003753662109375,0.1925048828125,-0.067657470703125
-0.09912109375,0.285797119140625,-0.0405426025390625
-0.487030029296875,0.5030364990234375,0.1609649658203125
-1.6453399658203125,0.5615234375,0.3979644775390625
-2.6513824462890625,0.3348236083984375,1.181610107421875
-2.4984130859375,-0.2325439453125,1.22711181640625
-2.13763427734375,-0.0088348388671875,0.914459228515625
-2.1302032470703125,-0.121246337890625,0.590362548828125
-1.846160888671875,-0.46551513671875,0.35113525390625
-1.7376556396484375,-0.9021148681640624,0.479248046875
-1.3015594482421875,-1.002044677734375,0.341522216796875
-1.008209228515625,-0.9591217041015624,0.1080322265625
-0.907257080078125,-0.8536376953125,-0.0460205078125
-0.965728759765625,-0.71527099609375,-0.03265380859375
-1.218109130859375,-0.5819549560546875,-0.0369415283203125
-1.5897674560546875,-0.482666015625,-0.0791168212890625
-2.069931030273437,-0.4415740966796875,-0.1017608642578125
-2.6031646728515625,-0.4465789794921875,-0.15576171875
-2.52227783203125,-0.21466064453125,-0.1300048828125
-2.2822265625,-0.0596466064453125,-0.1409149169921875
-2.39013671875,0.00335693359375,-0.2018280029296875
-1.8877410888671875,0.2045135498046875,-0.1042938232421875
-1.2167205810546875,0.26885986328125,-0.0519256591796875
-0.7185821533203125,0.2918853759765625,-0.0355987548828125
-0.4409637451171875,0.244537353515625,0.0766754150390625
-0.1798553466796875,0.2191619873046875,0.1370391845703125
-0.0498504638671875,0.1366424560546875,0.1138153076171875
-0.01922607421875,0.110565185546875,0.0543060302734375
0.00164794921875,0.1011505126953125,0.0237274169921875
0.0005340576171875,0.102569580078125,0.0137939453125
-0.040313720703125,0.1036224365234375,-0.0173187255859375
-0.3100433349609375,0.2713165283203125,-0.03125
-0.8138427734375,0.2886962890625,0.2556610107421875
-1.6788330078125,0.3850555419921875,0.26800537109375
-2.3188934326171875,0.1456451416015625,0.376861572265625
-2.828094482421875,0.058197021484375,0.392608642578125
-2.8753662109375,-0.0670318603515625,0.259552001953125
-2.295562744140625,-0.1541900634765625,0.3382415771484375
-1.6435546875,-0.31121826171875,0.2877655029296875
-1.258087158203125,-0.4612884521484375,0.2357330322265625
-1.0022430419921875,-0.4651031494140625,0.15057373046875
-0.9138031005859376,-0.4648590087890625,-0.018707275390625
-0.99652099609375,-0.3952178955078125,-0.07977294921875
-1.1770477294921875,-0.36126708984375,-0.0311431884765625
-1.4144744873046875,-0.391021728515625,0.0621185302734375
-1.7117919921875,-0.40545654296875,0.13720703125
-2.084716796875,-0.32464599609375,0.145355224609375
-2.603790283203125,-0.0615692138671875,-0.196441650390625
-2.6148681640625,0.175048828125,-0.641815185546875
-1.96875,0.3427734375,-0.5822296142578125
-1.64404296875,0.3972320556640625,-0.808258056640625
-1.1995391845703125,0.47271728515625,-0.7194061279296875
-0.8557891845703125,0.373382568359375,-0.64959716796875
-0.5387420654296875,0.1814117431640625,-0.4429473876953125
-0.4398651123046875,0.22509765625,-0.475433349609375
-0.317230224609375,0.1112213134765625,-0.246795654296875
-0.15771484375,0.048248291015625,-0.3955841064453125
-0.146820068359375,-0.0304718017578125,-0.2503662109375
-0.0518646240234375,0.0686492919921875,-0.2482452392578125
-0.199859619140625,0.144012451171875,-0.23150634765625
-0.4263763427734375,0.046051025390625,-0.1514434814453125
-0.66259765625,-0.1529541015625,-0.093048095703125
-0.99517822265625,-0.182373046875,-0.4273834228515625
-1.4472503662109375,-0.2563629150390625,-0.84710693359375
-1.60589599609375,-0.2298736572265625,-1.0402374267578125
-1.43292236328125,-0.370574951171875,-1.13885498046875
-1.2310638427734375,-0.3864593505859375,-1.038726806640625
-1.1316680908203125,-0.511871337890625,-0.99267578125
-0.9741668701171876,-0.6865997314453125,-0.9983673095703124
-0.83026123046875,-0.79681396484375,-1.0372467041015625
-0.6701507568359375,-0.684478759765625,-0.9746551513671876
-0.5483245849609375,-0.526641845703125,-0.942108154296875
-0.475738525390625,-0.36407470703125,-0.9167938232421876
-0.4411773681640625,-0.302581787109375,-0.91314697265625
-0.46563720703125,-0.3870849609375,-0.945892333984375
-0.55938720703125,-0.5025634765625,-1.0257110595703125
-0.7482147216796875,-0.64166259765625,-1.06378173828125
-0.9902801513671876,-0.6927032470703125,-1.3428802490234375
-1.573028564453125,-0.445098876953125,-1.597320556640625
-1.6676025390625,-0.2344512939453125,-1.338775634765625
-1.318328857421875,-0.2159271240234375,-0.7162322998046875
-0.897796630859375,-0.0435943603515625,-0.580963134765625
-0.588226318359375,0.0368804931640625,-0.4139404296875
-0.331329345703125,0.0702056884765625,-0.2802581787109375
-0.1517791748046875,0.0763702392578125,-0.11822509765625
-0.0604095458984375,0.109619140625,0.0540618896484375
0.0131378173828125,0.140625,0.114105224609375
0.0478363037109375,0.1524810791015625,0.0531005859375
-0.0741424560546875,0.251068115234375,0.04315185546875
-0.2952728271484375,0.3432464599609375,0.1372528076171875
-0.71478271484375,0.2401123046875,0.32904052734375
-1.333587646484375,0.11505126953125,0.15850830078125
-2.291748046875,0.32757568359375,0.1498870849609375
-2.6864471435546875,0.201629638671875,0.31463623046875
-2.5597381591796875,0.071624755859375,0.41900634765625
-2.27978515625,0.0182037353515625,0.030975341796875
-1.7201995849609375,-0.039093017578125,-0.1090240478515625
-1.3196868896484375,-0.1524658203125,-0.0558013916015625
-1.356292724609375,-0.3697967529296875,-0.03875732421875
-1.3658447265625,-0.6609344482421875,0.0423431396484375
-1.1292877197265625,-0.7515716552734375,0.1705474853515625
-1.01483154296875,-0.6948394775390625,0.065765380859375
-1.024200439453125,-0.51898193359375,-0.1602935791015625
-1.20074462890625,-0.2556915283203125,-0.570159912109375
-1.36175537109375,-0.050445556640625,-0.836822509765625
-1.6203460693359375,0.0086669921875,-0.9097137451171876
-2.035064697265625,-0.0421295166015625,-0.677459716796875
-2.634872436523437,-0.0117340087890625,-0.80615234375
-2.667098999023437,0.080230712890625,-0.6302337646484375
-2.0785675048828125,0.2681121826171875,-0.4151153564453125
-1.6302337646484375,0.2945709228515625,-0.396331787109375
-1.097869873046875,0.352996826171875,-0.263031005859375
-0.56109619140625,0.327850341796875,-0.1166229248046875
-0.243499755859375,0.321014404296875,0.0346221923828125
-0.041015625,0.294281005859375,0.050567626953125
0.060882568359375,0.2822113037109375,-0.0721893310546875
0.0888214111328125,0.290618896484375,-0.1770782470703125
0.0811767578125,0.2860565185546875,-0.1659698486328125
-0.04827880859375,0.25897216796875,-0.154754638671875
-0.4803314208984375,0.28936767578125,-0.13677978515625
-1.305023193359375,0.2752532958984375,0.1607513427734375
-1.9939422607421875,0.5859527587890625,0.2253265380859375
-2.63739013671875,0.469818115234375,-0.219390869140625
-2.6357574462890625,0.3555755615234375,-0.2007293701171875
-2.1800537109375,0.168304443359375,-0.1208648681640625
-1.6176910400390625,0.077178955078125,-0.093170166015625
-1.386505126953125,-0.02947998046875,-0.2501220703125
-1.4786376953125,-0.3521270751953125,-0.392608642578125
-1.52740478515625,-0.677215576171875,-0.1529083251953125
-1.31121826171875,-0.7704925537109375,-0.2909393310546875
-1.0320892333984375,-0.8153228759765625,-0.433807373046875
-1.0919952392578125,-0.68707275390625,-0.2894287109375
-1.28204345703125,-0.4934234619140625,-0.124847412109375
-1.6382598876953125,-0.3453521728515625,-0.1264495849609375
-2.125152587890625,-0.0866851806640625,-0.1092987060546875
-2.395355224609375,0.1145172119140625,-0.384521484375
-2.4135284423828125,0.2467498779296875,-0.427947998046875
-2.0566558837890625,0.3910064697265625,-0.2857666015625
-1.898345947265625,0.38763427734375,-0.2241668701171875
-1.495819091796875,0.3799591064453125,-0.177276611328125
-0.9810791015625,0.3160858154296875,-0.1371002197265625
-0.4727020263671875,0.2818450927734375,-0.103118896484375
-0.198577880859375,0.153717041015625,-0.1050262451171875
-0.1203460693359375,0.1165771484375,-0.0797576904296875
-0.2111663818359375,-0.02252197265625,-0.13360595703125
-0.2578582763671875,-0.00799560546875,-0.1727447509765625
-0.23736572265625,-0.02691650390625,-0.2138824462890625
-0.21563720703125,0.018096923828125,-0.2282867431640625
-0.2574615478515625,0.1634368896484375,-0.1604156494140625
-0.7061920166015625,0.2912750244140625,0.073028564453125
-1.350860595703125,0.39923095703125,0.353363037109375
-2.1483306884765625,0.291473388671875,0.3258209228515625
-2.59857177734375,0.17340087890625,0.38079833984375
-2.369354248046875,-0.1407928466796875,0.092132568359375
-1.8895416259765625,-0.2036285400390625,0.2574920654296875
-1.40594482421875,-0.348663330078125,0.1756591796875
-1.226806640625,-0.3875274658203125,-0.0213470458984375
-1.11126708984375,-0.365753173828125,-0.200439453125
-1.02386474609375,-0.4205474853515625,-0.20904541015625
-1.074462890625,-0.41754150390625,-0.011077880859375
-1.1467742919921875,-0.2744598388671875,0.178680419921875
-1.1356353759765625,-0.1331939697265625,0.07733154296875
-1.2471923828125,-0.1050872802734375,0.0738067626953125
-1.2606658935546875,-0.139801025390625,-0.0060882568359375
-1.4113922119140625,-0.1663360595703125,-0.066375732421875
-1.6223297119140625,-0.135894775390625,-0.0989532470703125
-2.1446075439453125,-0.067352294921875,-0.313201904296875
-2.6970672607421875,0.1798858642578125,-0.2031707763671875
-2.165618896484375,0.3704376220703125,-0.0784759521484375
-1.485198974609375,0.3738555908203125,-0.144989013671875
-1.0309600830078125,0.31292724609375,-0.181915283203125
-0.700592041015625,0.1717376708984375,-0.230499267578125
-0.4540863037109375,0.2052001953125,-0.2238311767578125
-0.286102294921875,0.2037353515625,-0.1452178955078125
-0.1844329833984375,0.184539794921875,-0.0676116943359375
-0.1696319580078125,0.1498565673828125,-0.019317626953125
-0.1691741943359375,0.1195220947265625,-0.0321197509765625
-0.2085113525390625,0.1291046142578125,-0.014923095703125
-0.281005859375,0.133697509765625,0.025634765625
-0.4740753173828125,0.2296600341796875,0.076690673828125
-0.9084625244140624,0.5169219970703125,0.0139923095703125
-1.82952880859375,0.5559234619140625,0.583740234375
-2.0146636962890625,0.5617218017578125,0.9416961669921876
-2.101837158203125,0.451446533203125,0.6348876953125
-2.1430816650390625,0.55804443359375,0.302032470703125
-1.711700439453125,0.343231201171875,0.1476898193359375
-1.536407470703125,0.276123046875,0.152587890625
-1.4291839599609375,-0.1002197265625,0.192352294921875
-1.399078369140625,-0.3514251708984375,0.255889892578125
-1.2579498291015625,-0.3299713134765625,0.1055145263671875
-1.022735595703125,-0.3150787353515625,-0.2626495361328125
-0.96392822265625,-0.3029327392578125,-0.41070556640625
-1.12811279296875,-0.2469635009765625,-0.28692626953125
-1.1744842529296875,-0.2439117431640625,-0.1794281005859375
-1.2403717041015625,-0.2225341796875,-0.146881103515625
-1.20556640625,-0.1571044921875,-0.1695098876953125
-1.299652099609375,-0.1368865966796875,-0.2628173828125
-1.6346588134765625,-0.0706024169921875,-0.3663787841796875
-2.3317413330078125,-0.132171630859375,-0.677734375
-2.500335693359375,0.20941162109375,-0.7494049072265625
-2.0880584716796875,0.2567291259765625,-0.64697265625
-1.7541351318359375,0.3021697998046875,-0.3988494873046875
-1.2280426025390625,0.37744140625,-0.325286865234375
-0.76275634765625,0.38140869140625,-0.22906494140625
-0.49749755859375,0.2889251708984375,-0.15216064453125
-0.372344970703125,0.2734527587890625,-0.1172943115234375
-0.282623291015625,0.2168731689453125,-0.08453369140625
-0.167449951171875,0.148040771484375,-0.1273040771484375
-0.0415191650390625,0.1516876220703125,-0.1346588134765625
-0.04254150390625,0.2032928466796875,-0.1135101318359375
-0.189971923828125,0.2264404296875,-0.0738067626953125
-0.5740509033203125,0.386016845703125,-0.0646820068359375
-1.736724853515625,0.586456298828125,0.133941650390625
-2.3540496826171875,0.3292083740234375,0.4610443115234375
-2.3776397705078125,-0.06536865234375,0.1848907470703125
-2.124481201171875,0.0085296630859375,0.240264892578125
-1.7480621337890625,-0.0676116943359375,0.2592315673828125
-1.663055419921875,-0.196441650390625,0.0341796875
-1.5084228515625,-0.386199951171875,0.08038330078125
-1.245758056640625,-0.51806640625,0.1090240478515625
-1.1648406982421875,-0.543548583984375,0.13336181640625
-1.0373382568359375,-0.5338287353515625,0.3049468994140625
-0.9625701904296876,-0.5772552490234375,0.270904541015625
-1.08355712890625,-0.527099609375,0.117431640625
-1.205291748046875,-0.4289398193359375,-0.066253662109375
-1.381805419921875,-0.379302978515625,-0.2774200439453125
-1.9305572509765625,-0.289947509765625,-0.502349853515625
-2.338531494140625,-0.1615142822265625,-0.4385223388671875
-2.401275634765625,-0.107635498046875,-0.35260009765625
-2.426239013671875,0.082855224609375,-0.3759613037109375
-2.225692749023437,0.2345123291015625,-0.418243408203125
-1.892822265625,0.350341796875,-0.4669036865234375
-1.5262603759765625,0.4090728759765625,-0.3549652099609375
-1.15997314453125,0.3344268798828125,-0.2380218505859375
-0.7881317138671875,0.3152008056640625,-0.1746978759765625
-0.4544525146484375,0.2959747314453125,-0.14337158203125
-0.1942291259765625,0.2803802490234375,-0.117523193359375
-0.0485382080078125,0.2396697998046875,-0.099395751953125
-0.013519287109375,0.23260498046875,-0.1212615966796875
0.0028839111328125,0.1456451416015625,-0.156768798828125
-0.0518035888671875,0.138702392578125,-0.05426025390625
-0.04815673828125,0.033203125,0.0256805419921875
-0.2971649169921875,0.0049896240234375,0.044219970703125
-0.6837310791015625,0.213653564453125,0.041412353515625
-2.213714599609375,0.5998687744140625,0.287872314453125
-2.703964233398437,0.4444580078125,0.79754638671875
-3.12677001953125,0.062164306640625,0.6325531005859375
-2.918609619140625,-0.4292144775390625,0.5469818115234375
-1.8923492431640625,-0.561004638671875,0.5263824462890625
-1.203704833984375,-0.22100830078125,0.30908203125
-0.9482421875,-0.3198699951171875,0.172515869140625
-0.779083251953125,-0.4514617919921875,0.090362548828125
-0.7490692138671875,-0.5443267822265625,0.035736083984375
-0.823760986328125,-0.5768280029296875,0.046173095703125
-0.8511199951171875,-0.592620849609375,0.00469970703125
-0.929168701171875,-0.51812744140625,-0.050018310546875
-1.0538482666015625,-0.44073486328125,-0.0967864990234375
-1.2097625732421875,-0.4360504150390625,-0.1292266845703125
-1.4164886474609375,-0.5029296875,-0.178802490234375
-1.6244964599609375,-0.456390380859375,-0.288543701171875
-1.873779296875,-0.2081298828125,-0.5965118408203125
-2.285873413085937,-0.03143310546875,-0.658782958984375
-2.6401519775390625,-0.279083251953125,-0.7416229248046875
-2.1075897216796875,0.072906494140625,-0.6113433837890625
-1.7280731201171875,0.2096405029296875,-0.497833251953125
-1.4513397216796875,0.208221435546875,-0.5516510009765625
-1.0100555419921875,0.2615509033203125,-0.393890380859375
-0.6046905517578125,0.274749755859375,-0.2297210693359375
-0.343902587890625,0.2384490966796875,-0.1212310791015625
-0.2017669677734375,0.2425994873046875,-0.0186614990234375
-0.1492156982421875,0.2356109619140625,-0.01446533203125
-0.258148193359375,0.2427520751953125,-0.05682373046875
-0.4031829833984375,0.30303955078125,-0.04248046875
-0.3869476318359375,0.260650634765625,0.0556182861328125
-0.558990478515625,0.2982940673828125,0.1427459716796875
-1.0465545654296875,0.3514404296875,0.19281005859375
-1.554656982421875,0.3440704345703125,0.3079986572265625
-1.817047119140625,0.4180450439453125,0.273345947265625
-1.8973541259765625,0.513031005859375,0.2080230712890625
-2.2931365966796875,0.7364654541015625,0.201446533203125
-2.269775390625,0.595306396484375,0.1138916015625
-1.9894561767578125,0.4168701171875,-0.071990966796875
-1.770965576171875,0.272796630859375,-0.244354248046875
-1.5159149169921875,0.0984649658203125,-0.2982025146484375
-1.318695068359375,-0.0734405517578125,-0.19525146484375
-1.1118621826171875,-0.25726318359375,-0.0213165283203125
-1.087310791015625,-0.3876953125,0.16986083984375
-1.123443603515625,-0.3065185546875,0.1929473876953125
-1.5246429443359375,-0.3148956298828125,-0.093658447265625
-1.9418487548828125,-0.164794921875,-0.2699737548828125
-2.944915771484375,-0.015838623046875,-0.3034515380859375
-3.028594970703125,0.423919677734375,-0.572479248046875
-3.0114898681640625,0.9011077880859376,-0.466278076171875
-2.583984375,0.8457794189453125,-0.34918212890625
-1.920623779296875,0.688323974609375,-0.4369049072265625
-1.507537841796875,0.6248626708984375,-0.5240631103515625
-1.0787506103515625,0.5641021728515625,-0.40606689453125
-0.830322265625,0.4358978271484375,-0.3006744384765625
-0.5236663818359375,0.483062744140625,-0.1180877685546875
-0.2285308837890625,0.34063720703125,-0.0948028564453125
-0.2206878662109375,0.2792205810546875,-0.162841796875
-0.163055419921875,0.2901458740234375,-0.165802001953125
-0.12432861328125,0.2570648193359375,-0.1741790771484375
-0.4060211181640625,0.400054931640625,-0.0993499755859375
-0.8661346435546875,0.370147705078125,0.2478179931640625
-1.447265625,0.286834716796875,0.3295440673828125
-2.16650390625,0.2216644287109375,0.4356536865234375
-2.60382080078125,0.294586181640625,0.14599609375
-2.505340576171875,-0.094482421875,-0.2591705322265625
-1.9473419189453125,-0.5214385986328125,-0.260345458984375
-1.6060638427734375,-0.69317626953125,-0.099029541015625
-1.2777862548828125,-0.73345947265625,-0.167816162109375
-1.0208282470703125,-0.6133575439453125,-0.3358154296875
-0.94384765625,-0.414398193359375,-0.507904052734375
-1.2365264892578125,-0.429595947265625,-0.7569427490234375
-1.557373046875,-0.2785186767578125,-0.8481292724609375
-1.7620086669921875,-0.1160736083984375,-0.770599365234375
-2.00640869140625,0.0574951171875,-0.790191650390625
-2.231109619140625,0.208984375,-0.8948211669921875
-1.9318389892578125,0.3189849853515625,-0.7480316162109375
-1.5404510498046875,0.3378143310546875,-0.6190185546875
-1.245574951171875,0.310699462890625,-0.6513824462890625
-0.91412353515625,0.2828521728515625,-0.5245513916015625
-0.5421142578125,0.2335052490234375,-0.405853271484375
-0.263427734375,0.155914306640625,-0.230438232421875
-0.0951690673828125,0.021575927734375,-0.1428680419921875
-0.1032562255859375,-0.08270263671875,-0.0875396728515625
-0.1797637939453125,-0.206512451171875,-0.1428680419921875
-0.236114501953125,-0.2334442138671875,-0.21978759765625
-0.1915130615234375,-0.2704620361328125,-0.2617645263671875
-0.194671630859375,-0.2458953857421875,-0.242401123046875
-0.22943115234375,-0.004791259765625,-0.1953277587890625
-0.340301513671875,0.149139404296875,-0.20751953125
-0.7019500732421875,0.36065673828125,-0.09478759765625
-1.3844757080078125,0.5429840087890625,-0.1097869873046875
-2.1114654541015625,0.1950836181640625,0.076629638671875
-2.3486480712890625,0.076263427734375,0.3472442626953125
-2.19342041015625,-0.0979461669921875,0.19805908203125
-1.7998046875,-0.132354736328125,0.2020416259765625
-1.3829498291015625,-0.1861419677734375,0.1056976318359375
-1.163726806640625,-0.2481842041015625,0.0009002685546875
-1.0455780029296875,-0.27655029296875,-0.0335235595703125
-1.0792236328125,-0.360076904296875,-0.1239776611328125
-1.196380615234375,-0.43865966796875,-0.012786865234375
-1.3037872314453125,-0.4805145263671875,0.1569671630859375
-1.373565673828125,-0.4376068115234375,0.2148284912109375
-1.6225433349609375,-0.373504638671875,-0.0298919677734375
-1.6828460693359375,-0.166259765625,-0.0091552734375
-1.701202392578125,-0.2232666015625,-0.1440887451171875
-2.1591033935546875,-0.3800201416015625,-0.0405120849609375
-2.15087890625,-0.3017425537109375,-0.1033935546875
-2.23651123046875,-0.3334808349609375,-0.3966217041015625
-2.1174468994140625,-0.070068359375,-0.2365570068359375
-1.6228790283203125,0.0528564453125,-0.20843505859375
-1.150360107421875,0.1764373779296875,-0.0878753662109375
-0.733306884765625,0.1717681884765625,-0.091644287109375
-0.5492706298828125,0.204864501953125,-0.075408935546875
-0.3995819091796875,0.2570343017578125,-0.00274658203125
-0.12213134765625,0.183563232421875,-0.09552001953125
-0.149078369140625,0.225616455078125,-0.0937652587890625
-0.0554351806640625,0.2234344482421875,-0.052978515625
0.1078338623046875,0.1754150390625,-0.02313232421875
0.0555267333984375,0.216278076171875,-0.0800933837890625
-0.220001220703125,0.3572998046875,0.0615692138671875
-0.97100830078125,0.561004638671875,0.2476654052734375
-2.32220458984375,0.471649169921875,0.37640380859375
-3.1154937744140625,0.2293243408203125,0.686859130859375
-2.96405029296875,-0.2657318115234375,0.4173736572265625
-2.6074981689453125,-0.342559814453125,0.4703826904296875
-1.7845916748046875,-0.3742828369140625,0.1949005126953125
-1.513031005859375,-0.422637939453125,0.11395263671875
-1.1141815185546875,-0.46600341796875,0.0753021240234375
-0.8447113037109375,-0.522613525390625,-0.056396484375
-0.835235595703125,-0.6056976318359375,-0.1233367919921875
-0.8608245849609375,-0.6302337646484375,-0.226593017578125
-0.97314453125,-0.6996307373046875,-0.1131744384765625
-1.204010009765625,-0.7348175048828125,0.02398681640625
-1.528961181640625,-0.7113037109375,0.087646484375
-1.9965362548828125,-0.7227935791015625,0.0896759033203125
-2.77978515625,-0.4916534423828125,-0.211395263671875
-2.949432373046875,0.07562255859375,-0.492919921875
-2.723846435546875,0.6057586669921875,-0.3880767822265625
-1.8716583251953125,0.51934814453125,-0.2041015625
-1.0753631591796875,0.3933563232421875,-0.0155029296875
-0.5465850830078125,0.299835205078125,0.031646728515625
-0.3558807373046875,0.3379974365234375,0.0348968505859375
-0.191162109375,0.36859130859375,0.00390625
-0.096099853515625,0.340576171875,-0.035400390625
-0.099212646484375,0.350830078125,-0.0997314453125
-0.192230224609375,0.3819732666015625,-0.11578369140625
-0.3583984375,0.524871826171875,-0.1239776611328125
-0.6402587890625,0.7549896240234375,-0.0872802734375
-1.4962921142578125,0.8245697021484375,-0.062469482421875
-2.723739624023437,0.8013916015625,-0.0194091796875
-3.207427978515625,0.4000396728515625,0.081634521484375
-2.3292694091796875,-0.1341400146484375,0.3120269775390625
-1.8064117431640625,-0.3455657958984375,-0.062744140625
-1.5820770263671875,-0.6187744140625,-0.198455810546875
-1.0439605712890625,-0.6270751953125,-0.1004638671875
-0.715087890625,-0.7327728271484375,-0.4180755615234375
-0.6505279541015625,-0.835052490234375,-0.7067413330078125
-0.72772216796875,-0.90093994140625,-0.6357574462890625
-0.949371337890625,-0.9425506591796876,-0.437408447265625
-1.5774688720703125,-0.908782958984375,-0.37567138671875
-3.070907592773437,-0.8275909423828125,-0.5977020263671875
-3.437591552734375,-0.1968231201171875,0.0416107177734375
-3.0355682373046875,0.28582763671875,-0.1134490966796875
-2.546051025390625,0.6936187744140625,-0.0371551513671875
-1.37823486328125,0.6438751220703125,0.142791748046875
-0.6639251708984375,0.6419830322265625,0.067230224609375
-0.4218597412109375,0.71929931640625,-0.094085693359375
-0.191070556640625,0.7911529541015625,-0.15692138671875
-0.04193115234375,0.645751953125,-0.158782958984375
0.08624267578125,0.364105224609375,-0.095550537109375
0.1490936279296875,0.1851959228515625,-0.0571136474609375
0.043426513671875,0.101104736328125,-0.0360870361328125
-0.3511962890625,0.25042724609375,0.0471038818359375
-1.41693115234375,0.23333740234375,0.5105743408203125
-2.494171142578125,0.42840576171875,1.1528472900390625
-3.084442138671875,0.3394317626953125,1.0605926513671875
-2.5747222900390625,0.09844970703125,0.3311920166015625
-1.4810028076171875,-0.1654510498046875,0.0073089599609375
-1.04339599609375,-0.3190765380859375,-0.1412353515625
-0.8038177490234375,-0.3623504638671875,-0.234771728515625
-0.5898895263671875,-0.613189697265625,-0.1995849609375
-0.855377197265625,-0.657806396484375,-0.1573486328125
-1.0196075439453125,-0.722137451171875,-0.0444183349609375
-1.1611328125,-0.719207763671875,0.1586456298828125
-1.3758697509765625,-0.639434814453125,0.23370361328125
-1.577606201171875,-0.5232086181640625,0.292694091796875
-2.114852905273437,-0.475189208984375,0.2926483154296875
-2.840118408203125,-0.0944976806640625,0.4762115478515625
-2.3024139404296875,0.48931884765625,0.5406951904296875
-1.517425537109375,0.2259521484375,0.4091033935546875
-0.96099853515625,0.2247467041015625,0.14263916015625
-0.5401763916015625,0.2303619384765625,-0.0169677734375
-0.2478485107421875,0.265869140625,0.0342864990234375
-0.0844573974609375,0.280670166015625,0.1106414794921875
0.00994873046875,0.238677978515625,0.151031494140625
0.05169677734375,0.2172393798828125,0.147064208984375
-0.0599822998046875,0.223358154296875,0.1646270751953125
-0.4767913818359375,0.237884521484375,0.03826904296875
-1.2009124755859375,0.1748504638671875,-0.0067291259765625
-2.0079345703125,0.1452789306640625,0.07464599609375
-2.7310791015625,-0.46044921875,-0.02044677734375
-2.3260040283203125,-0.5160675048828125,0.336212158203125
-1.6878814697265625,-0.4170684814453125,-0.073394775390625
-1.366302490234375,-0.3679351806640625,-0.3006439208984375
-1.0200653076171875,-0.441680908203125,-0.342041015625
-0.9226837158203124,-0.58111572265625,-0.2939910888671875
-0.9261474609375,-0.720703125,-0.1852569580078125
-0.8618621826171875,-0.903717041015625,-0.0982513427734375
-0.87738037109375,-1.1133575439453125,-0.05499267578125
-0.9732818603515624,-1.223175048828125,-0.099090576171875
-1.2929840087890625,-1.2652740478515625,-0.0691375732421875
-1.7812347412109375,-1.1196746826171875,0.0527801513671875
-2.290557861328125,-0.9024200439453124,0.1551666259765625
-2.3877105712890625,-0.411407470703125,0.2162933349609375
-2.037628173828125,-0.135498046875,0.300445556640625
-1.7679443359375,0.0192718505859375,0.2248687744140625
-1.4732818603515625,0.07708740234375,0.0965423583984375
-1.0517120361328125,0.113006591796875,0.0610198974609375
-0.694244384765625,0.135040283203125,0.054962158203125
-0.415618896484375,0.2571258544921875,0.05755615234375
-0.125244140625,0.2461700439453125,0.0158538818359375
0.0300140380859375,0.25018310546875,0.0329742431640625
0.062469482421875,0.299591064453125,0.05120849609375
-0.017059326171875,0.314056396484375,0.1190338134765625
-0.5413360595703125,0.249481201171875,0.1723175048828125
-1.7303466796875,0.011871337890625,0.2994842529296875
-2.412017822265625,-0.1147918701171875,0.8676910400390625
-2.2015838623046875,-0.346405029296875,0.8083648681640625
-1.8240814208984373,-0.4051055908203125,0.411041259765625
-1.576141357421875,-0.50927734375,0.2883148193359375
-1.2451934814453125,-0.7825775146484375,0.1794281005859375
-1.062408447265625,-0.9320068359375,-0.0652313232421875
-1.130584716796875,-1.0785064697265625,-0.244171142578125
-1.22735595703125,-1.0621337890625,-0.1650238037109375
-1.3741455078125,-0.9483184814453124,-0.019287109375
-1.76824951171875,-0.9019775390625,0.2312774658203125
-1.808685302734375,-0.6540374755859375,0.2407073974609375
-2.2411346435546875,-0.500244140625,-0.0026397705078125
-2.2178955078125,-0.0729827880859375,0.205902099609375
-1.7850341796875,-0.1170806884765625,0.1035003662109375
-1.519439697265625,-0.154327392578125,0.2933197021484375
-1.05926513671875,-0.0379180908203125,0.37908935546875
-0.5901641845703125,-0.082305908203125,0.2267913818359375
-0.309234619140625,0.1263580322265625,0.0326995849609375
-0.0566558837890625,0.2349395751953125,-0.050445556640625
0.0832672119140625,0.2038421630859375,-0.0586395263671875
0.2434844970703125,0.1792755126953125,-0.0342559814453125
0.319427490234375,0.177825927734375,-0.0738525390625
0.219451904296875,0.2094268798828125,-0.1226654052734375
-0.22479248046875,0.4122314453125,-0.001373291015625
-1.3376617431640625,0.4771270751953125,0.5121002197265625
-2.684783935546875,0.3363800048828125,0.773834228515625
-2.6022491455078125,-0.10552978515625,0.5387725830078125
-2.2524871826171875,-0.366912841796875,0.4060211181640625
-1.8365631103515625,-0.45037841796875,0.3632965087890625
-1.2236328125,-0.5918121337890625,0.14593505859375
-0.9991912841796876,-0.7273712158203125,-0.136749267578125
-1.0522918701171875,-0.9812469482421876,-0.3236541748046875
-1.1295318603515625,-1.019561767578125,-0.22601318359375
-1.1654205322265625,-0.9235076904296876,-0.1285400390625
-1.4263916015625,-0.6839752197265625,-0.0242767333984375
-1.9930419921875,-0.6672210693359375,-0.0829620361328125
-2.941925048828125,-0.3254241943359375,0.158294677734375
-2.2855377197265625,-0.046295166015625,-0.1163482666015625
-1.882232666015625,0.1564483642578125,-0.11187744140625
-1.655120849609375,0.128387451171875,0.1315155029296875
-1.199127197265625,0.1692962646484375,0.1580352783203125
-0.73284912109375,0.202362060546875,0.0399169921875
-0.4326171875,0.2669219970703125,-0.059234619140625
-0.246002197265625,0.250579833984375,-0.105224609375
-0.232025146484375,0.2053985595703125,-0.1092987060546875
-0.2340545654296875,0.219512939453125,-0.1370086669921875
-0.15673828125,0.20379638671875,-0.185028076171875
-0.236572265625,0.22271728515625,-0.120269775390625
-0.5807647705078125,0.295867919921875,0.0742645263671875
-1.2386474609375,0.297607421875,0.14251708984375
-2.364227294921875,0.452606201171875,0.265350341796875
-2.465667724609375,0.257659912109375,0.707611083984375
-1.6748504638671875,-0.1936492919921875,0.5637359619140625
-1.3806915283203125,-0.410125732421875,0.3022918701171875
-1.4512176513671875,-0.7915802001953125,0.5614471435546875
-1.24853515625,-0.6624908447265625,-0.131561279296875
-1.2038421630859375,-0.8344879150390625,-0.0641326904296875
-1.4063873291015625,-0.816192626953125,0.0119781494140625
-1.288299560546875,-0.7447052001953125,0.0163421630859375
-1.5125885009765625,-0.54119873046875,-0.0057220458984375
-1.8190765380859373,-0.388275146484375,0.0548553466796875
-2.017059326171875,-0.2693328857421875,0.02508544921875
-2.063568115234375,0.0140838623046875,-0.0177154541015625
-1.8190155029296875,0.191864013671875,-0.2124481201171875
-1.652618408203125,0.275909423828125,-0.281951904296875
-1.3741912841796875,0.2806549072265625,-0.2137908935546875
-1.0470428466796875,0.32183837890625,-0.1900482177734375
-0.62103271484375,0.2897796630859375,-0.118865966796875
-0.3300323486328125,0.2669525146484375,-0.003204345703125
-0.1174468994140625,0.1647186279296875,0.0922393798828125
-0.0279388427734375,0.1013641357421875,0.142242431640625
-0.048431396484375,0.0678863525390625,0.0561676025390625
-0.103363037109375,0.04119873046875,0.0854644775390625
-0.26531982421875,0.1185302734375,0.1126861572265625
-0.7173004150390625,0.28814697265625,0.0899200439453125
-1.3899688720703125,0.3271026611328125,0.1993408203125
-1.8396148681640625,0.44195556640625,0.38812255859375
-2.0174713134765625,0.38525390625,0.36590576171875
-2.0931396484375,0.2524566650390625,0.197113037109375
-1.915283203125,0.1161041259765625,0.1711883544921875
-1.4859771728515625,-0.09564208984375,0.4339141845703125
-1.2765960693359375,-0.2501983642578125,0.2008209228515625
-1.1825408935546875,-0.4550323486328125,-0.11114501953125
-1.122650146484375,-0.7372589111328125,-0.223419189453125
-1.023345947265625,-0.8769073486328125,-0.0318450927734375
-0.97216796875,-0.9525909423828124,0.3051605224609375
-1.1486053466796875,-0.8889923095703125,0.4956817626953125
-1.7469940185546875,-0.5207977294921875,0.6946868896484375
-2.3281707763671875,-0.181060791015625,0.73486328125
-2.082138061523437,0.096099853515625,0.5193328857421875
-1.90838623046875,0.1549224853515625,0.3979034423828125
-1.640960693359375,0.135772705078125,0.288787841796875
-1.353668212890625,0.195068359375,0.204376220703125
-1.0665283203125,0.147430419921875,0.16796875
-0.7270660400390625,0.2612762451171875,0.0748443603515625
-0.374053955078125,0.2211761474609375,-0.0321197509765625
-0.230621337890625,0.2105560302734375,-0.01885986328125
-0.1363372802734375,0.1609954833984375,0.0243988037109375
-0.2122650146484375,0.1277008056640625,0.0575103759765625
-0.3685455322265625,0.1590728759765625,0.1065521240234375
-0.5664215087890625,0.284027099609375,0.1985015869140625
-0.72601318359375,0.238525390625,0.1925048828125
-1.2310333251953125,0.301025390625,0.2066650390625
-1.8256988525390625,0.1747283935546875,0.3543853759765625
-1.6936798095703125,0.06121826171875,0.3034820556640625
-1.822113037109375,-0.1840972900390625,0.0142059326171875
-1.74505615234375,-0.4537811279296875,-0.119415283203125
-1.6332244873046875,-0.684051513671875,-0.187896728515625
-1.2926177978515625,-0.7362213134765625,-0.2466888427734375
-1.12457275390625,-0.6368255615234375,-0.4251251220703125
-1.1697998046875,-0.469146728515625,-0.3615264892578125
-1.1054534912109375,-0.3343963623046875,-0.2886962890625
-1.0337982177734375,-0.2272186279296875,-0.3397674560546875
-1.099822998046875,-0.193511962890625,-0.541351318359375
-0.76654052734375,0.01739501953125,-0.2747650146484375
-0.0226898193359375,0.09661865234375,-0.54534912109375
0.0263671875,0.0214996337890625,-0.04254150390625
0.0245208740234375,0.0157012939453125,-0.004302978515625
0.0249481201171875,0.013763427734375,-0.0045318603515625
0.0284423828125,0.0118560791015625,-0.0092315673828125
0.034149169921875,0.007080078125,-0.0239715576171875
0.0396270751953125,-0.000244140625,-0.0432586669921875
0.0417022705078125,-0.007049560546875,-0.0558624267578125
0.0432891845703125,-0.01129150390625,-0.0672149658203125
0.0437164306640625,-0.0132293701171875,-0.112213134765625
-5.537887573242188,-0.9171600341796876,-5.6974945068359375
-0.5609130859375,-0.1815032958984375,-1.58795166015625
0.15362548828125,0.194122314453125,-0.450225830078125
0.2245635986328125,0.11102294921875,-0.4127197265625
0.153533935546875,-0.01715087890625,-1.0353851318359375
0.4790802001953125,-0.37841796875,-0.79827880859375
0.2892303466796875,-0.1732940673828125,-1.188873291015625
-0.0191802978515625,-0.1570892333984375,-0.8870391845703125
0.153350830078125,-0.1158447265625,-1.020660400390625
0.1444549560546875,-0.169036865234375,-0.9607086181640624
0.1149444580078125,-0.152679443359375,-0.9947052001953124
0.149566650390625,-0.1451568603515625,-0.9765625
0.12493896484375,-0.1614990234375,-0.98876953125
0.1493682861328125,-0.174560546875,-0.9922027587890624
0.1353912353515625,-0.1186065673828125,-0.9652862548828124
0.1176910400390625,-0.176055908203125,-0.96807861328125
0.1365814208984375,-0.1444091796875,-1.004180908203125
0.1290283203125,-0.1487884521484375,-0.9793548583984376
0.1341094970703125,-0.158935546875,-0.980682373046875
0.134063720703125,-0.149169921875,-0.987152099609375
0.1352081298828125,-0.1563720703125,-0.985137939453125
0.1338958740234375,-0.1507568359375,-0.9855804443359376
0.158935546875,-0.1300506591796875,-1.0518798828125
0.3528289794921875,-0.119293212890625,-1.103729248046875
0.2236328125,-0.1563568115234375,-1.0467681884765625
0.2360382080078125,-0.1208648681640625,-0.87066650390625
0.0631866455078125,-0.1411895751953125,-0.8407135009765625
0.1970062255859375,-0.1818084716796875,-1.0142822265625
0.166168212890625,-0.1358184814453125,-0.942626953125
0.195953369140625,-0.1613922119140625,-0.970550537109375
0.2265777587890625,-0.1331329345703125,-0.9455718994140624
0.18597412109375,-0.1557464599609375,-0.9770355224609376
0.1773529052734375,-0.1561431884765625,-0.9877471923828124
0.1871337890625,-0.177093505859375,-1.0792999267578125
0.2106781005859375,-0.138397216796875,-0.952606201171875
0.1729888916015625,-0.1601104736328125,-0.9576568603515624
0.171142578125,-0.1750030517578125,-0.943389892578125
0.19482421875,-0.1527557373046875,-0.9886016845703124
0.1761016845703125,-0.1631927490234375,-0.9775238037109376
0.1995086669921875,-0.144866943359375,-0.97308349609375
0.1822662353515625,-0.16192626953125,-0.97991943359375
0.190948486328125,-0.1570892333984375,-0.96917724609375
0.1814727783203125,-0.1536407470703125,-0.9707489013671876
0.1986083984375,-0.1553802490234375,-1.016265869140625
