AccelerationX,AccelerationY,AccelerationZ
-0.3974151611328125,0.7230377197265625,-0.4488067626953125
-0.3812255859375,0.7111358642578125,-0.4444580078125
-0.465972900390625,0.7341461181640625,-0.5185089111328125
-0.4256134033203125,0.730377197265625,-0.5335845947265625
-0.4345855712890625,0.7209625244140625,-0.5172882080078125
-0.423004150390625,0.7147369384765625,-0.5265045166015625
-0.4130401611328125,0.711944580078125,-0.5389556884765625
-0.4689483642578125,0.7105255126953125,-0.4923095703125
-0.47088623046875,0.711212158203125,-0.4987945556640625
-0.436676025390625,0.7194671630859375,-0.5165252685546875
-0.3846588134765625,0.7161407470703125,-0.52862548828125
-0.3747100830078125,0.698944091796875,-0.4718475341796875
-0.4134674072265625,0.71343994140625,-0.529388427734375
-0.43829345703125,0.7335357666015625,-0.5301361083984375
-0.416961669921875,0.747802734375,-0.322113037109375
-0.4195404052734375,0.790069580078125,-0.36834716796875
-0.499908447265625,0.80804443359375,-0.2723541259765625
-0.548980712890625,0.7687530517578125,-0.0972137451171875
-0.5882110595703125,0.82073974609375,-0.1142425537109375
-0.644927978515625,0.8048858642578125,-0.077056884765625
-0.6540069580078125,0.816253662109375,0.06585693359375
-0.6269073486328125,0.8499908447265625,-0.014892578125
-0.63360595703125,0.8218536376953125,-0.0688018798828125
-0.624603271484375,0.8220062255859375,0.0548095703125
-0.599029541015625,0.7906341552734375,0.14154052734375
-0.55450439453125,0.748809814453125,0.140869140625
-0.6710205078125,0.7265625,0.089599609375
-0.69573974609375,0.7836761474609375,0.127960205078125
-0.7153472900390625,0.7362060546875,0.189208984375
-0.78253173828125,0.7037200927734375,0.034027099609375
-0.7417144775390625,0.674560546875,-0.0384063720703125
-0.7081451416015625,0.65771484375,-0.0125732421875
-0.7205810546875,0.669281005859375,0.0592498779296875
-0.7517547607421875,0.704498291015625,0.038543701171875
-0.8031158447265625,0.9452056884765624,0.0075225830078125
-0.7864990234375,0.9593658447265624,-0.0264129638671875
-0.6807708740234375,0.7237091064453125,-0.0718994140625
-0.6553802490234375,0.707244873046875,-0.1117401123046875
-0.6683197021484375,0.885040283203125,-0.1373748779296875
-0.6610107421875,0.9589691162109376,-0.096099853515625
-0.61474609375,0.8729095458984375,-0.05584716796875
-0.60736083984375,0.761932373046875,-0.0409088134765625
-0.5750885009765625,0.7331695556640625,-0.0195465087890625
-0.511627197265625,0.717864990234375,0.033905029296875
-0.4844512939453125,0.6954345703125,0.0785064697265625
-0.456268310546875,0.67742919921875,0.0608367919921875
-0.4430389404296875,0.6895904541015625,0.0454559326171875
-0.50677490234375,0.7689361572265625,0.11651611328125
-0.512451171875,0.8844757080078125,0.1388092041015625
-0.5377349853515625,0.9325103759765624,0.09796142578125
-0.6566162109375,1.097991943359375,0.041351318359375
-0.6812286376953125,1.0325775146484375,-0.0360107421875
-0.7336273193359375,0.7813720703125,-0.0336151123046875
-0.7631988525390625,0.5804290771484375,-0.03363037109375
-0.825592041015625,0.710296630859375,0.03106689453125
-0.798248291015625,0.802520751953125,-0.0469970703125
-0.7524871826171875,0.6681365966796875,-0.01287841796875
-0.748138427734375,0.6290435791015625,-0.0587921142578125
-0.6559906005859375,0.6425323486328125,-0.0312347412109375
-0.5980072021484375,0.6670989990234375,0.040313720703125
-0.6035003662109375,0.681640625,0.0543365478515625
-0.650054931640625,0.7384796142578125,0.021148681640625
-0.760223388671875,0.87530517578125,-0.025634765625
-0.8097381591796875,0.9015045166015624,-0.0634307861328125
-0.8007659912109375,0.862060546875,-0.0787811279296875
-0.8117523193359375,0.9965057373046876,-0.02264404296875
-0.721771240234375,1.0691070556640625,-0.0195770263671875
-0.65679931640625,0.8230438232421875,-0.0488128662109375
-0.761016845703125,0.873016357421875,-0.10015869140625
-0.70660400390625,0.9184722900390624,-0.0557098388671875
-0.5450439453125,0.80029296875,0.0167236328125
-0.4708099365234375,0.6912078857421875,0.021881103515625
-0.4759368896484375,0.6729278564453125,-0.0301513671875
-0.411346435546875,0.65118408203125,-0.0066986083984375
-0.3616485595703125,0.62615966796875,0.053497314453125
-0.3765716552734375,0.662078857421875,0.092498779296875
-0.4678192138671875,0.739715576171875,0.0503387451171875
-0.560546875,0.8545989990234375,0.020538330078125
-0.6210784912109375,0.8902435302734375,0.00323486328125
-0.7976837158203125,1.0601654052734375,0.006378173828125
-0.7949066162109375,0.9756927490234376,-0.0190277099609375
-0.7224273681640625,0.727783203125,-0.0105438232421875
-0.7938690185546875,0.716796875,-0.0055084228515625
-0.8133697509765625,0.8076019287109375,-0.0500640869140625
-0.7603302001953125,0.732696533203125,0.00543212890625
-0.72796630859375,0.6141510009765625,-0.0230560302734375
-0.7103424072265625,0.6157989501953125,-0.0469818115234375
-0.648040771484375,0.7015838623046875,-0.03497314453125
-0.637359619140625,0.7280731201171875,-0.0326385498046875
-0.6606597900390625,0.7169952392578125,-0.0130462646484375
-0.723480224609375,0.746856689453125,-0.031005859375
-0.8029022216796875,0.8432464599609375,-0.0467529296875
-0.7924957275390625,0.8720245361328125,-0.07135009765625
-0.808624267578125,0.8795623779296875,-0.087066650390625
-0.8429718017578125,1.0914459228515625,-0.112030029296875
-0.70660400390625,1.0354461669921875,-0.1780242919921875
-0.592620849609375,0.7983245849609375,-0.1089630126953125
-0.606597900390625,0.866119384765625,-0.0648956298828125
-0.5037994384765625,0.9183502197265624,-0.1065216064453125
-0.371337890625,0.761871337890625,-0.1371307373046875
-0.440032958984375,0.63275146484375,-0.0990142822265625
-0.498565673828125,0.65155029296875,-0.062835693359375
-0.479644775390625,0.720550537109375,-0.01953125
-0.4795379638671875,0.7477874755859375,-0.0601348876953125
-0.5231475830078125,0.7987060546875,0.017425537109375
-0.5571746826171875,0.8962554931640625,0.0834197998046875
-0.4806671142578125,0.9488677978515624,0.066650390625
-0.448822021484375,0.87237548828125,-0.003662109375
-0.6068572998046875,1.0591888427734375,0.006378173828125
-0.5617218017578125,1.009429931640625,0.03399658203125
-0.6221160888671875,0.7480621337890625,0.0349884033203125
-0.7438812255859375,0.6981201171875,0.0602264404296875
-0.740631103515625,0.8168182373046875,0.0630645751953125
-0.671112060546875,0.7789764404296875,-0.024139404296875
-0.680938720703125,0.69146728515625,-0.045013427734375
-0.661224365234375,0.6659698486328125,0.00457763671875
-0.5916748046875,0.692718505859375,0.0713653564453125
-0.6083526611328125,0.684234619140625,0.0966796875
-0.6962738037109375,0.7194366455078125,0.042144775390625
-0.760986328125,0.763946533203125,-0.00732421875
-0.8697357177734375,0.8226318359375,-0.0166778564453125
-0.916656494140625,0.79998779296875,-0.054290771484375
-0.8569183349609375,0.7961273193359375,-0.0399932861328125
-0.87164306640625,0.9806060791015624,-0.05242919921875
-0.7002716064453125,0.8817138671875,-0.072357177734375
-0.7876434326171875,0.79559326171875,0.01385498046875
-0.773040771484375,0.9388275146484376,0.0015106201171875
-0.6559600830078125,0.959991455078125,-0.093109130859375
-0.5698089599609375,0.8363800048828125,-0.1233673095703125
-0.50738525390625,0.728240966796875,-0.1183013916015625
-0.4863128662109375,0.7162322998046875,-0.102142333984375
-0.4391937255859375,0.7293853759765625,-0.0387115478515625
-0.3422698974609375,0.7366180419921875,0.015777587890625
-0.289306640625,0.715545654296875,-0.0032806396484375
-0.349456787109375,0.72125244140625,0.0029449462890625
-0.4299774169921875,0.79974365234375,0.080474853515625
-0.439300537109375,0.9045257568359376,0.057342529296875
-0.6229400634765625,1.018096923828125,-0.0138092041015625
-0.65594482421875,1.1798095703125,-0.03509521484375
-0.6722412109375,1.02099609375,-0.1574859619140625
-0.7200775146484375,0.8157501220703125,-0.1272125244140625
-0.7817535400390625,0.799285888671875,-0.01519775390625
-0.7501373291015625,0.79644775390625,0.0089874267578125
-0.65277099609375,0.681640625,0.0196533203125
-0.6134796142578125,0.61865234375,-0.025177001953125
-0.5835723876953125,0.6588287353515625,-0.0599212646484375
-0.5418853759765625,0.6873779296875,-0.067230224609375
-0.587493896484375,0.6865692138671875,-0.0335845947265625
-0.6472320556640625,0.7493438720703125,0.0058135986328125
-0.7198944091796875,0.7976226806640625,0.0078887939453125
-0.7806854248046875,0.8698577880859375,0.0445404052734375
-0.798248291015625,0.891998291015625,-0.034515380859375
-0.8646240234375,1.0457763671875,-0.035003662109375
-0.7707061767578125,1.06781005859375,-0.029052734375
-0.6363677978515625,0.8535308837890625,-0.017730712890625
-0.7369537353515625,0.871673583984375,-0.046478271484375
-0.67938232421875,0.9456024169921876,-0.099273681640625
-0.56048583984375,0.9256744384765624,-0.0992279052734375
-0.4733428955078125,0.7953948974609375,-0.1107025146484375
-0.496856689453125,0.710479736328125,-0.1100921630859375
-0.437957763671875,0.70806884765625,-0.0466461181640625
-0.3511810302734375,0.716796875,0.0207977294921875
-0.3202972412109375,0.7022705078125,0.06976318359375
-0.38311767578125,0.7548065185546875,0.063934326171875
-0.433746337890625,0.8920745849609375,0.0652313232421875
-0.4622650146484375,0.9329376220703124,0.009124755859375
-0.638702392578125,1.073822021484375,-0.0587310791015625
-0.6133575439453125,1.11041259765625,-0.1064910888671875
-0.6357574462890625,0.914825439453125,-0.085968017578125
-0.6971282958984375,0.737060546875,-0.0633392333984375
-0.737762451171875,0.76202392578125,-0.0240020751953125
-0.7452545166015625,0.80120849609375,0.0482177734375
-0.696441650390625,0.7063140869140625,0.0067291259765625
-0.6883087158203125,0.643341064453125,-0.0204315185546875
-0.661651611328125,0.676513671875,-0.043365478515625
-0.646728515625,0.7007904052734375,-0.01922607421875
-0.6617889404296875,0.712432861328125,-0.0018768310546875
-0.714447021484375,0.756317138671875,0.020050048828125
-0.77337646484375,0.83782958984375,0.0195770263671875
-0.766998291015625,0.8925933837890625,0.0151519775390625
-0.7216033935546875,0.9012298583984376,-0.0347137451171875
-0.68377685546875,0.869293212890625,0.0025177001953125
-0.7092132568359375,1.1099700927734375,-0.0012359619140625
-0.5767974853515625,1.050048828125,-0.1426849365234375
-0.5078582763671875,0.7269744873046875,-0.18536376953125
-0.5532073974609375,0.69671630859375,-0.0375213623046875
-0.475677490234375,0.7766571044921875,-0.0244903564453125
-0.3366241455078125,0.769256591796875,-0.16351318359375
-0.4240875244140625,0.703521728515625,-0.2083892822265625
-0.525115966796875,0.698883056640625,-0.2050628662109375
-0.5623931884765625,0.7197265625,-0.1634979248046875
-0.5695648193359375,0.7537994384765625,-0.064697265625
-0.5208282470703125,0.804107666015625,0.0003204345703125
-0.5189361572265625,0.871063232421875,-0.004150390625
-0.5779266357421875,0.9852294921875,0.0092926025390625
-0.58721923828125,0.9556427001953124,0.06634521484375
-0.634124755859375,0.911376953125,0.021270751953125
-0.58868408203125,1.0819091796875,-0.03948974609375
-0.386627197265625,0.7901458740234375,-0.1456756591796875
-0.4731292724609375,0.6806488037109375,0.031005859375
-0.500335693359375,0.80157470703125,0.1615142822265625
-0.530548095703125,0.8944549560546875,0.094940185546875
-0.55450439453125,0.7616119384765625,-0.081146240234375
-0.609710693359375,0.669677734375,-0.088409423828125
-0.6100921630859375,0.708648681640625,0.0277862548828125
-0.6295318603515625,0.7311859130859375,0.0378265380859375
-0.6671142578125,0.732269287109375,-0.0234832763671875
-0.6976165771484375,0.78118896484375,-0.076904296875
-0.7218017578125,0.8205413818359375,-0.1091156005859375
-0.71533203125,0.8988189697265625,-0.10736083984375
-0.6735382080078125,0.8803863525390625,-0.0947723388671875
-0.7291107177734375,0.917572021484375,-0.072479248046875
-0.7166900634765625,1.0690155029296875,-0.1147613525390625
-0.568115234375,0.9438629150390624,-0.145050048828125
-0.6812744140625,0.8828582763671875,-0.1280059814453125
-0.6993865966796875,0.9595947265625,-0.1597442626953125
-0.605743408203125,0.9845733642578124,-0.132415771484375
-0.5131988525390625,0.8455657958984375,-0.095794677734375
-0.49688720703125,0.7189483642578125,-0.066802978515625
-0.479522705078125,0.683563232421875,-0.0953369140625
-0.431488037109375,0.722991943359375,-0.0527496337890625
-0.3659210205078125,0.755889892578125,0.0079345703125
-0.3257293701171875,0.752960205078125,0.0429229736328125
-0.3919219970703125,0.82733154296875,0.0299224853515625
-0.4423828125,0.9033203125,-0.0159912109375
-0.4932098388671875,0.897796630859375,-0.052001953125
-0.672882080078125,1.07965087890625,0.0050811767578125
-0.661224365234375,1.09722900390625,-0.07147216796875
-0.62591552734375,0.868682861328125,-0.1589813232421875
-0.7412567138671875,0.75299072265625,-0.0582275390625
-0.7537841796875,0.7988433837890625,-0.0164337158203125
-0.7111053466796875,0.79327392578125,0.0096435546875
-0.65631103515625,0.6873626708984375,-0.0259857177734375
-0.604827880859375,0.6564178466796875,-0.0336151123046875
-0.5402679443359375,0.6918792724609375,-0.040374755859375
-0.5128936767578125,0.6911468505859375,-0.057708740234375
-0.565032958984375,0.7162322998046875,-0.0512237548828125
-0.6699371337890625,0.7806396484375,-0.0225677490234375
-0.777252197265625,0.8365936279296875,-0.0236358642578125
-0.83563232421875,0.821075439453125,-0.0637359619140625
-0.8493499755859375,0.7841033935546875,-0.07135009765625
-0.849029541015625,0.9419708251953124,-0.0146484375
-0.7927703857421875,1.0894927978515625,-0.0404815673828125
-0.655181884765625,0.9360809326171876,-0.132415771484375
-0.7294464111328125,0.875946044921875,-0.151458740234375
-0.7223663330078125,0.9808349609375,-0.155853271484375
-0.6137847900390625,0.993377685546875,-0.165374755859375
-0.5296783447265625,0.8489532470703125,-0.146270751953125
-0.5281524658203125,0.7337493896484375,-0.09527587890625
-0.48370361328125,0.7252197265625,-0.0688934326171875
-0.398834228515625,0.7233734130859375,-0.0532379150390625
-0.313446044921875,0.67840576171875,-0.005645751953125
-0.28912353515625,0.661163330078125,0.0187835693359375
-0.3368988037109375,0.71038818359375,0.0295562744140625
-0.3632049560546875,0.8239288330078125,0.0753173828125
-0.4136505126953125,0.8842926025390625,0.0704193115234375
-0.631744384765625,1.061798095703125,0.046417236328125
-0.6980438232421875,1.1746673583984375,-0.0127410888671875
-0.7193603515625,1.0776214599609375,-0.124755859375
-0.8040771484375,0.8572998046875,-0.1275787353515625
-0.8619232177734375,0.7699432373046875,0.0101165771484375
-0.884429931640625,0.77093505859375,0.057708740234375
-0.8439483642578125,0.7302703857421875,0.0237884521484375
-0.764434814453125,0.7086029052734375,-0.0509490966796875
-0.6768646240234375,0.747222900390625,-0.054351806640625
-0.588897705078125,0.764984130859375,-0.03253173828125
-0.535003662109375,0.7596893310546875,-0.0399169921875
-0.5373077392578125,0.777618408203125,-0.0395660400390625
-0.6240386962890625,0.7900543212890625,-0.0077362060546875
-0.75146484375,0.8359375,0.03326416015625
-0.7846527099609375,0.857696533203125,0.0053558349609375
-0.8094329833984375,0.8762054443359375,0.0649261474609375
-0.79388427734375,0.884246826171875,-0.06317138671875
-0.7474365234375,1.00677490234375,-0.14617919921875
-0.5182952880859375,0.87823486328125,-0.135284423828125
-0.4482574462890625,0.7218170166015625,-0.0847930908203125
-0.5304718017578125,0.726318359375,-0.08172607421875
-0.5135345458984375,0.7489166259765625,-0.166290283203125
-0.44134521484375,0.7925872802734375,-0.1843109130859375
-0.482818603515625,0.79498291015625,-0.217681884765625
-0.5214385986328125,0.7601318359375,-0.2592315673828125
-0.6043243408203125,0.716949462890625,-0.217071533203125
-0.73626708984375,0.8056488037109375,-0.1971588134765625
-0.804443359375,0.861541748046875,-0.24517822265625
-0.804718017578125,0.8282470703125,-0.3061065673828125
-0.836456298828125,0.8175201416015625,-0.348876953125
-0.865997314453125,0.820892333984375,-0.3128509521484375
-0.7516632080078125,0.769927978515625,-0.2371978759765625
-0.7206573486328125,0.832977294921875,-0.1653594970703125
-0.7141265869140625,0.8837127685546875,-0.3032073974609375
-0.6350860595703125,0.911407470703125,-0.2977752685546875
-0.589447021484375,0.871734619140625,-0.3150787353515625
-0.5885467529296875,0.8338775634765625,-0.17987060546875
-0.565399169921875,0.8654632568359375,-0.121551513671875
-0.54217529296875,0.8018951416015625,-0.1681365966796875
-0.6214752197265625,0.7489013671875,-0.1762847900390625
-0.66802978515625,0.7889556884765625,-0.1112518310546875
-0.643402099609375,0.752685546875,-0.0066986083984375
-0.6295318603515625,0.8936004638671875,-0.06427001953125
-0.466766357421875,0.83477783203125,-0.188446044921875
-0.4027099609375,0.74169921875,0.06488037109375
-0.33905029296875,0.707550048828125,0.2515716552734375
-0.3846435546875,0.728485107421875,0.299957275390625
-0.4254913330078125,0.7346343994140625,0.2758026123046875
-0.449737548828125,0.7808685302734375,0.309539794921875
-0.59332275390625,0.8473968505859375,0.375823974609375
-0.690399169921875,0.8651123046875,0.3128662109375
-0.7461700439453125,0.8574676513671875,0.2766876220703125
-0.8001251220703125,0.88543701171875,0.273468017578125
-0.892974853515625,0.8976593017578125,0.1995391845703125
-0.9448394775390624,0.85577392578125,0.0872650146484375
-1.0412750244140625,0.89349365234375,-0.01141357421875
-1.0138702392578125,0.85003662109375,-0.01251220703125
-0.9847869873046876,0.706146240234375,-0.0410308837890625
-0.998046875,0.7086944580078125,-0.1472015380859375
-0.8605194091796875,0.8414459228515625,-0.168731689453125
-0.6920318603515625,0.97607421875,-0.1880340576171875
-0.5870819091796875,0.92987060546875,-0.2249908447265625
-0.594635009765625,0.884796142578125,-0.174713134765625
-0.571014404296875,0.8914794921875,-0.136016845703125
-0.5170135498046875,0.9261016845703124,-0.12548828125
-0.4738311767578125,0.9098358154296876,-0.1263275146484375
-0.406005859375,0.8631744384765625,-0.0647735595703125
-0.403717041015625,0.846771240234375,0.054168701171875
-0.44830322265625,0.893890380859375,0.077301025390625
-0.42462158203125,0.8650970458984375,0.04815673828125
-0.4673309326171875,0.9317626953125,0.1037139892578125
-0.4399871826171875,0.8702850341796875,-0.0119171142578125
-0.4736175537109375,0.7052764892578125,-0.0120697021484375
-0.6105499267578125,0.7681121826171875,0.1001129150390625
-0.59722900390625,0.92510986328125,0.100921630859375
-0.573394775390625,0.89276123046875,0.030670166015625
-0.632476806640625,0.7445068359375,0.0074615478515625
-0.6345062255859375,0.6861572265625,0.034576416015625
-0.6040496826171875,0.7171478271484375,0.0554046630859375
-0.600341796875,0.7489776611328125,0.0635833740234375
-0.6436920166015625,0.7866363525390625,0.0565643310546875
-0.73602294921875,0.8205718994140625,0.0452117919921875
-0.8543243408203125,0.853485107421875,0.0319671630859375
-0.93975830078125,0.8336639404296875,-0.0158538818359375
-0.95086669921875,0.8072967529296875,-0.0167694091796875
-0.930877685546875,0.9839935302734376,-0.0002899169921875
-0.827728271484375,1.022003173828125,-0.001678466796875
-0.7391204833984375,0.825225830078125,-0.0010833740234375
-0.7805633544921875,0.814239501953125,-0.048614501953125
-0.7374114990234375,0.9940948486328124,-0.077117919921875
-0.6093902587890625,1.00299072265625,-0.0831146240234375
-0.559234619140625,0.88604736328125,-0.0461578369140625
-0.5602874755859375,0.802001953125,-0.075592041015625
-0.46630859375,0.80126953125,-0.0644989013671875
-0.40020751953125,0.7695159912109375,0.0139617919921875
-0.3307952880859375,0.6958465576171875,0.0940093994140625
-0.2988739013671875,0.6447601318359375,0.0787353515625
-0.37518310546875,0.7562713623046875,0.019775390625
-0.4365234375,0.8602752685546875,-0.00628662109375
-0.549041748046875,0.87786865234375,0.0128936767578125
-0.6385345458984375,1.02032470703125,-0.005401611328125
-0.60614013671875,1.1113433837890625,-0.2095947265625
-0.61053466796875,0.9829864501953124,-0.22869873046875
-0.6934814453125,0.7830047607421875,-0.0398101806640625
-0.7369232177734375,0.767425537109375,-0.027069091796875
-0.7077789306640625,0.8002471923828125,-0.0938873291015625
-0.6827392578125,0.7447662353515625,-0.0407562255859375
-0.659637451171875,0.6961669921875,0.0705718994140625
-0.5923919677734375,0.7627716064453125,-0.036163330078125
-0.5693817138671875,0.7791748046875,-0.148223876953125
-0.6672821044921875,0.7386016845703125,-0.06036376953125
-0.743011474609375,0.758758544921875,0.0507049560546875
-0.781097412109375,0.8574676513671875,0.03399658203125
-0.78558349609375,0.9056854248046876,-0.090362548828125
-0.82562255859375,0.8874969482421875,-0.0558624267578125
-0.9105224609375,1.0292510986328125,0.03369140625
-0.8463897705078125,1.0612335205078125,0.0788116455078125
-0.71746826171875,0.8713226318359375,0.051025390625
-0.795440673828125,0.952056884765625,0.00927734375
-0.73724365234375,1.1097412109375,0.0392608642578125
-0.5331573486328125,1.109527587890625,-0.03143310546875
-0.3800048828125,0.9415283203125,-0.1363525390625
-0.3551025390625,0.800323486328125,-0.169097900390625
-0.339111328125,0.706634521484375,-0.01629638671875
-0.286041259765625,0.6513671875,0.061981201171875
-0.271331787109375,0.65069580078125,0.0323944091796875
-0.3052825927734375,0.7176055908203125,-0.02117919921875
-0.3790130615234375,0.7987213134765625,0.0294952392578125
-0.477691650390625,0.9118194580078124,0.0683746337890625
-0.566497802734375,0.9416351318359376,-0.029815673828125
-0.750274658203125,1.1311492919921875,-0.059967041015625
-0.6357269287109375,1.147003173828125,-0.0971832275390625
-0.579986572265625,0.836181640625,-0.1948394775390625
-0.764678955078125,0.829681396484375,-0.1437530517578125
-0.7717437744140625,0.8592376708984375,-0.0901031494140625
-0.6996307373046875,0.7867889404296875,-0.1126708984375
-0.6391754150390625,0.688201904296875,-0.2035369873046875
-0.6278076171875,0.730926513671875,-0.2466278076171875
-0.580841064453125,0.75262451171875,-0.162445068359375
-0.6460723876953125,0.7303924560546875,-0.1036834716796875
-0.682708740234375,0.7429656982421875,-0.0144805908203125
-0.7015838623046875,0.7804107666015625,0.0104522705078125
-0.7613677978515625,0.8304595947265625,-0.112884521484375
-0.747894287109375,0.8735504150390625,-0.1341094970703125
-0.728302001953125,0.8962860107421875,-0.098846435546875
-0.7585601806640625,1.096954345703125,-0.130523681640625
-0.690185546875,1.1279449462890625,-0.1624298095703125
-0.611480712890625,0.90252685546875,-0.1829833984375
-0.688751220703125,0.82244873046875,-0.1429443359375
-0.6494140625,0.9083709716796876,-0.12774658203125
-0.5319976806640625,0.985443115234375,-0.1230010986328125
-0.4100799560546875,0.882171630859375,-0.1378631591796875
-0.401336669921875,0.7641448974609375,-0.1468658447265625
-0.423187255859375,0.7437896728515625,-0.127166748046875
-0.3891143798828125,0.691375732421875,-0.075592041015625
-0.4017181396484375,0.7079315185546875,-0.0361175537109375
-0.3878631591796875,0.7126312255859375,0.00518798828125
-0.4310150146484375,0.75592041015625,0.0206756591796875
-0.4505767822265625,0.890777587890625,0.0520782470703125
-0.4394378662109375,0.8952484130859375,0.024566650390625
-0.6286163330078125,0.975433349609375,0.07861328125
-0.6599273681640625,1.1498260498046875,0.119842529296875
-0.5797271728515625,0.925567626953125,-0.0829925537109375
-0.7200775146484375,0.7981719970703125,-0.072509765625
-0.794677734375,0.8462066650390625,-0.02862548828125
-0.79876708984375,0.89105224609375,0.0108642578125
-0.7087249755859375,0.7176971435546875,-0.05718994140625
-0.679443359375,0.6596527099609375,-0.0826263427734375
-0.5802459716796875,0.69146728515625,-0.0481719970703125
-0.4976348876953125,0.721954345703125,-0.0121917724609375
-0.4978485107421875,0.7162322998046875,-0.0041961669921875
-0.5613555908203125,0.750701904296875,-0.025909423828125
-0.6763916015625,0.8291778564453125,-0.01251220703125
-0.77398681640625,0.8963775634765625,-0.0447235107421875
-0.789642333984375,0.859527587890625,-0.0979461669921875
-0.8873138427734375,0.964569091796875,-0.11328125
-0.84014892578125,1.1577606201171875,-0.0560455322265625
-0.698211669921875,1.0053863525390625,-0.0501708984375
-0.686676025390625,0.76568603515625,-0.113006591796875
-0.6687469482421875,0.8328704833984375,-0.13848876953125
-0.5970458984375,1.02655029296875,-0.0886383056640625
-0.4869537353515625,0.998138427734375,-0.08251953125
-0.4538726806640625,0.8692474365234375,-0.09844970703125
-0.43536376953125,0.78741455078125,-0.137420654296875
-0.3733978271484375,0.749298095703125,-0.0588531494140625
-0.31842041015625,0.727294921875,-0.0135955810546875
-0.2895050048828125,0.6932525634765625,0.0178985595703125
-0.3305816650390625,0.7233428955078125,0.0132904052734375
-0.383941650390625,0.8257904052734375,-0.004852294921875
-0.4264678955078125,0.87030029296875,-0.0374603271484375
-0.58538818359375,0.9193572998046876,0.0043182373046875
-0.676971435546875,1.1961212158203125,0.0308685302734375
-0.6088104248046875,1.0065460205078125,-0.134674072265625
-0.6844482421875,0.782958984375,-0.1455535888671875
-0.792633056640625,0.8263092041015625,-0.09735107421875
-0.7280731201171875,0.908599853515625,-0.0166473388671875
-0.6399688720703125,0.7652740478515625,-0.0589447021484375
-0.6004486083984375,0.64630126953125,-0.1173248291015625
-0.5619354248046875,0.65789794921875,-0.0816497802734375
-0.5262451171875,0.6839141845703125,-0.0418548583984375
-0.5417022705078125,0.72039794921875,-0.0618743896484375
-0.649932861328125,0.795166015625,-0.118499755859375
-0.779449462890625,0.8891143798828125,-0.0990447998046875
-0.8216552734375,0.8677215576171875,-0.104766845703125
-0.837646484375,0.8350372314453125,-0.18878173828125
-0.8501739501953125,0.9484710693359376,-0.109893798828125
-0.7905731201171875,1.17315673828125,-0.0409088134765625
-0.5659637451171875,0.9428863525390624,-0.0640106201171875
-0.7537384033203125,0.93646240234375,0.0136260986328125
-0.73394775390625,1.0843505859375,-0.0197296142578125
-0.6022491455078125,1.0374603271484375,-0.07574462890625
-0.559234619140625,0.89715576171875,-0.079925537109375
-0.4805908203125,0.809783935546875,-0.003173828125
-0.38323974609375,0.7620849609375,0.0485687255859375
-0.31951904296875,0.6982574462890625,0.1463470458984375
-0.2814483642578125,0.63592529296875,0.1833648681640625
-0.3599853515625,0.7230987548828125,0.063629150390625
-0.36572265625,0.816986083984375,0.0719757080078125
-0.45648193359375,0.92840576171875,0.012939453125
-0.5039825439453125,0.9369964599609376,-0.144256591796875
-0.688812255859375,1.01434326171875,-0.2221221923828125
-0.734466552734375,1.12506103515625,-0.11163330078125
-0.600067138671875,0.9808502197265624,-0.1394805908203125
-0.6873016357421875,0.8724212646484375,-0.19000244140625
-0.683135986328125,0.850494384765625,-0.276397705078125
-0.6189422607421875,0.8018951416015625,-0.296783447265625
-0.564056396484375,0.6859588623046875,-0.22479248046875
-0.539886474609375,0.674102783203125,-0.1247100830078125
-0.5285797119140625,0.72613525390625,-0.069305419921875
-0.5093231201171875,0.74102783203125,-0.0498199462890625
-0.5695343017578125,0.7266387939453125,-0.02301025390625
-0.713287353515625,0.8045654296875,-0.050384521484375
-0.8343505859375,0.9410247802734376,-0.1050262451171875
-0.8973388671875,0.890350341796875,-0.0802001953125
-0.9393157958984376,0.789520263671875,-0.050689697265625
-0.9729766845703124,0.9073944091796876,0.00714111328125
-0.8853302001953125,1.0113677978515625,-0.0049896240234375
-0.7614898681640625,0.80352783203125,-0.0285797119140625
-0.7801055908203125,0.786407470703125,-0.0859222412109375
-0.718780517578125,0.99102783203125,-0.121856689453125
-0.658966064453125,1.140869140625,-0.1651458740234375
-0.54937744140625,1.01953125,-0.1480255126953125
-0.492706298828125,0.9104461669921876,-0.175018310546875
-0.42742919921875,0.8761444091796875,-0.20660400390625
-0.3145294189453125,0.8011932373046875,-0.067840576171875
-0.259185791015625,0.7261199951171875,0.0368499755859375
-0.24932861328125,0.69580078125,0.11029052734375
-0.284149169921875,0.735107421875,0.095123291015625
-0.383270263671875,0.8258056640625,0.093597412109375
-0.4993133544921875,0.8380889892578125,0.1097259521484375
-0.7151031494140625,1.03741455078125,0.1773834228515625
-0.641448974609375,1.1658172607421875,0.0723724365234375
-0.62664794921875,0.9097747802734376,-0.097137451171875
-0.80743408203125,0.895233154296875,-0.0843658447265625
-0.832733154296875,0.9294281005859376,-0.0618438720703125
-0.735595703125,0.8262786865234375,-0.078369140625
-0.689056396484375,0.6995086669921875,-0.1204376220703125
-0.602691650390625,0.6987152099609375,-0.1474151611328125
-0.5434417724609375,0.736114501953125,-0.1121368408203125
-0.5313262939453125,0.7105712890625,-0.0852813720703125
-0.6185760498046875,0.73651123046875,-0.0552215576171875
-0.729400634765625,0.7432403564453125,-0.063568115234375
-0.8427886962890625,0.8311614990234375,-0.0373992919921875
-0.8955230712890625,0.881256103515625,0.0050201416015625
-0.8625946044921875,0.88238525390625,-0.0506439208984375
-0.843963623046875,1.031494140625,-0.1262969970703125
-0.7704315185546875,1.0699615478515625,-0.0849456787109375
-0.66668701171875,1.0008087158203125,-0.0596160888671875
-0.6628875732421875,0.8511962890625,-0.1081695556640625
-0.6656341552734375,0.9164276123046876,-0.11468505859375
-0.5857696533203125,1.0047149658203125,-0.128570556640625
-0.513580322265625,0.9876861572265624,-0.182891845703125
-0.461395263671875,0.8563079833984375,-0.1979217529296875
-0.4567108154296875,0.7865447998046875,-0.1566009521484375
-0.3889923095703125,0.752227783203125,-0.0198211669921875
-0.3139190673828125,0.7207489013671875,-0.0345306396484375
-0.2674713134765625,0.695404052734375,-0.03472900390625
-0.3045501708984375,0.7071533203125,0.0096588134765625
-0.3548583984375,0.7596435546875,0.082916259765625
-0.4048919677734375,0.8560791015625,0.1259613037109375
-0.500396728515625,0.888671875,0.173919677734375
-0.6800689697265625,1.113677978515625,0.1334686279296875
-0.72637939453125,1.22332763671875,-0.0137481689453125
-0.7582244873046875,1.0595245361328125,-0.08984375
-0.8007659912109375,0.7876434326171875,0.01605224609375
-0.9189453125,0.736419677734375,0.1143646240234375
-0.9461212158203124,0.7597808837890625,0.05133056640625
-0.9156036376953124,0.7305755615234375,-0.0323333740234375
-0.809783935546875,0.6779022216796875,-0.1041717529296875
-0.7524566650390625,0.682373046875,-0.10211181640625
-0.6939544677734375,0.6688690185546875,-0.01885986328125
-0.6979522705078125,0.6916046142578125,0.0105438232421875
-0.6325531005859375,0.7071380615234375,-0.050445556640625
-0.6920318603515625,0.7289581298828125,-0.08526611328125
-0.778350830078125,0.7255401611328125,-0.037506103515625
-0.81005859375,0.7452545166015625,0.044097900390625
-0.7185821533203125,0.7825469970703125,0.0338897705078125
-0.7118988037109375,0.795623779296875,-0.1068115234375
-0.6947784423828125,0.8769683837890625,-0.1240081787109375
-0.6370697021484375,0.9776458740234376,-0.10186767578125
-0.5305938720703125,0.8897857666015625,-0.11102294921875
-0.52667236328125,0.7657470703125,-0.0868377685546875
-0.5142669677734375,0.7572021484375,-0.0500335693359375
-0.4370574951171875,0.7579193115234375,-0.0525665283203125
-0.49627685546875,0.770538330078125,-0.126617431640625
-0.4576416015625,0.785736083984375,-0.2223052978515625
-0.4851226806640625,0.8094024658203125,-0.250518798828125
-0.5072021484375,0.8081512451171875,-0.1817626953125
-0.54443359375,0.82733154296875,-0.168670654296875
-0.624969482421875,0.88287353515625,-0.1651763916015625
-0.760009765625,0.87689208984375,-0.128204345703125
-0.817901611328125,0.8157958984375,-0.1260223388671875
-0.82769775390625,0.81048583984375,-0.205078125
-0.84100341796875,0.8455352783203125,-0.302764892578125
-0.8059234619140625,0.87860107421875,-0.299560546875
-0.7469940185546875,0.9044342041015624,-0.215362548828125
-0.707275390625,0.946533203125,-0.213165283203125
-0.642333984375,0.961212158203125,-0.2266998291015625
-0.578887939453125,0.9485626220703124,-0.2144622802734375
-0.50286865234375,0.8919525146484375,-0.1927490234375
-0.4569549560546875,0.8575897216796875,-0.187591552734375
-0.407012939453125,0.8261260986328125,-0.173248291015625
-0.3738555908203125,0.7838287353515625,-0.14971923828125
-0.382965087890625,0.7380523681640625,-0.0994720458984375
-0.4267730712890625,0.7148590087890625,-0.0395050048828125
-0.520294189453125,0.814178466796875,-0.04071044921875
-0.581634521484375,0.96435546875,0.0529632568359375
-0.5378570556640625,0.94525146484375,0.01641845703125
-0.527496337890625,0.89691162109375,0.007537841796875
-0.4773406982421875,0.8871307373046875,0.130279541015625
-0.51104736328125,0.9031829833984376,0.1203155517578125
-0.5570831298828125,0.872711181640625,0.17828369140625
-0.578826904296875,0.8351898193359375,0.2383880615234375
-0.6252288818359375,0.8042449951171875,0.2100372314453125
-0.6280517578125,0.8003692626953125,0.145172119140625
-0.6489105224609375,0.7947845458984375,0.1241607666015625
-0.6865997314453125,0.782196044921875,0.0795440673828125
-0.7528076171875,0.802154541015625,0.0014495849609375
-0.7854461669921875,0.830352783203125,-0.0624542236328125
-0.8069305419921875,0.7987823486328125,-0.1231231689453125
-0.8823089599609375,0.8358917236328125,-0.14996337890625
-0.866180419921875,0.9260711669921876,-0.153045654296875
-0.731842041015625,0.7993316650390625,-0.0852203369140625
-0.809906005859375,0.892791748046875,0.01025390625
-0.8000335693359375,1.07159423828125,-0.0987396240234375
-0.6898651123046875,1.1085662841796875,-0.228912353515625
-0.6147613525390625,0.982452392578125,-0.3073883056640625
-0.6082611083984375,0.91693115234375,-0.24432373046875
-0.5336761474609375,0.9278717041015624,-0.12359619140625
-0.3984222412109375,0.896453857421875,-0.0624847412109375
-0.2813262939453125,0.8236846923828125,-0.0642547607421875
-0.2678375244140625,0.797393798828125,-0.080322265625
-0.3184967041015625,0.8350982666015625,-0.0166778564453125
-0.3335418701171875,0.8954925537109375,0.0325927734375
-0.380767822265625,0.899871826171875,0.0653839111328125
-0.4821014404296875,1.029266357421875,0.1350250244140625
-0.5013427734375,1.019744873046875,0.022064208984375
-0.551513671875,0.8399200439453125,-0.0151214599609375
-0.710662841796875,0.8879547119140625,0.041595458984375
-0.748992919921875,1.036590576171875,0.031005859375
-0.692108154296875,0.9253997802734376,-0.023712158203125
-0.699737548828125,0.6840667724609375,-0.033172607421875
-0.72039794921875,0.6417236328125,-0.026275634765625
-0.6576385498046875,0.68792724609375,0.0349884033203125
-0.6259307861328125,0.72210693359375,0.002227783203125
-0.6744842529296875,0.7581329345703125,-0.0496978759765625
-0.7639312744140625,0.8702239990234375,-0.06060791015625
-0.8155059814453125,0.9151611328125,-0.0842132568359375
-0.8322296142578125,0.8673553466796875,-0.1254425048828125
-0.8723602294921875,0.993743896484375,-0.1175994873046875
-0.8280487060546875,1.117340087890625,-0.07275390625
-0.7104949951171875,1.0200347900390625,-0.11602783203125
-0.6787872314453125,0.91619873046875,-0.12493896484375
-0.629913330078125,0.9999847412109376,-0.1584014892578125
-0.51312255859375,1.026031494140625,-0.2000885009765625
-0.4066009521484375,0.883270263671875,-0.1213836669921875
-0.424163818359375,0.7268524169921875,-0.017852783203125
-0.4150543212890625,0.6921234130859375,-0.078399658203125
-0.3572235107421875,0.727203369140625,-0.030609130859375
-0.3348541259765625,0.72882080078125,0.026123046875
-0.3885498046875,0.75811767578125,0.0656585693359375
-0.45306396484375,0.8329620361328125,-0.010772705078125
-0.4997406005859375,0.9048614501953124,-0.0128936767578125
-0.5235748291015625,0.8853302001953125,-0.0177154541015625
-0.6370086669921875,0.9456787109375,0.067230224609375
-0.6710052490234375,1.061767578125,0.12176513671875
-0.58502197265625,0.847930908203125,0.00946044921875
-0.715576171875,0.8351898193359375,-0.02642822265625
-0.75823974609375,0.8743438720703125,-0.0823974609375
-0.77020263671875,0.81292724609375,-0.119293212890625
-0.7563934326171875,0.710357666015625,-0.14251708984375
-0.723358154296875,0.7000885009765625,-0.1156768798828125
-0.6436767578125,0.77685546875,-0.0891265869140625
-0.5390472412109375,0.7420196533203125,-0.088165283203125
-0.5529632568359375,0.714874267578125,-0.1374664306640625
-0.595245361328125,0.753662109375,-0.1088409423828125
-0.6572723388671875,0.760284423828125,-0.0498046875
-0.7353973388671875,0.801116943359375,-0.0211181640625
-0.7573394775390625,0.8300018310546875,-0.1141204833984375
-0.825286865234375,0.99371337890625,-0.157318115234375
-0.7654571533203125,1.0890960693359375,-0.2144012451171875
-0.6057891845703125,0.948516845703125,-0.2239532470703125
-0.6651763916015625,0.9137420654296876,-0.13427734375
-0.6429443359375,0.9726104736328124,-0.1546478271484375
-0.54461669921875,0.9498443603515624,-0.17022705078125
-0.5074005126953125,0.7999420166015625,-0.19537353515625
-0.5359344482421875,0.7092742919921875,-0.1815032958984375
-0.5119781494140625,0.73687744140625,-0.168670654296875
-0.420623779296875,0.7588958740234375,-0.129180908203125
-0.397857666015625,0.8126678466796875,-0.1074066162109375
-0.394287109375,0.8827362060546875,-0.0840606689453125
-0.423583984375,0.9437255859375,-0.0844573974609375
-0.4420013427734375,0.9211273193359376,-0.114990234375
-0.4826812744140625,0.8203887939453125,-0.0952301025390625
-0.6044769287109375,0.96405029296875,0.0455322265625
-0.462860107421875,0.948944091796875,-0.0003662109375
-0.501739501953125,0.796173095703125,-0.1120147705078125
-0.64898681640625,0.8382568359375,-0.056488037109375
-0.7259521484375,0.8958892822265625,0.0040283203125
-0.7086639404296875,0.8054046630859375,-0.009918212890625
-0.6840667724609375,0.68646240234375,-0.018585205078125
-0.669708251953125,0.6926116943359375,-0.0496978759765625
-0.6278533935546875,0.728790283203125,-0.0662689208984375
-0.6030426025390625,0.741607666015625,-0.0914306640625
-0.6256256103515625,0.772552490234375,-0.0945587158203125
-0.6924591064453125,0.8104705810546875,-0.0879058837890625
-0.7567901611328125,0.8995819091796875,-0.0868377685546875
-0.8123016357421875,0.886383056640625,-0.0995025634765625
-0.9143218994140624,0.9554443359375,-0.09808349609375
-0.86865234375,1.0370941162109375,-0.098419189453125
-0.7392425537109375,0.9771270751953124,-0.1123809814453125
-0.7414703369140625,0.83880615234375,-0.1276092529296875
-0.707733154296875,0.9207763671875,-0.1056671142578125
-0.6310577392578125,1.0461883544921875,-0.0978851318359375
-0.4898681640625,0.965362548828125,-0.1420440673828125
-0.4746856689453125,0.832794189453125,-0.1925201416015625
-0.464630126953125,0.7585906982421875,-0.1776885986328125
-0.3899688720703125,0.7388153076171875,-0.113616943359375
-0.3040313720703125,0.7050323486328125,-0.0469818115234375
-0.272003173828125,0.6843414306640625,-0.0331268310546875
-0.318267822265625,0.743804931640625,-0.02947998046875
-0.3809051513671875,0.9260711669921876,-0.001495361328125
-0.4219970703125,0.9597015380859376,0.0003204345703125
-0.6755828857421875,1.08544921875,0.0587005615234375
-0.6421356201171875,1.04144287109375,-0.0317840576171875
-0.6004791259765625,0.818603515625,-0.0983123779296875
-0.7560882568359375,0.8768463134765625,0.003173828125
-0.7588043212890625,0.94537353515625,0.0315399169921875
-0.6482391357421875,0.824951171875,-0.0290985107421875
-0.6259613037109375,0.6468353271484375,-0.0517730712890625
-0.6212615966796875,0.626922607421875,-0.0494842529296875
-0.572113037109375,0.7100830078125,0.004638671875
-0.548980712890625,0.76763916015625,-0.075775146484375
-0.567047119140625,0.809539794921875,-0.1237945556640625
-0.62933349609375,0.8497772216796875,-0.100006103515625
-0.695404052734375,0.88934326171875,-0.082733154296875
-0.7166290283203125,0.850921630859375,-0.0928192138671875
-0.8516845703125,0.985748291015625,-0.0891571044921875
-0.7852783203125,1.05377197265625,-0.0753173828125
-0.67169189453125,0.880859375,-0.027191162109375
-0.7425537109375,0.842437744140625,-0.0126953125
-0.752960205078125,0.95587158203125,-0.0633544921875
-0.626495361328125,0.9735870361328124,-0.0904388427734375
-0.558929443359375,0.8719940185546875,-0.131622314453125
-0.558807373046875,0.8135833740234375,-0.098358154296875
-0.51287841796875,0.81878662109375,-0.04742431640625
-0.41888427734375,0.853271484375,-0.0204010009765625
-0.3367462158203125,0.806121826171875,0.01788330078125
-0.378692626953125,0.7803955078125,0.0289764404296875
-0.4361572265625,0.86248779296875,-0.0259552001953125
-0.402496337890625,0.8605804443359375,-0.1037445068359375
-0.4436187744140625,0.7911529541015625,-0.106048583984375
-0.4853363037109375,0.8700714111328125,0.0236053466796875
-0.417388916015625,0.909576416015625,0.01556396484375
-0.448486328125,0.760406494140625,-0.070465087890625
-0.6083526611328125,0.8607635498046875,-0.059478759765625
-0.657989501953125,0.94805908203125,-0.051116943359375
-0.6766510009765625,0.8167266845703125,-0.033477783203125
-0.7272796630859375,0.6948394775390625,-0.0050048828125
-0.717559814453125,0.7391510009765625,0.0320281982421875
-0.6119232177734375,0.807464599609375,0.0672454833984375
-0.5851287841796875,0.80755615234375,0.0291748046875
-0.6083526611328125,0.7962493896484375,-0.01470947265625
-0.716552734375,0.851318359375,0.0505523681640625
-0.791290283203125,0.901947021484375,-0.0199737548828125
-0.81689453125,0.84014892578125,-0.1532135009765625
-0.920196533203125,0.9757537841796876,-0.212860107421875
-0.81488037109375,0.9990234375,-0.10687255859375
-0.6254119873046875,0.834869384765625,-0.1083526611328125
-0.6134185791015625,0.74908447265625,-0.12408447265625
-0.6000213623046875,0.8364410400390625,-0.1294403076171875
-0.5356597900390625,0.9255218505859376,-0.1820526123046875
-0.52093505859375,0.8277740478515625,-0.2383880615234375
-0.588104248046875,0.7374420166015625,-0.2059478759765625
-0.5980224609375,0.7625732421875,-0.2171630859375
-0.5197906494140625,0.8049774169921875,-0.172515869140625
-0.51141357421875,0.8729400634765625,-0.156036376953125
-0.4757843017578125,0.9362335205078124,-0.1207427978515625
-0.507843017578125,1.0244903564453125,-0.1428680419921875
-0.4361724853515625,1.0062103271484375,-0.1522369384765625
-0.458251953125,0.9363861083984376,-0.1230316162109375
-0.4770660400390625,1.0567626953125,0.0047760009765625
-0.348602294921875,0.843902587890625,0.05767822265625
-0.4295196533203125,0.691192626953125,0.147186279296875
-0.506622314453125,0.779388427734375,0.2356414794921875
-0.5012359619140625,0.8851318359375,0.391693115234375
-0.4511871337890625,0.838623046875,0.1722259521484375
-0.4864044189453125,0.81292724609375,-0.0684814453125
-0.4950103759765625,0.8406982421875,-0.1909027099609375
-0.5204010009765625,0.8268890380859375,-0.1265869140625
-0.611175537109375,0.82598876953125,0.01806640625
-0.7081756591796875,0.872894287109375,0.0990142822265625
-0.7659912109375,0.8823699951171875,0.0737457275390625
-0.8275299072265625,0.9207305908203124,-0.03106689453125
-0.8339385986328125,0.8432159423828125,-0.083160400390625
-0.9261016845703124,0.8803558349609375,-0.092742919921875
-0.8646697998046875,0.9879608154296876,-0.0969085693359375
-0.691864013671875,0.854339599609375,-0.063385009765625
-0.7276458740234375,0.80841064453125,-0.0693817138671875
-0.7268218994140625,0.9308624267578124,-0.0865631103515625
-0.65899658203125,1.016387939453125,-0.1041259765625
-0.5652923583984375,0.939849853515625,-0.148468017578125
-0.5850982666015625,0.883026123046875,-0.16986083984375
-0.5557403564453125,0.8929595947265625,-0.1228790283203125
-0.4867706298828125,0.8979949951171875,-0.0718994140625
-0.3914947509765625,0.8726959228515625,-0.064544677734375
-0.3406524658203125,0.8361968994140625,-0.0498046875
-0.3681182861328125,0.8426971435546875,0.017608642578125
-0.36572265625,0.8944854736328125,0.047271728515625
-0.3610687255859375,0.8671112060546875,-0.0008697509765625
-0.4743804931640625,0.9676055908203124,0.09710693359375
-0.426666259765625,0.97723388671875,0.068878173828125
-0.4734039306640625,0.8162841796875,-0.0043182373046875
-0.635894775390625,0.838348388671875,0.0778656005859375
-0.6793365478515625,0.9486541748046876,0.12677001953125
-0.66229248046875,0.9098052978515624,0.039459228515625
-0.6657867431640625,0.75823974609375,-0.020233154296875
-0.68280029296875,0.713348388671875,-0.0189971923828125
-0.5907135009765625,0.7491912841796875,0.00860595703125
-0.5503692626953125,0.756591796875,-0.0048675537109375
-0.5850372314453125,0.7670440673828125,-0.0217132568359375
-0.6756591796875,0.841339111328125,-0.03289794921875
-0.769287109375,0.8844757080078125,-0.0591278076171875
-0.83709716796875,0.8294525146484375,-0.0751800537109375
-0.892425537109375,0.7981109619140625,-0.0739288330078125
-0.935333251953125,1.0054473876953125,-0.0778656005859375
-0.799713134765625,1.067047119140625,-0.0443572998046875
-0.6781005859375,0.8624267578125,-0.1241302490234375
-0.72833251953125,0.845306396484375,-0.1357879638671875
-0.6987152099609375,1.0081024169921875,-0.084228515625
-0.578643798828125,1.02093505859375,-0.1327667236328125
-0.5328369140625,0.9367218017578124,-0.192138671875
-0.57037353515625,0.899139404296875,-0.1942138671875
-0.5054473876953125,0.8525848388671875,-0.1451263427734375
-0.4664764404296875,0.84002685546875,-0.060821533203125
-0.40753173828125,0.857818603515625,0.005340576171875
-0.326629638671875,0.8460235595703125,0.0230255126953125
-0.3641510009765625,0.809478759765625,-0.0040283203125
-0.335418701171875,0.810302734375,0.075927734375
-0.3038787841796875,0.78265380859375,0.041595458984375
-0.390869140625,0.832550048828125,0.0329132080078125
-0.468292236328125,0.98590087890625,0.0669403076171875
-0.5045623779296875,1.0061492919921875,0.0784149169921875
-0.6252288818359375,1.0246124267578125,-0.02587890625
-0.69036865234375,0.9885101318359376,-0.0416259765625
-0.8234710693359375,0.96649169921875,0.03936767578125
-0.898956298828125,0.90887451171875,0.044677734375
-0.9090728759765624,0.8058013916015625,-0.0349273681640625
-0.860321044921875,0.7764434814453125,-0.083251953125
-0.7730712890625,0.7603607177734375,-0.0281219482421875
-0.7429656982421875,0.69482421875,-0.0012969970703125
-0.73406982421875,0.8079071044921875,0.0369720458984375
-0.6915283203125,0.858795166015625,-0.0506744384765625
-0.7305755615234375,0.8158416748046875,-0.048980712890625
-0.59600830078125,0.8204803466796875,0.091094970703125
-0.4864959716796875,0.8629150390625,0.0857086181640625
-0.54290771484375,0.9195098876953124,-0.2388916015625
-0.458160400390625,0.91827392578125,-0.336761474609375
-0.4154052734375,0.9488372802734376,-0.168548583984375
-0.4918670654296875,0.895111083984375,-0.12939453125
-0.492218017578125,0.792449951171875,-0.2273712158203125
-0.438690185546875,0.74395751953125,-0.29095458984375
-0.4271240234375,0.765594482421875,-0.2951812744140625
-0.4598541259765625,0.8159942626953125,-0.3011474609375
-0.4739990234375,0.8513641357421875,-0.323455810546875
-0.4973907470703125,0.888397216796875,-0.28131103515625
-0.5272979736328125,0.926513671875,-0.2390289306640625
-0.5927886962890625,0.92657470703125,-0.2144317626953125
-0.671722412109375,0.9225006103515624,-0.1947174072265625
-0.6858367919921875,0.8766937255859375,-0.1738433837890625
-0.716766357421875,0.8488616943359375,-0.1326141357421875
-0.77435302734375,0.8321075439453125,-0.1761322021484375
-0.7549591064453125,0.8714599609375,-0.2418060302734375
-0.6485137939453125,0.9276580810546876,-0.264984130859375
-0.6268157958984375,0.938568115234375,-0.2700347900390625
-0.611663818359375,0.9287109375,-0.207061767578125
-0.572906494140625,0.9088897705078124,-0.1536712646484375
-0.520477294921875,0.9002838134765625,-0.1580352783203125
-0.5004730224609375,0.9505767822265624,-0.155242919921875
-0.3846435546875,0.8785858154296875,-0.1232757568359375
-0.4449462890625,0.83758544921875,-0.0474395751953125
-0.4626617431640625,0.8021392822265625,0.0193939208984375
-0.475616455078125,0.74212646484375,-0.0365753173828125
-0.4632720947265625,0.8449249267578125,0.038482666015625
-0.31036376953125,0.8900299072265625,0.09344482421875
-0.3041229248046875,0.8478546142578125,0.19140625
-0.3868560791015625,0.8562469482421875,0.16912841796875
-0.434478759765625,0.8755340576171875,0.2194671630859375
-0.4857635498046875,0.8953704833984375,0.1671600341796875
-0.5298919677734375,0.90325927734375,0.1074066162109375
-0.5903167724609375,0.91693115234375,0.09368896484375
-0.649078369140625,0.9267578125,0.106201171875
-0.6829071044921875,0.895751953125,0.137115478515625
-0.7244720458984375,0.8794708251953125,0.14190673828125
-0.771026611328125,0.9103240966796876,0.0565032958984375
-0.8037872314453125,0.83441162109375,-0.0120391845703125
-0.9361724853515624,0.9330596923828124,-0.073455810546875
-0.932952880859375,0.943634033203125,-0.0405731201171875
-0.7735137939453125,0.7635650634765625,0.00079345703125
-0.730255126953125,0.7692108154296875,-0.03436279296875
-0.662353515625,0.886810302734375,-0.0692901611328125
-0.56768798828125,0.989837646484375,-0.113128662109375
-0.5370941162109375,0.96759033203125,-0.190399169921875
-0.577545166015625,0.934967041015625,-0.2021484375
-0.564422607421875,0.884307861328125,-0.087799072265625
-0.531005859375,0.8951416015625,-0.060760498046875
-0.45147705078125,0.9253692626953124,-0.0795440673828125
-0.3833770751953125,0.8924407958984375,-0.125274658203125
-0.425140380859375,0.866424560546875,-0.0868377685546875
-0.4219818115234375,0.9149017333984376,-0.0111083984375
-0.3456268310546875,0.8700103759765625,0.0065765380859375
-0.44293212890625,0.842193603515625,0.0395965576171875
-0.460357666015625,0.92547607421875,0.1478729248046875
-0.422119140625,0.9774169921875,0.0933074951171875
-0.5075531005859375,0.8592681884765625,0.068115234375
-0.64447021484375,0.851837158203125,0.1550750732421875
-0.64495849609375,0.8841552734375,0.1447601318359375
-0.570770263671875,0.7961578369140625,0.043731689453125
-0.555755615234375,0.7095489501953125,0.0166015625
-0.555328369140625,0.7130889892578125,-0.0072174072265625
-0.5103759765625,0.7632904052734375,-0.0162353515625
-0.5406646728515625,0.77630615234375,-0.0237274169921875
-0.6113433837890625,0.8028564453125,-0.004364013671875
-0.7216339111328125,0.907867431640625,-0.024932861328125
-0.7622222900390625,0.9348297119140624,-0.068817138671875
-0.7795562744140625,0.8253173828125,-0.089508056640625
-0.8952484130859375,0.8980712890625,-0.054962158203125
-0.815399169921875,0.99395751953125,0.016632080078125
-0.7043304443359375,0.897918701171875,0.006805419921875
-0.7793426513671875,0.8123931884765625,0.0004119873046875
-0.7834930419921875,0.9355926513671876,-0.0032501220703125
-0.67645263671875,1.0410003662109375,-0.0337066650390625
-0.5663299560546875,0.9589996337890624,-0.0798492431640625
-0.552032470703125,0.8645782470703125,-0.0887451171875
-0.476470947265625,0.8364715576171875,-0.0306396484375
-0.3666534423828125,0.82830810546875,0.0151519775390625
-0.275299072265625,0.780364990234375,0.01348876953125
-0.2632598876953125,0.7646942138671875,-0.0039215087890625
-0.3123626708984375,0.809906005859375,-0.004241943359375
-0.34967041015625,0.874267578125,-0.02459716796875
-0.486083984375,0.9255523681640624,-0.064727783203125
-0.5666351318359375,1.0798187255859375,-0.0158233642578125
-0.540435791015625,1.0448150634765625,-0.158599853515625
-0.5321197509765625,0.9375152587890624,-0.2177276611328125
-0.615203857421875,0.8487396240234375,-0.08209228515625
-0.70880126953125,0.851287841796875,-0.0063629150390625
-0.7258758544921875,0.849822998046875,0.0096893310546875
-0.6720123291015625,0.7565460205078125,-0.0219879150390625
-0.64166259765625,0.6919708251953125,-0.0836639404296875
-0.542633056640625,0.684844970703125,-0.0437774658203125
-0.545654296875,0.6783294677734375,-0.049957275390625
-0.6177520751953125,0.67474365234375,-0.108489990234375
-0.70556640625,0.76837158203125,-0.1669921875
-0.8490753173828125,0.877410888671875,-0.173858642578125
-0.9126434326171876,0.927032470703125,-0.1359710693359375
-0.77685546875,0.9152984619140624,-0.08758544921875
-0.7061004638671875,0.9964141845703124,-0.014739990234375
-0.6106414794921875,1.0358428955078125,-0.0007781982421875
-0.5995941162109375,0.85870361328125,-0.1497039794921875
-0.7390594482421875,0.86053466796875,-0.1970977783203125
-0.7561492919921875,1.0556640625,-0.0920867919921875
-0.670684814453125,1.143341064453125,-0.064697265625
-0.5624542236328125,1.0589141845703125,-0.1599578857421875
-0.5001983642578125,0.954833984375,-0.1382904052734375
-0.3898773193359375,0.85406494140625,0.0283966064453125
-0.2824554443359375,0.7747039794921875,0.1138153076171875
-0.2377777099609375,0.6959075927734375,0.0947113037109375
-0.35247802734375,0.650726318359375,0.043792724609375
-0.4053192138671875,0.6446380615234375,0.0602874755859375
-0.4289093017578125,0.7087249755859375,-0.0219268798828125
-0.4575653076171875,0.799072265625,-0.1534881591796875
-0.5818023681640625,0.8324737548828125,-0.1422576904296875
-0.697479248046875,0.9892730712890624,-0.05072021484375
-0.6249542236328125,1.038177490234375,-0.2296600341796875
-0.6553192138671875,0.8679962158203125,-0.313720703125
-0.768646240234375,0.8224639892578125,-0.189453125
-0.7458038330078125,0.832763671875,-0.1374359130859375
-0.6876983642578125,0.7467498779296875,-0.1600494384765625
-0.6723785400390625,0.66326904296875,-0.13531494140625
-0.658355712890625,0.7299652099609375,-0.0724334716796875
-0.600677490234375,0.764892578125,-0.0855255126953125
-0.587493896484375,0.7471923828125,-0.0885772705078125
-0.67523193359375,0.76910400390625,-0.0696258544921875
-0.7096710205078125,0.7857208251953125,-0.0556640625
-0.7350311279296875,0.8461761474609375,-0.0682373046875
-0.706878662109375,0.8834991455078125,-0.1072540283203125
-0.738067626953125,0.9491119384765624,-0.1358795166015625
-0.7527008056640625,1.1480865478515625,-0.159515380859375
-0.658660888671875,1.0985107421875,-0.1676788330078125
-0.6662750244140625,0.8740997314453125,-0.1428070068359375
-0.693450927734375,0.9019775390625,-0.1261444091796875
-0.6368408203125,1.0236053466796875,-0.124420166015625
-0.497528076171875,0.98199462890625,-0.1561279296875
-0.470855712890625,0.83978271484375,-0.189208984375
-0.4642486572265625,0.7591400146484375,-0.1762847900390625
-0.35638427734375,0.7501220703125,-0.13702392578125
-0.241058349609375,0.7592315673828125,-0.0610809326171875
-0.193939208984375,0.723114013671875,0.038330078125
-0.249298095703125,0.7023468017578125,0.0691986083984375
-0.410552978515625,0.7756500244140625,0.033355712890625
-0.4759521484375,0.89508056640625,0.02801513671875
-0.5445709228515625,0.90350341796875,0.026336669921875
-0.787841796875,1.1168365478515625,0.13934326171875
-0.705108642578125,1.198974609375,0.0453033447265625
-0.6060028076171875,0.9645233154296876,-0.162841796875
-0.764678955078125,0.9375457763671876,-0.16778564453125
-0.7958831787109375,0.920745849609375,-0.1290740966796875
-0.7331390380859375,0.81103515625,-0.0829620361328125
-0.7054443359375,0.6771240234375,-0.0728607177734375
-0.627716064453125,0.6865081787109375,-0.0285797119140625
-0.5253753662109375,0.7533111572265625,-0.0467376708984375
-0.4397430419921875,0.7392730712890625,-0.089080810546875
-0.47314453125,0.72967529296875,-0.10748291015625
-0.57244873046875,0.785552978515625,-0.0473785400390625
-0.69403076171875,0.88525390625,0.031402587890625
-0.749542236328125,0.9031982421875,0.094482421875
-0.7951507568359375,0.8685760498046875,-0.0146636962890625
-0.8919677734375,1.0000762939453125,-0.0051116943359375
-0.822601318359375,1.189239501953125,-0.0310821533203125
-0.642669677734375,0.9820556640625,-0.0662384033203125
-0.6851959228515625,0.8121795654296875,-0.0695343017578125
-0.6811065673828125,0.9073638916015624,-0.067352294921875
-0.5880279541015625,1.083770751953125,-0.07269287109375
-0.4597930908203125,1.026153564453125,-0.15582275390625
-0.467315673828125,0.907073974609375,-0.20257568359375
-0.477783203125,0.8321685791015625,-0.1342620849609375
-0.4248199462890625,0.802001953125,-0.0810394287109375
-0.3239898681640625,0.776123046875,-0.0482635498046875
-0.26922607421875,0.73223876953125,-0.0528106689453125
-0.268890380859375,0.7042083740234375,-0.0603790283203125
-0.3143310546875,0.773773193359375,-0.0137176513671875
-0.3399200439453125,0.8232879638671875,0.0231170654296875
-0.4814910888671875,0.8599853515625,0.0823516845703125
-0.58978271484375,1.1096954345703125,0.1285552978515625
-0.54034423828125,1.1641387939453125,-0.1011505126953125
-0.6129302978515625,0.9468536376953124,-0.1715240478515625
-0.7742919921875,0.9282379150390624,-0.0410003662109375
-0.8391265869140625,0.947174072265625,0.0601654052734375
-0.8035125732421875,0.8043975830078125,0.0828704833984375
-0.7562255859375,0.679595947265625,0.017486572265625
-0.6458740234375,0.7015228271484375,-0.0255126953125
-0.5182952880859375,0.7579345703125,0.0079498291015625
-0.4531707763671875,0.75762939453125,-0.0199127197265625
-0.5087432861328125,0.7602081298828125,-0.0572357177734375
-0.6290435791015625,0.87518310546875,-0.11138916015625
-0.739959716796875,0.936859130859375,-0.1161651611328125
-0.7846832275390625,0.865814208984375,-0.1304168701171875
-0.8118896484375,0.8123779296875,-0.1184234619140625
-0.789154052734375,1.0068206787109375,0.0093536376953125
-0.694793701171875,1.1610260009765625,-0.0255584716796875
-0.6187591552734375,0.923736572265625,-0.143341064453125
-0.7008209228515625,0.8726806640625,-0.1651763916015625
-0.668243408203125,0.982025146484375,-0.0171356201171875
-0.550262451171875,1.029876708984375,-0.03314208984375
-0.4962005615234375,0.932861328125,-0.0977783203125
-0.4937591552734375,0.8491363525390625,-0.0486602783203125
-0.4257965087890625,0.84814453125,0.056427001953125
-0.34454345703125,0.815216064453125,0.147216796875
-0.3167724609375,0.7773590087890625,0.2024688720703125
-0.33245849609375,0.793060302734375,0.0982208251953125
-0.336822509765625,0.8492584228515625,0.0525054931640625
-0.3419647216796875,0.90667724609375,0.0195465087890625
-0.411590576171875,0.88397216796875,-0.0286865234375
-0.5855255126953125,0.9560546875,-0.03228759765625
-0.5712127685546875,1.1289520263671875,-0.0308380126953125
-0.5802154541015625,1.1845550537109375,-0.2211761474609375
-0.5996856689453125,0.957489013671875,-0.3091278076171875
-0.7532806396484375,0.86395263671875,-0.3190155029296875
-0.799407958984375,0.8333892822265625,-0.3217620849609375
-0.71240234375,0.723358154296875,-0.172607421875
-0.6156005859375,0.6671142578125,-0.0910491943359375
-0.521392822265625,0.690093994140625,-0.0590972900390625
-0.451263427734375,0.7055206298828125,-0.0557403564453125
-0.4335479736328125,0.7015838623046875,-0.030670166015625
-0.481719970703125,0.72412109375,-0.0296630859375
-0.630706787109375,0.79400634765625,-0.05535888671875
-0.729705810546875,0.8841400146484375,-0.026519775390625
-0.7882232666015625,0.90765380859375,-0.0244140625
-0.8361358642578125,0.832244873046875,-0.0216827392578125
-0.9204864501953124,1.0100555419921875,-0.0273895263671875
-0.8404693603515625,1.0797882080078125,-0.046356201171875
-0.7017974853515625,0.8446197509765625,-0.0435638427734375
-0.7024383544921875,0.78314208984375,-0.040771484375
-0.624359130859375,0.9161224365234376,0.0270233154296875
-0.5166778564453125,1.033111572265625,-0.0196533203125
-0.44073486328125,0.903076171875,-0.047760009765625
-0.4425201416015625,0.7694091796875,-0.0607757568359375
-0.385467529296875,0.700408935546875,-0.040771484375
-0.3752593994140625,0.7057647705078125,0.0747222900390625
-0.5027008056640625,0.681121826171875,0.138275146484375
-0.7571258544921875,0.601898193359375,0.0468292236328125
-1.1007537841796875,0.6063995361328125,-0.137054443359375
-1.3787841796875,0.6322021484375,-0.25537109375
-1.4558563232421875,0.6953125,-0.3521728515625
-1.306182861328125,0.7148590087890625,-0.56781005859375
-1.284149169921875,0.902587890625,-0.6419677734375
-1.0711212158203125,0.880584716796875,-0.6612548828125
-0.972625732421875,0.7957000732421875,-0.7652130126953125
-0.9622955322265624,0.6925811767578125,-0.856109619140625
-0.98345947265625,0.8326568603515625,-0.830718994140625
-0.66632080078125,0.8677978515625,-0.710906982421875
-0.45660400390625,0.6242828369140625,-0.777130126953125
-0.50628662109375,0.5177154541015625,-0.931671142578125
-0.4396514892578125,0.3821868896484375,-0.9209136962890624
-0.3350067138671875,0.2531890869140625,-0.7927093505859375
-0.2673492431640625,0.197235107421875,-0.6877593994140625
-0.205322265625,0.1295928955078125,-0.6699981689453125
-0.1494903564453125,0.0716552734375,-0.692413330078125
-0.10601806640625,0.0257720947265625,-0.5662384033203125
-0.16845703125,-0.0007781982421875,-0.451385498046875
-0.18524169921875,0.06536865234375,-0.6704864501953125
-0.08197021484375,-0.10198974609375,-0.8734588623046875
-0.118499755859375,-0.10565185546875,-0.74932861328125
-0.1123504638671875,-0.1899566650390625,-0.700439453125
-0.1751861572265625,-0.1633453369140625,-0.83184814453125
-0.1843109130859375,-0.1298980712890625,-0.9303436279296876
-0.10455322265625,-0.0772857666015625,-0.9617156982421876
0.0723114013671875,-0.166717529296875,-0.9266815185546876
0.0762176513671875,-0.19989013671875,-0.766357421875
0.1397552490234375,-0.1952056884765625,-0.9620361328125
0.2635955810546875,-0.16534423828125,-1.021270751953125
0.1688690185546875,-0.2247314453125,-0.77850341796875
-0.0842742919921875,-0.21868896484375,-0.85919189453125
-0.0209197998046875,-0.3588104248046875,-0.9589691162109376
0.017578125,-0.230133056640625,-0.8447265625
0.1176300048828125,-0.209625244140625,-0.861236572265625
0.1930999755859375,-0.3062744140625,-1.009185791015625
0.0217742919921875,-0.4227294921875,-0.81658935546875
-0.0303497314453125,-0.31549072265625,-0.6840667724609375
0.015960693359375,-0.3520965576171875,-0.7147979736328125
0.1405792236328125,-0.4586944580078125,-0.6317138671875
0.0772247314453125,-0.367034912109375,-0.630706787109375
0.0351104736328125,-0.3732452392578125,-0.7877960205078125
0.0694732666015625,-0.3038482666015625,-0.826202392578125
0.1580963134765625,-0.2429351806640625,-0.7679443359375
0.40887451171875,-0.26873779296875,-0.584625244140625
0.04400634765625,0.018402099609375,-0.5092620849609375
-0.220855712890625,-0.2625732421875,-0.147552490234375
0.143402099609375,0.0072174072265625,0.017852783203125
0.1370391845703125,0.0062103271484375,0.0121917724609375
0.1348114013671875,0.0080108642578125,0.0158233642578125
0.13641357421875,0.009002685546875,0.0203094482421875
0.1473846435546875,0.010528564453125,0.0316619873046875
0.1668853759765625,0.009246826171875,0.060272216796875
0.1775360107421875,0.010284423828125,0.088348388671875
0.178741455078125,0.007843017578125,0.100921630859375
0.1690826416015625,0.0051422119140625,0.1037750244140625
3.746337890625,-0.5759429931640625,5.571044921875
-2.59405517578125,-0.4034881591796875,6.335113525390625
-0.102081298828125,0.2211151123046875,-0.0695037841796875
0.0066680908203125,0.000885009765625,-0.001953125
0.007904052734375,0.0027008056640625,0.0087432861328125
0.0206451416015625,0.0044403076171875,-0.1420745849609375
0.256378173828125,-0.3543243408203125,3.114471435546875
-0.1255035400390625,0.1966400146484375,1.2108154296875
-0.04925537109375,-0.1262969970703125,0.3991546630859375
0.0598907470703125,-0.10015869140625,1.2124176025390625
0.01226806640625,-0.1219024658203125,0.981048583984375
0.0082550048828125,-0.0778961181640625,0.992156982421875
0.0071563720703125,-0.1076507568359375,0.9954986572265624
0.003021240234375,-0.0906982421875,1.02642822265625
0.006439208984375,-0.1118927001953125,1.0114288330078125
-0.002532958984375,-0.0942230224609375,1.0110931396484375
0.0104522705078125,-0.09771728515625,0.9945068359375
0.0027313232421875,-0.0979766845703125,1.005462646484375
0.00042724609375,-0.07879638671875,0.999847412109375
0.0172576904296875,-0.0814666748046875,0.9746551513671876
-0.074981689453125,-0.1848602294921875,1.0127716064453125
-0.0390777587890625,0.03350830078125,1.1819000244140625
0.03759765625,-0.284393310546875,0.928314208984375
-0.122039794921875,0.01873779296875,1.0235443115234375
-0.189453125,0.042724609375,1.5023193359375
-0.1174468994140625,-0.0640716552734375,1.6706695556640625
-0.17633056640625,-0.0197296142578125,1.2724151611328125
-0.24432373046875,0.261077880859375,0.1697845458984375
0.31207275390625,0.0195159912109375,-0.0350341796875
0.24005126953125,0.129791259765625,-0.1419830322265625
-0.7901458740234375,0.64984130859375,-2.376800537109375
-0.2295684814453125,-0.2968902587890625,-1.0935821533203125
-0.3901214599609375,-0.165771484375,-0.4522857666015625
-0.5328369140625,-0.1859283447265625,-1.1743011474609375
-0.2972869873046875,-0.0745086669921875,-0.9229888916015624
-0.340484619140625,-0.0442962646484375,-0.937042236328125
-0.474609375,-0.1076202392578125,-0.889923095703125
-0.30206298828125,-0.095947265625,-0.9627227783203124
-0.319427490234375,-0.07672119140625,-0.951995849609375
-0.3472442626953125,-0.099090576171875,-0.9235076904296876
-0.3224029541015625,-0.09423828125,-0.9351043701171876
-0.2919464111328125,-0.0916900634765625,-0.9459381103515624
-0.3281402587890625,-0.095611572265625,-0.9207305908203124
