AccelerationX,AccelerationY,AccelerationZ
-0.0074005126953125,-0.3123931884765625,-0.8529052734375
0.001708984375,-0.3031158447265625,-0.90167236328125
-0.0024871826171875,-0.2454376220703125,-0.924957275390625
0.100982666015625,-0.295440673828125,-0.90771484375
0.166717529296875,-0.3940887451171875,-0.9249420166015624
0.224365234375,-0.365692138671875,-0.9111480712890624
0.1740875244140625,-0.3451995849609375,-0.9520721435546876
0.267486572265625,-0.339813232421875,-1.0125579833984375
0.211181640625,-0.4615020751953125,-1.0146484375
0.12347412109375,-0.3385467529296875,-0.90447998046875
0.17633056640625,-0.3716583251953125,-0.8763427734375
0.1955108642578125,-0.3863372802734375,-0.8928680419921875
0.2377471923828125,-0.4248504638671875,-0.6984405517578125
0.2129974365234375,-0.4261016845703125,-0.5950469970703125
0.187835693359375,-0.4344635009765625,-0.6082763671875
0.1614990234375,-0.254913330078125,-0.415924072265625
0.137451171875,-0.1845855712890625,-0.704925537109375
0.3246307373046875,-0.3054656982421875,-0.731719970703125
0.1964874267578125,-0.175506591796875,-0.6220550537109375
0.196502685546875,-0.0522003173828125,-0.6767120361328125
0.3628997802734375,0.047607421875,-0.759735107421875
0.475341796875,0.084075927734375,-0.858306884765625
0.5168304443359375,0.18798828125,-0.734619140625
0.6351470947265625,0.3560791015625,-0.928924560546875
0.8034820556640625,0.3623504638671875,-1.0500030517578125
0.7489013671875,0.4312744140625,-1.0104217529296875
0.9414520263671876,0.4957427978515625,-0.9514007568359376
0.88836669921875,0.635894775390625,-0.7664794921875
0.93133544921875,0.6189727783203125,-0.809906005859375
0.918243408203125,0.64056396484375,-0.6975555419921875
0.918121337890625,0.5992889404296875,-0.5765228271484375
0.9333953857421876,0.596405029296875,-0.572418212890625
0.7928009033203125,0.5351104736328125,-0.565582275390625
0.64678955078125,0.720367431640625,-0.5916290283203125
0.6102447509765625,0.8391265869140625,-0.6287078857421875
0.525665283203125,0.72021484375,-0.5235748291015625
0.5594635009765625,0.7948760986328125,-0.6725616455078125
0.6303253173828125,0.5610504150390625,-0.4869384765625
0.8321685791015625,0.683837890625,-0.5352630615234375
0.3756866455078125,0.224090576171875,-0.8626861572265625
0.8150482177734375,0.392669677734375,-0.437103271484375
0.7035369873046875,0.2396240234375,-0.395599365234375
0.725128173828125,0.2948455810546875,-0.5908966064453125
0.8015899658203125,0.3205413818359375,-0.644744873046875
0.846710205078125,0.343597412109375,-0.613433837890625
0.8363800048828125,0.412872314453125,-0.6478271484375
0.81768798828125,0.421051025390625,-0.546112060546875
0.9559326171875,0.5778350830078125,-0.5683746337890625
1.1246490478515625,0.6969146728515625,-0.5515594482421875
0.78631591796875,0.3717193603515625,-0.1893157958984375
0.6371002197265625,0.0585479736328125,-0.320343017578125
0.6904144287109375,0.0992584228515625,-0.7714080810546875
0.8601837158203125,0.5765380859375,-0.862823486328125
0.759124755859375,0.894134521484375,-0.70306396484375
0.68218994140625,0.71343994140625,-0.611846923828125
0.634033203125,0.48333740234375,-0.6011505126953125
0.6005859375,0.4152984619140625,-0.623687744140625
0.7074432373046875,0.40948486328125,-0.631927490234375
0.7060546875,0.436187744140625,-0.552398681640625
0.651092529296875,0.47076416015625,-0.4547882080078125
0.576019287109375,0.3895721435546875,-0.449798583984375
0.5451812744140625,0.3963775634765625,-0.465118408203125
0.5235443115234375,0.300872802734375,-0.4200286865234375
0.63323974609375,0.27569580078125,-0.4901580810546875
0.791717529296875,0.2700958251953125,-0.54443359375
0.9555816650390624,0.4021453857421875,-0.647430419921875
1.20233154296875,0.6259765625,-0.687408447265625
1.1797332763671875,0.394073486328125,-0.5325927734375
1.1974334716796875,0.3738861083984375,-0.5016326904296875
0.9332275390625,0.1614227294921875,-0.3755645751953125
0.8678741455078125,0.095977783203125,-0.37738037109375
0.9250946044921876,0.3526763916015625,-0.4564666748046875
0.935577392578125,0.455352783203125,-0.4196624755859375
0.9514617919921876,0.355133056640625,-0.332977294921875
0.8892059326171875,0.2259368896484375,-0.3129730224609375
0.84771728515625,0.229583740234375,-0.3614959716796875
0.82501220703125,0.3203887939453125,-0.35894775390625
0.832061767578125,0.38018798828125,-0.3185272216796875
0.820220947265625,0.411895751953125,-0.324493408203125
0.8387451171875,0.4115447998046875,-0.29888916015625
0.823272705078125,0.4429931640625,-0.330078125
0.830322265625,0.4920654296875,-0.3447265625
0.8774261474609375,0.4792022705078125,-0.3680877685546875
0.858978271484375,0.4825439453125,-0.4112701416015625
0.966644287109375,0.6385955810546875,-0.5148162841796875
0.9786834716796876,0.63153076171875,-0.4709014892578125
0.853790283203125,0.463226318359375,-0.2921600341796875
0.6901397705078125,0.3526153564453125,-0.2720489501953125
0.6331634521484375,0.2525634765625,-0.3126983642578125
0.7581329345703125,0.3394775390625,-0.432373046875
0.8800048828125,0.5388031005859375,-0.400482177734375
0.9051513671875,0.5073699951171875,-0.2031402587890625
0.880126953125,0.3922271728515625,-0.113555908203125
0.788726806640625,0.4176788330078125,-0.242401123046875
0.74395751953125,0.432403564453125,-0.295379638671875
0.7961273193359375,0.4465179443359375,-0.30670166015625
0.81256103515625,0.4527130126953125,-0.2898101806640625
0.8175201416015625,0.4194793701171875,-0.2760162353515625
0.850189208984375,0.45635986328125,-0.3240966796875
0.8667449951171875,0.4821014404296875,-0.2899169921875
0.885589599609375,0.5050201416015625,-0.238525390625
0.90777587890625,0.576507568359375,-0.253387451171875
0.9196319580078124,0.578338623046875,-0.2061004638671875
0.8575286865234375,0.5054779052734375,-0.1399993896484375
0.7873077392578125,0.505126953125,-0.1909942626953125
0.8040008544921875,0.5451812744140625,-0.198638916015625
0.836944580078125,0.5743408203125,-0.16290283203125
0.873504638671875,0.5774078369140625,-0.120574951171875
0.8931427001953125,0.523193359375,-0.0964813232421875
0.9245452880859376,0.4631195068359375,-0.100555419921875
0.93505859375,0.4477386474609375,-0.09649658203125
0.921295166015625,0.4845123291015625,-0.1102142333984375
0.92034912109375,0.4958343505859375,-0.1123504638671875
0.917144775390625,0.5107269287109375,-0.1352081298828125
0.9043731689453124,0.471893310546875,-0.1412506103515625
0.910125732421875,0.4799957275390625,-0.1539154052734375
0.90411376953125,0.485107421875,-0.1611328125
0.9195098876953124,0.4987030029296875,-0.2012176513671875
0.8580780029296875,0.5466156005859375,-0.2725982666015625
0.782196044921875,0.5390167236328125,-0.30645751953125
0.7896881103515625,0.51971435546875,-0.3469085693359375
0.7673492431640625,0.48095703125,-0.37774658203125
0.7452392578125,0.4923095703125,-0.421722412109375
0.79437255859375,0.5120086669921875,-0.394683837890625
0.8925323486328125,0.608428955078125,-0.4033203125
0.8596649169921875,0.5538177490234375,-0.343963623046875
0.80523681640625,0.44549560546875,-0.3017425537109375
0.8053436279296875,0.5554046630859375,-0.400482177734375
0.767059326171875,0.39398193359375,-0.333770751953125
0.8111572265625,0.3805694580078125,-0.3251190185546875
0.8282318115234375,0.5337982177734375,-0.3626861572265625
0.8338623046875,0.5400848388671875,-0.35296630859375
0.8241729736328125,0.4680633544921875,-0.3065338134765625
0.8173980712890625,0.3424530029296875,-0.3235015869140625
0.799072265625,0.3810272216796875,-0.425445556640625
0.7915191650390625,0.4393310546875,-0.4124755859375
0.791259765625,0.4180755615234375,-0.317596435546875
0.7548065185546875,0.3746337890625,-0.309173583984375
0.7759552001953125,0.3034820556640625,-0.2899017333984375
0.7952117919921875,0.256561279296875,-0.31561279296875
0.836639404296875,0.3223876953125,-0.3731689453125
0.9214324951171876,0.3570556640625,-0.34747314453125
0.977935791015625,0.4363555908203125,-0.361083984375
1.0947265625,0.5773162841796875,-0.394775390625
1.0389556884765625,0.3966064453125,-0.3371429443359375
1.0021514892578125,0.3840179443359375,-0.3107147216796875
0.8502044677734375,0.2449951171875,-0.216339111328125
0.8878631591796875,0.41265869140625,-0.378753662109375
0.9072723388671876,0.64495849609375,-0.4103546142578125
0.8715972900390625,0.4967498779296875,-0.2561492919921875
0.8618011474609375,0.4690093994140625,-0.3219757080078125
0.7819671630859375,0.4290771484375,-0.34722900390625
0.7484893798828125,0.3420867919921875,-0.318084716796875
0.7208251953125,0.358673095703125,-0.313262939453125
0.7738494873046875,0.4582366943359375,-0.2757720947265625
0.8013763427734375,0.391845703125,-0.1328887939453125
0.86651611328125,0.482940673828125,-0.265533447265625
0.8299560546875,0.3852691650390625,-0.336456298828125
0.8687286376953125,0.3529815673828125,-0.263946533203125
0.95098876953125,0.497283935546875,-0.2862396240234375
0.9429779052734376,0.502166748046875,-0.25396728515625
0.863037109375,0.365936279296875,-0.1898040771484375
0.9204864501953124,0.4622344970703125,-0.29815673828125
0.8894805908203125,0.4455108642578125,-0.2725982666015625
0.8268890380859375,0.3683929443359375,-0.247283935546875
0.8455810546875,0.461578369140625,-0.268402099609375
0.8907623291015625,0.571807861328125,-0.26318359375
0.9004974365234375,0.5370635986328125,-0.1748809814453125
0.8689117431640625,0.47882080078125,-0.141357421875
0.822265625,0.488433837890625,-0.180816650390625
0.8233184814453125,0.4553070068359375,-0.16937255859375
0.8406219482421875,0.4688568115234375,-0.1436309814453125
0.8724365234375,0.49212646484375,-0.1350555419921875
0.87896728515625,0.4837188720703125,-0.1588592529296875
0.8856201171875,0.4765472412109375,-0.1940155029296875
0.9067535400390624,0.49127197265625,-0.2168426513671875
0.939697265625,0.4866943359375,-0.2200927734375
0.9329986572265624,0.533447265625,-0.2344512939453125
0.89300537109375,0.5028839111328125,-0.2158050537109375
0.8342132568359375,0.5051727294921875,-0.2037200927734375
0.760711669921875,0.452545166015625,-0.1613006591796875
0.7807159423828125,0.414276123046875,-0.17303466796875
0.87762451171875,0.51055908203125,-0.227752685546875
0.9235687255859376,0.501220703125,-0.179168701171875
0.9282684326171876,0.4757843017578125,-0.172271728515625
0.9265899658203124,0.4438934326171875,-0.1876068115234375
0.8904266357421875,0.4095001220703125,-0.14031982421875
0.8629150390625,0.404449462890625,-0.1702423095703125
0.841827392578125,0.434906005859375,-0.23040771484375
0.8428802490234375,0.456329345703125,-0.244964599609375
0.8386688232421875,0.4345703125,-0.2386016845703125
0.83966064453125,0.441650390625,-0.28985595703125
0.8708648681640625,0.47979736328125,-0.342254638671875
0.864501953125,0.493255615234375,-0.3460845947265625
0.7867584228515625,0.5087738037109375,-0.349884033203125
0.782562255859375,0.5312957763671875,-0.3997650146484375
0.8925018310546875,0.7507476806640625,-0.460357666015625
0.857757568359375,0.6310272216796875,-0.26312255859375
0.84661865234375,0.5622711181640625,-0.31494140625
0.761749267578125,0.5794677734375,-0.424957275390625
0.7049713134765625,0.409942626953125,-0.3391571044921875
0.7313385009765625,0.3548431396484375,-0.2978363037109375
0.7216796875,0.4573516845703125,-0.384521484375
0.8015594482421875,0.613250732421875,-0.390472412109375
0.83642578125,0.581634521484375,-0.2546234130859375
0.8264617919921875,0.449371337890625,-0.1868438720703125
0.8032379150390625,0.386199951171875,-0.2370452880859375
0.7497711181640625,0.4221649169921875,-0.299957275390625
0.759857177734375,0.4512481689453125,-0.2798309326171875
0.8022613525390625,0.42620849609375,-0.248931884765625
0.799407958984375,0.40582275390625,-0.2203826904296875
0.7884521484375,0.387786865234375,-0.25238037109375
0.8034820556640625,0.4033355712890625,-0.2975921630859375
0.862518310546875,0.4714508056640625,-0.2644500732421875
0.922637939453125,0.48980712890625,-0.2850494384765625
1.153961181640625,0.71185302734375,-0.4161224365234375
1.053619384765625,0.584625244140625,-0.203582763671875
1.1024017333984375,0.5965576171875,-0.259735107421875
0.9314422607421876,0.556182861328125,-0.304840087890625
0.811187744140625,0.37042236328125,-0.23492431640625
0.8046875,0.480621337890625,-0.328887939453125
0.8408966064453125,0.7252197265625,-0.3437957763671875
0.8638153076171875,0.72869873046875,-0.24737548828125
0.8554840087890625,0.5885772705078125,-0.1918182373046875
0.770538330078125,0.519134521484375,-0.1867523193359375
0.7098541259765625,0.5067291259765625,-0.2185211181640625
0.7073822021484375,0.50390625,-0.2417449951171875
0.7217559814453125,0.538177490234375,-0.229705810546875
0.7187957763671875,0.5180816650390625,-0.21087646484375
0.71929931640625,0.4998931884765625,-0.2219085693359375
0.7086029052734375,0.5072021484375,-0.232208251953125
0.7217559814453125,0.5126800537109375,-0.2520751953125
0.782135009765625,0.5617218017578125,-0.3361358642578125
0.8296051025390625,0.6023712158203125,-0.3655853271484375
0.94439697265625,0.7428741455078125,-0.3761444091796875
0.911285400390625,0.6920166015625,-0.22662353515625
0.9160614013671876,0.5692291259765625,-0.186126708984375
0.88677978515625,0.5865325927734375,-0.2449188232421875
0.8037567138671875,0.389984130859375,-0.19927978515625
0.8207550048828125,0.292633056640625,-0.2174835205078125
0.8462677001953125,0.4742889404296875,-0.35723876953125
0.83935546875,0.67376708984375,-0.341766357421875
0.821929931640625,0.5807037353515625,-0.2456512451171875
0.791412353515625,0.394317626953125,-0.301727294921875
0.7450714111328125,0.4204864501953125,-0.356353759765625
0.815399169921875,0.428497314453125,-0.3515625
0.850555419921875,0.460205078125,-0.2985382080078125
0.801025390625,0.4571075439453125,-0.3019256591796875
0.809356689453125,0.4288330078125,-0.3483428955078125
0.8478240966796875,0.4987640380859375,-0.3515625
0.926727294921875,0.5088653564453125,-0.3239898681640625
0.984771728515625,0.5591278076171875,-0.2377777099609375
0.95269775390625,0.5713348388671875,-0.1210174560546875
0.840301513671875,0.5964202880859375,-0.051300048828125
0.8294677734375,0.613128662109375,-0.1297607421875
0.8197174072265625,0.6547698974609375,-0.2238922119140625
0.8394927978515625,0.56512451171875,-0.1595306396484375
0.85888671875,0.538665771484375,-0.1054840087890625
0.84381103515625,0.569732666015625,-0.087554931640625
0.84356689453125,0.5753173828125,-0.0569000244140625
0.8397216796875,0.51885986328125,-0.019378662109375
0.846923828125,0.50531005859375,-0.0605926513671875
0.862518310546875,0.518035888671875,-0.0923004150390625
0.9561614990234376,0.4351043701171875,-0.116180419921875
0.9877166748046876,0.4408721923828125,-0.1613616943359375
0.9632110595703124,0.4804534912109375,-0.1768951416015625
0.9510498046875,0.467132568359375,-0.1745758056640625
0.9166412353515624,0.4676055908203125,-0.2151031494140625
0.90765380859375,0.4808349609375,-0.2323455810546875
0.913330078125,0.5116424560546875,-0.2230072021484375
0.8825225830078125,0.536468505859375,-0.19525146484375
0.883209228515625,0.5484619140625,-0.20172119140625
0.84271240234375,0.539276123046875,-0.2259368896484375
0.7887115478515625,0.5363006591796875,-0.2569427490234375
0.7610931396484375,0.51361083984375,-0.2771759033203125
0.8206939697265625,0.5068817138671875,-0.2639312744140625
0.7565765380859375,0.487945556640625,-0.3192901611328125
0.74627685546875,0.50048828125,-0.309814453125
0.788330078125,0.5558319091796875,-0.3148651123046875
0.783935546875,0.52667236328125,-0.333831787109375
0.7747039794921875,0.4474334716796875,-0.3405914306640625
0.76300048828125,0.4254150390625,-0.3565216064453125
0.7508544921875,0.4200286865234375,-0.3451995849609375
0.833740234375,0.54779052734375,-0.356109619140625
0.8792877197265625,0.6190185546875,-0.334136962890625
0.8336334228515625,0.4769134521484375,-0.2833099365234375
0.7985687255859375,0.4019012451171875,-0.3305511474609375
0.7927093505859375,0.44647216796875,-0.3729095458984375
0.80950927734375,0.4798583984375,-0.348846435546875
0.8156280517578125,0.4652862548828125,-0.312896728515625
0.80352783203125,0.4535064697265625,-0.3216705322265625
0.7902679443359375,0.439208984375,-0.3159027099609375
0.771881103515625,0.445465087890625,-0.323333740234375
0.795135498046875,0.415740966796875,-0.3562774658203125
0.8436737060546875,0.4180145263671875,-0.3719635009765625
0.9166412353515624,0.455474853515625,-0.3438568115234375
0.981353759765625,0.51177978515625,-0.3188934326171875
1.0118255615234375,0.5458984375,-0.2956085205078125
0.9198760986328124,0.3945159912109375,-0.230133056640625
0.9825439453125,0.512939453125,-0.3494873046875
1.0350189208984375,0.533538818359375,-0.2915191650390625
0.9278717041015624,0.4113311767578125,-0.1897430419921875
0.8472900390625,0.409271240234375,-0.3359375
0.9397735595703124,0.616546630859375,-0.4790496826171875
0.962554931640625,0.736114501953125,-0.382080078125
0.926910400390625,0.5958251953125,-0.1760101318359375
0.8706512451171875,0.52899169921875,-0.20404052734375
0.7881011962890625,0.570037841796875,-0.3374176025390625
0.7920989990234375,0.59613037109375,-0.3160247802734375
0.7961273193359375,0.5832977294921875,-0.2491912841796875
0.7740478515625,0.5601959228515625,-0.246490478515625
0.7336273193359375,0.5205535888671875,-0.238311767578125
0.7182159423828125,0.5211029052734375,-0.2590179443359375
0.761474609375,0.54302978515625,-0.2685699462890625
0.7617645263671875,0.487213134765625,-0.2535858154296875
0.8318023681640625,0.4835662841796875,-0.3304290771484375
0.8537139892578125,0.49456787109375,-0.3239288330078125
0.81341552734375,0.3980865478515625,-0.23406982421875
0.831207275390625,0.3682861328125,-0.255096435546875
0.875091552734375,0.475982666015625,-0.2742767333984375
0.9097900390625,0.343780517578125,-0.24176025390625
0.9372406005859376,0.3065643310546875,-0.24322509765625
0.967315673828125,0.31005859375,-0.2908477783203125
1.018035888671875,0.2914886474609375,-0.2449493408203125
0.987884521484375,0.29815673828125,-0.2727813720703125
1.037811279296875,0.218841552734375,-0.2232208251953125
0.99530029296875,0.2835540771484375,-0.2073822021484375
0.928436279296875,0.280731201171875,-0.217803955078125
0.933685302734375,0.2965545654296875,-0.198272705078125
0.9131622314453124,0.317962646484375,-0.189697265625
0.9213714599609376,0.3069610595703125,-0.229400634765625
0.9357452392578124,0.2827911376953125,-0.230743408203125
0.9368743896484376,0.315216064453125,-0.2129669189453125
0.9256439208984376,0.2837982177734375,-0.2107086181640625
0.9266357421875,0.2801361083984375,-0.2046356201171875
0.9376068115234376,0.282745361328125,-0.1891632080078125
0.943359375,0.2884979248046875,-0.142486572265625
0.9225921630859376,0.3314666748046875,-0.2711334228515625
1.0,0.2864532470703125,-0.1661529541015625
0.9393768310546876,0.2965850830078125,-0.1763458251953125
0.8852691650390625,0.310028076171875,-0.2501220703125
0.759765625,0.2397918701171875,-0.2697906494140625
0.9455718994140624,0.387115478515625,-0.0599212646484375
0.93804931640625,0.31158447265625,-0.0524139404296875
0.9320220947265624,0.2978363037109375,0.0249786376953125
0.8859100341796875,0.2965545654296875,-0.01177978515625
0.90740966796875,0.2637786865234375,-0.0634613037109375
0.952850341796875,0.1838531494140625,-0.162841796875
0.9772796630859376,0.2669677734375,-0.086700439453125
0.9647064208984376,0.2718048095703125,-0.1031646728515625
1.0367584228515625,0.2409210205078125,-0.1739349365234375
0.9757537841796876,0.337890625,-0.1298370361328125
0.994873046875,0.2566375732421875,-0.1508636474609375
0.9606170654296876,0.338348388671875,-0.19476318359375
1.022430419921875,0.150665283203125,-0.1724853515625
0.9565887451171876,0.141754150390625,-0.1057891845703125
0.9490814208984376,0.1310882568359375,-0.1614532470703125
0.9203643798828124,0.3719329833984375,-0.15496826171875
0.9238739013671876,0.34686279296875,-0.1566314697265625
0.9758148193359376,0.1673126220703125,-0.2318115234375
0.9510650634765624,0.2518157958984375,-0.12664794921875
0.9885101318359376,0.2430572509765625,-0.1608428955078125
0.9383697509765624,0.1600189208984375,-0.150726318359375
0.9865264892578124,0.1451263427734375,-0.14422607421875
1.0231170654296875,0.1953277587890625,-0.126556396484375
1.0289306640625,0.1917572021484375,-0.126800537109375
1.0323028564453125,0.1583709716796875,-0.1416473388671875
1.0245513916015625,0.1138458251953125,-0.1594085693359375
0.99737548828125,0.1595916748046875,-0.142181396484375
0.970062255859375,0.125823974609375,-0.094512939453125
1.0029754638671875,0.1664581298828125,-0.126007080078125
0.9829864501953124,0.1808929443359375,-0.135101318359375
0.9699554443359376,0.153564453125,-0.12744140625
0.958221435546875,0.14190673828125,-0.110626220703125
0.955902099609375,0.129608154296875,-0.1071014404296875
0.989959716796875,0.12298583984375,-0.11834716796875
0.9869537353515624,0.121368408203125,-0.1197662353515625
1.003753662109375,0.1021270751953125,-0.118988037109375
0.998779296875,0.1083831787109375,-0.109954833984375
0.996917724609375,0.1192626953125,-0.1116485595703125
0.9723052978515624,0.1120147705078125,-0.107208251953125
0.9990692138671876,0.101165771484375,-0.1254730224609375
0.9857940673828124,0.1091156005859375,-0.1045989990234375
1.0056610107421875,0.1212005615234375,-0.1168060302734375
0.9914398193359376,0.0944671630859375,-0.1110687255859375
0.984130859375,0.1024017333984375,-0.11309814453125
0.9935455322265624,0.108245849609375,-0.1061859130859375
1.000579833984375,0.091644287109375,-0.1191253662109375
0.9869537353515624,0.0997161865234375,-0.1042327880859375
1.0008392333984375,0.102325439453125,-0.0988311767578125
1.0138702392578125,0.1005706787109375,-0.1072235107421875
1.006134033203125,0.095367431640625,-0.1009368896484375
1.011016845703125,0.0921630859375,-0.0795745849609375
1.0315399169921875,0.0689544677734375,-0.085601806640625
1.050994873046875,0.06439208984375,-0.06915283203125
1.0486602783203125,0.06365966796875,-0.062042236328125
1.050994873046875,0.0307159423828125,-0.063201904296875
1.0545501708984375,0.0185699462890625,-0.048736572265625
1.030609130859375,0.010345458984375,-0.0478515625
1.0307769775390625,-0.0021820068359375,-0.0272369384765625
1.0084075927734375,-0.078277587890625,-0.0169525146484375
0.9993438720703124,-0.0687103271484375,-0.02484130859375
1.02105712890625,-0.0945281982421875,0.009521484375
0.976287841796875,-0.0986328125,0.0015716552734375
0.8838043212890625,-0.1280364990234375,0.0291900634765625
1.0896759033203125,0.02154541015625,-0.0528564453125
0.9399871826171876,0.0368194580078125,-0.066192626953125
1.0059356689453125,0.045013427734375,-0.1632232666015625
0.936370849609375,0.01043701171875,-0.111114501953125
0.918212890625,0.003662109375,-0.1671905517578125
0.9449462890625,-0.0051727294921875,-0.1354827880859375
0.94744873046875,0.0316314697265625,-0.152984619140625
0.86468505859375,0.1482086181640625,-0.3040618896484375
0.8203887939453125,0.2475128173828125,-0.3359527587890625
0.788360595703125,0.1554412841796875,-0.2686767578125
0.8742218017578125,0.21588134765625,-0.3276519775390625
0.8649139404296875,0.3261566162109375,-0.3187408447265625
0.77813720703125,0.32415771484375,-0.2874298095703125
0.8632965087890625,0.36773681640625,-0.2357025146484375
0.9398040771484376,0.400970458984375,-0.13299560546875
0.943145751953125,0.484100341796875,-0.1555023193359375
1.0205078125,0.401458740234375,-0.1793975830078125
1.0402069091796875,0.3536834716796875,-0.2367401123046875
1.0447235107421875,0.3155670166015625,-0.272918701171875
1.0677032470703125,0.305419921875,-0.2867431640625
1.05474853515625,0.22503662109375,-0.268829345703125
1.0257568359375,0.2371673583984375,-0.3555145263671875
1.0645599365234375,0.2029876708984375,-0.358673095703125
1.0914154052734375,0.185699462890625,-0.3783416748046875
1.168426513671875,0.347564697265625,-0.4873504638671875
1.099334716796875,0.2960205078125,-0.4260406494140625
1.1244049072265625,0.2336578369140625,-0.3325347900390625
0.961090087890625,0.082061767578125,-0.261444091796875
0.9140625,0.1941070556640625,-0.38360595703125
0.9820098876953124,0.3789825439453125,-0.3941802978515625
1.01788330078125,0.5050811767578125,-0.261260986328125
1.05096435546875,0.538177490234375,-0.1905517578125
1.0038909912109375,0.5382232666015625,-0.23663330078125
0.983184814453125,0.4752197265625,-0.178253173828125
0.922882080078125,0.5387420654296875,-0.18878173828125
0.876007080078125,0.521636962890625,-0.1650848388671875
0.8469696044921875,0.48663330078125,-0.1580657958984375
0.8195648193359375,0.3876800537109375,-0.1790313720703125
0.786529541015625,0.37518310546875,-0.227325439453125
0.7902069091796875,0.3744354248046875,-0.274688720703125
0.7667694091796875,0.3597259521484375,-0.3182525634765625
0.760498046875,0.356353759765625,-0.37640380859375
0.7721099853515625,0.4502105712890625,-0.452911376953125
0.9194793701171876,0.618072509765625,-0.5090179443359375
0.8359832763671875,0.57867431640625,-0.411376953125
0.8054351806640625,0.3860321044921875,-0.375732421875
0.886505126953125,0.3656158447265625,-0.370147705078125
0.8347320556640625,0.1845245361328125,-0.4986114501953125
0.8427581787109375,0.219635009765625,-0.5713958740234375
0.948822021484375,0.4090576171875,-0.37689208984375
1.0429534912109375,0.390625,-0.471038818359375
0.9167327880859376,0.310516357421875,-0.41522216796875
0.88519287109375,0.2766876220703125,-0.4283447265625
0.9205780029296876,0.2519989013671875,-0.4539947509765625
0.9355926513671876,0.2631072998046875,-0.4080810546875
0.920562744140625,0.2567291259765625,-0.35321044921875
0.90863037109375,0.2117919921875,-0.4119415283203125
0.920806884765625,0.1837158203125,-0.4821014404296875
0.9690399169921876,0.2607879638671875,-0.5054473876953125
1.0152435302734375,0.337921142578125,-0.455963134765625
0.982574462890625,0.3887786865234375,-0.42828369140625
0.9199676513671876,0.4247894287109375,-0.38311767578125
0.8330230712890625,0.411041259765625,-0.3223419189453125
0.803741455078125,0.4532470703125,-0.2989349365234375
0.8451995849609375,0.538055419921875,-0.3392181396484375
0.9309844970703124,0.580230712890625,-0.341827392578125
0.9729156494140624,0.513092041015625,-0.2784576416015625
0.9725189208984376,0.429107666015625,-0.24078369140625
0.9719696044921876,0.3965911865234375,-0.2572021484375
0.9644317626953124,0.4369049072265625,-0.2838287353515625
0.9522705078125,0.4980010986328125,-0.246124267578125
0.8865814208984375,0.5006256103515625,-0.2611846923828125
0.819305419921875,0.4894866943359375,-0.327789306640625
0.809051513671875,0.4905853271484375,-0.3834991455078125
0.8591156005859375,0.4553070068359375,-0.40350341796875
0.8402252197265625,0.4332275390625,-0.417572021484375
0.86669921875,0.439056396484375,-0.419952392578125
0.8610687255859375,0.4015960693359375,-0.4177093505859375
0.7976531982421875,0.3983306884765625,-0.4831390380859375
0.7585906982421875,0.4252166748046875,-0.53961181640625
0.7559814453125,0.4817047119140625,-0.5445556640625
0.786468505859375,0.486541748046875,-0.5000457763671875
0.762908935546875,0.4555511474609375,-0.4691162109375
0.708587646484375,0.382476806640625,-0.4980926513671875
0.660736083984375,0.285369873046875,-0.51190185546875
0.7284393310546875,0.2845611572265625,-0.54583740234375
0.8351898193359375,0.4470062255859375,-0.5725250244140625
0.841705322265625,0.4850311279296875,-0.5266265869140625
0.8103790283203125,0.3878173828125,-0.466156005859375
0.79736328125,0.3432464599609375,-0.5080108642578125
0.78717041015625,0.3482666015625,-0.5390777587890625
0.810211181640625,0.3630828857421875,-0.4977874755859375
0.817962646484375,0.341552734375,-0.475250244140625
0.8287506103515625,0.324615478515625,-0.4777069091796875
0.8217315673828125,0.2835235595703125,-0.4762420654296875
0.8246307373046875,0.2715606689453125,-0.4749298095703125
0.811798095703125,0.279815673828125,-0.4564208984375
0.8072967529296875,0.2672882080078125,-0.4233245849609375
0.819915771484375,0.29296875,-0.4208221435546875
0.8429107666015625,0.3079681396484375,-0.4083099365234375
0.9125213623046876,0.364593505859375,-0.4355621337890625
1.1481781005859375,0.60955810546875,-0.62103271484375
1.0550689697265625,0.419281005859375,-0.429107666015625
1.105560302734375,0.486114501953125,-0.49688720703125
0.9481964111328124,0.4513702392578125,-0.442413330078125
0.746368408203125,0.2462158203125,-0.3361663818359375
0.7856597900390625,0.41802978515625,-0.529541015625
0.86517333984375,0.622161865234375,-0.5599517822265625
0.903076171875,0.5987548828125,-0.4270477294921875
0.91204833984375,0.4902191162109375,-0.3836212158203125
0.8405303955078125,0.4123077392578125,-0.4606475830078125
0.763916015625,0.4244384765625,-0.4787139892578125
0.72705078125,0.42633056640625,-0.4466400146484375
0.6919403076171875,0.40582275390625,-0.4177093505859375
0.6484375,0.3914337158203125,-0.4132537841796875
0.6093902587890625,0.386444091796875,-0.4131317138671875
0.570953369140625,0.3572235107421875,-0.3929443359375
0.57861328125,0.387725830078125,-0.439117431640625
0.6277618408203125,0.42822265625,-0.491912841796875
0.755645751953125,0.5337677001953125,-0.6102752685546875
0.8673553466796875,0.613739013671875,-0.5956573486328125
0.9267425537109376,0.5037384033203125,-0.538604736328125
0.925048828125,0.5205535888671875,-0.542755126953125
0.8564300537109375,0.39697265625,-0.519134521484375
0.813812255859375,0.190582275390625,-0.4866943359375
0.92193603515625,0.22998046875,-0.61639404296875
1.015289306640625,0.4326324462890625,-0.6647186279296875
1.03668212890625,0.4593353271484375,-0.5130157470703125
0.93023681640625,0.3287811279296875,-0.38092041015625
0.80120849609375,0.2500152587890625,-0.4655914306640625
0.7655181884765625,0.2953643798828125,-0.537506103515625
0.82208251953125,0.3642730712890625,-0.48590087890625
0.8679962158203125,0.42474365234375,-0.3836517333984375
0.8449859619140625,0.4297027587890625,-0.372955322265625
0.889007568359375,0.421783447265625,-0.4310455322265625
0.891357421875,0.4956512451171875,-0.4315643310546875
0.854766845703125,0.5614013671875,-0.395599365234375
0.8323211669921875,0.581634521484375,-0.3749847412109375
0.8335723876953125,0.653076171875,-0.3448028564453125
0.7699127197265625,0.629638671875,-0.2527618408203125
0.7633209228515625,0.5637054443359375,-0.23065185546875
0.7719573974609375,0.60968017578125,-0.2471771240234375
0.7598876953125,0.64324951171875,-0.2261505126953125
0.7933502197265625,0.5913543701171875,-0.171661376953125
0.825469970703125,0.5490264892578125,-0.202880859375
0.83843994140625,0.51837158203125,-0.28741455078125
0.8819427490234375,0.4938507080078125,-0.3079376220703125
0.9233245849609376,0.48614501953125,-0.252105712890625
0.926239013671875,0.494232177734375,-0.2682647705078125
0.9336395263671876,0.4996490478515625,-0.3264007568359375
0.9336700439453124,0.482666015625,-0.34283447265625
0.89263916015625,0.4879608154296875,-0.3353424072265625
0.8538665771484375,0.4999542236328125,-0.3790740966796875
0.8765411376953125,0.4915924072265625,-0.403106689453125
0.87109375,0.54931640625,-0.4390106201171875
0.88140869140625,0.5505828857421875,-0.4116363525390625
0.8538818359375,0.549835205078125,-0.4169158935546875
0.8138275146484375,0.519775390625,-0.379486083984375
0.8139190673828125,0.4886474609375,-0.39691162109375
0.799163818359375,0.542388916015625,-0.47698974609375
0.8087158203125,0.64263916015625,-0.4993743896484375
0.717193603515625,0.6544952392578125,-0.3982086181640625
0.634033203125,0.4930419921875,-0.354949951171875
0.619049072265625,0.3503875732421875,-0.4105072021484375
0.614990234375,0.3581695556640625,-0.4574432373046875
0.6333770751953125,0.4144287109375,-0.4890289306640625
0.681488037109375,0.524200439453125,-0.5303955078125
0.7342529296875,0.53387451171875,-0.517852783203125
0.7162628173828125,0.4273681640625,-0.48699951171875
0.7087249755859375,0.3849334716796875,-0.526214599609375
0.7634124755859375,0.42315673828125,-0.5528411865234375
0.8087158203125,0.4416351318359375,-0.5180511474609375
0.8179473876953125,0.43597412109375,-0.4915924072265625
0.8053741455078125,0.411712646484375,-0.493743896484375
0.779876708984375,0.3852691650390625,-0.5009307861328125
0.7819366455078125,0.3990325927734375,-0.4682769775390625
0.767486572265625,0.407379150390625,-0.39422607421875
0.741973876953125,0.449737548828125,-0.4267578125
0.7803955078125,0.453948974609375,-0.5038909912109375
0.9266357421875,0.473419189453125,-0.6417388916015625
1.1268157958984375,0.584869384765625,-0.6673431396484375
1.0270538330078125,0.2508392333984375,-0.46881103515625
1.130584716796875,0.308258056640625,-0.5767669677734375
1.0001983642578125,0.3953094482421875,-0.5050201416015625
0.8265228271484375,0.3013763427734375,-0.424346923828125
0.8149261474609375,0.35125732421875,-0.589691162109375
0.84686279296875,0.59844970703125,-0.708587646484375
0.9014434814453124,0.6832427978515625,-0.614288330078125
0.9109649658203124,0.6171875,-0.515167236328125
0.8011322021484375,0.538055419921875,-0.5235748291015625
0.7310943603515625,0.5206451416015625,-0.5416717529296875
0.6826934814453125,0.533599853515625,-0.5287322998046875
0.6412506103515625,0.57781982421875,-0.5183258056640625
0.60479736328125,0.5518035888671875,-0.497955322265625
0.5793304443359375,0.506622314453125,-0.4803924560546875
0.551513671875,0.478790283203125,-0.4651031494140625
0.52508544921875,0.4749298095703125,-0.456817626953125
0.53619384765625,0.4758453369140625,-0.447967529296875
0.619232177734375,0.55419921875,-0.5018310546875
0.7685394287109375,0.6877899169921875,-0.510467529296875
0.909271240234375,0.8004913330078125,-0.4799957275390625
0.9952239990234376,0.8399658203125,-0.3994140625
1.0144500732421875,0.8229522705078125,-0.380859375
0.977691650390625,0.7232513427734375,-0.3283233642578125
0.945770263671875,0.64715576171875,-0.290435791015625
0.922576904296875,0.63873291015625,-0.30377197265625
0.921905517578125,0.6440582275390625,-0.3202972412109375
0.92645263671875,0.6433868408203125,-0.319610595703125
0.8920440673828125,0.67608642578125,-0.2969818115234375
0.8146514892578125,0.66278076171875,-0.23907470703125
0.747161865234375,0.6241912841796875,-0.2442169189453125
0.73394775390625,0.6043853759765625,-0.2996826171875
0.7761993408203125,0.581207275390625,-0.3291473388671875
0.8141326904296875,0.5933990478515625,-0.2813568115234375
0.8928070068359375,0.6047821044921875,-0.238922119140625
0.9451141357421876,0.5559539794921875,-0.3384246826171875
0.9351959228515624,0.5757598876953125,-0.4210662841796875
0.8896942138671875,0.52227783203125,-0.4321441650390625
0.878631591796875,0.455413818359375,-0.5507965087890625
0.8785247802734375,0.3883514404296875,-0.55810546875
0.8979644775390625,0.3871307373046875,-0.5774688720703125
0.9315032958984376,0.319305419921875,-0.5569610595703125
0.9541015625,0.2649078369140625,-0.5482177734375
0.9745941162109376,0.269012451171875,-0.57550048828125
0.97998046875,0.3043060302734375,-0.6282501220703125
0.96240234375,0.3466796875,-0.607421875
1.0102081298828125,0.4934234619140625,-0.662994384765625
0.962921142578125,0.482574462890625,-0.63031005859375
0.8449859619140625,0.4178924560546875,-0.5612335205078125
0.7892608642578125,0.4416656494140625,-0.5925445556640625
0.8408966064453125,0.62603759765625,-0.6629791259765625
0.8299407958984375,0.726898193359375,-0.6515655517578125
0.8182373046875,0.651031494140625,-0.5387725830078125
0.770843505859375,0.58349609375,-0.509765625
0.7204132080078125,0.531768798828125,-0.5099334716796875
0.6887664794921875,0.5257415771484375,-0.4678497314453125
0.641876220703125,0.51947021484375,-0.4010772705078125
0.5861663818359375,0.502044677734375,-0.359039306640625
0.527313232421875,0.47027587890625,-0.34234619140625
0.4877777099609375,0.4622802734375,-0.3616943359375
0.4875640869140625,0.46453857421875,-0.3992156982421875
0.5661163330078125,0.4839324951171875,-0.4644012451171875
0.6629180908203125,0.5017242431640625,-0.5325775146484375
0.808349609375,0.494720458984375,-0.6570892333984375
1.03106689453125,0.6657257080078125,-0.8702850341796875
1.0895233154296875,0.6223297119140625,-0.7379608154296875
0.9986419677734376,0.5198974609375,-0.5857696533203125
0.8287811279296875,0.34442138671875,-0.489013671875
0.73126220703125,0.090484619140625,-0.4563446044921875
0.7597808837890625,0.1219940185546875,-0.6093292236328125
0.8114166259765625,0.3810577392578125,-0.680328369140625
0.8780670166015625,0.51739501953125,-0.591552734375
0.8589630126953125,0.4014892578125,-0.4993438720703125
0.8406982421875,0.271240234375,-0.5175018310546875
0.782745361328125,0.3417816162109375,-0.532135009765625
0.7846832275390625,0.43463134765625,-0.4674072265625
0.8031463623046875,0.4782562255859375,-0.423553466796875
0.788482666015625,0.4929962158203125,-0.4256134033203125
0.766265869140625,0.4857940673828125,-0.44293212890625
0.7493133544921875,0.4844970703125,-0.4437103271484375
0.7545318603515625,0.510528564453125,-0.430450439453125
0.7798309326171875,0.5789337158203125,-0.455169677734375
0.8773651123046875,0.6974334716796875,-0.51763916015625
0.8978118896484375,0.65118408203125,-0.466705322265625
0.8603515625,0.4584197998046875,-0.3675689697265625
0.8114776611328125,0.4614105224609375,-0.40228271484375
0.7743377685546875,0.5433197021484375,-0.3894195556640625
0.7919921875,0.5542144775390625,-0.305938720703125
0.7689056396484375,0.5733642578125,-0.2598876953125
0.80120849609375,0.6511383056640625,-0.2740478515625
0.788848876953125,0.6569976806640625,-0.2629547119140625
0.8404388427734375,0.604339599609375,-0.2719268798828125
0.8972930908203125,0.5232696533203125,-0.24267578125
0.9420166015625,0.492767333984375,-0.2318878173828125
0.9680328369140624,0.51727294921875,-0.222808837890625
0.9528350830078124,0.58197021484375,-0.2525482177734375
0.9119110107421876,0.61138916015625,-0.304840087890625
0.8927764892578125,0.6427001953125,-0.35626220703125
0.8691253662109375,0.64154052734375,-0.3783416748046875
0.893951416015625,0.65234375,-0.4496002197265625
0.863189697265625,0.647735595703125,-0.4487457275390625
0.83892822265625,0.64306640625,-0.4952850341796875
0.802764892578125,0.5969696044921875,-0.5577545166015625
0.7847137451171875,0.6112518310546875,-0.6245269775390625
0.743377685546875,0.6793975830078125,-0.6377716064453125
0.7078704833984375,0.638702392578125,-0.513031005859375
0.658294677734375,0.61175537109375,-0.450469970703125
0.5913848876953125,0.521148681640625,-0.4560699462890625
0.579559326171875,0.3325958251953125,-0.4819183349609375
0.63897705078125,0.331878662109375,-0.5750579833984375
0.721832275390625,0.501617431640625,-0.6354522705078125
0.762939453125,0.612213134765625,-0.5826873779296875
0.731964111328125,0.472991943359375,-0.4654083251953125
0.6812896728515625,0.3311767578125,-0.4861907958984375
0.64862060546875,0.35589599609375,-0.569244384765625
0.64801025390625,0.4293060302734375,-0.557403564453125
0.668609619140625,0.4779205322265625,-0.469146728515625
0.6599578857421875,0.4622650146484375,-0.428955078125
0.657958984375,0.436065673828125,-0.44647216796875
0.6751251220703125,0.4290618896484375,-0.4557342529296875
0.69842529296875,0.459869384765625,-0.439361572265625
0.762359619140625,0.53460693359375,-0.45672607421875
0.8591766357421875,0.6005706787109375,-0.483154296875
0.980194091796875,0.6223907470703125,-0.5355072021484375
1.016204833984375,0.5979766845703125,-0.536895751953125
0.921295166015625,0.4075927734375,-0.4833984375
0.95050048828125,0.48626708984375,-0.62457275390625
0.8978729248046875,0.4403228759765625,-0.543243408203125
0.8086395263671875,0.2950286865234375,-0.416839599609375
0.725738525390625,0.2403106689453125,-0.44354248046875
0.80206298828125,0.3758392333984375,-0.6026458740234375
0.885894775390625,0.533203125,-0.6354217529296875
0.9217376708984376,0.5559234619140625,-0.5440216064453125
0.8643341064453125,0.4744720458984375,-0.4564361572265625
0.7837066650390625,0.42059326171875,-0.47784423828125
0.7595977783203125,0.461517333984375,-0.530517578125
0.7550506591796875,0.5621795654296875,-0.5384368896484375
0.737274169921875,0.62017822265625,-0.5117645263671875
0.7474365234375,0.639007568359375,-0.5262908935546875
0.682403564453125,0.5811309814453125,-0.531036376953125
0.609832763671875,0.5070648193359375,-0.4981231689453125
0.5721282958984375,0.483917236328125,-0.475006103515625
0.5410919189453125,0.5223388671875,-0.490386962890625
0.5678558349609375,0.5805816650390625,-0.4475860595703125
0.6520233154296875,0.628387451171875,-0.3786163330078125
0.757110595703125,0.8040618896484375,-0.4943389892578125
0.6933135986328125,0.7545623779296875,-0.446746826171875
0.7350616455078125,0.5733489990234375,-0.2885894775390625
0.8054656982421875,0.6441192626953125,-0.3452911376953125
0.85211181640625,0.6362457275390625,-0.3932647705078125
0.9376983642578124,0.5102081298828125,-0.377838134765625
0.93487548828125,0.4624786376953125,-0.340362548828125
0.9205474853515624,0.5120391845703125,-0.415008544921875
0.8636322021484375,0.537841796875,-0.449066162109375
0.8332061767578125,0.4820709228515625,-0.3954925537109375
0.7852020263671875,0.468109130859375,-0.409698486328125
0.75982666015625,0.4287261962890625,-0.434906005859375
0.7773284912109375,0.4417724609375,-0.4859161376953125
0.8039398193359375,0.471710205078125,-0.5399322509765625
0.7578887939453125,0.480987548828125,-0.5667877197265625
0.6516876220703125,0.4117584228515625,-0.5204315185546875
0.6197357177734375,0.3663787841796875,-0.5321197509765625
0.665496826171875,0.4051055908203125,-0.5679779052734375
0.7229156494140625,0.4201812744140625,-0.543792724609375
0.717315673828125,0.43145751953125,-0.516204833984375
0.7241363525390625,0.4623260498046875,-0.5183563232421875
0.768646240234375,0.466156005859375,-0.517364501953125
0.7923736572265625,0.4674224853515625,-0.455718994140625
0.8286590576171875,0.502593994140625,-0.455474853515625
0.8498992919921875,0.5233917236328125,-0.4231719970703125
0.8146514892578125,0.541015625,-0.369293212890625
0.7776641845703125,0.5904083251953125,-0.44366455078125
0.735992431640625,0.5911407470703125,-0.4390411376953125
0.6959075927734375,0.5541229248046875,-0.375640869140625
0.6963958740234375,0.484344482421875,-0.367767333984375
0.7070465087890625,0.5239410400390625,-0.4171905517578125
0.7679443359375,0.4752044677734375,-0.360595703125
0.785552978515625,0.4423065185546875,-0.413818359375
0.8838653564453125,0.33636474609375,-0.425079345703125
0.9651336669921876,0.238555908203125,-0.3677978515625
0.968719482421875,0.207122802734375,-0.359710693359375
0.9333648681640624,0.1905364990234375,-0.36279296875
0.92718505859375,0.22760009765625,-0.37481689453125
0.9196624755859376,0.2916717529296875,-0.41943359375
0.968658447265625,0.2655029296875,-0.402557373046875
1.0126495361328125,0.412841796875,-0.496612548828125
1.0023345947265625,0.4219970703125,-0.4290924072265625
0.9272918701171876,0.363555908203125,-0.38592529296875
0.839996337890625,0.299896240234375,-0.4508056640625
0.80517578125,0.2830810546875,-0.4180450439453125
0.7988433837890625,0.21588134765625,-0.387664794921875
0.84521484375,0.3375091552734375,-0.5551910400390625
0.904052734375,0.4597320556640625,-0.570556640625
0.871124267578125,0.4559326171875,-0.4205169677734375
0.758392333984375,0.3356781005859375,-0.3441009521484375
0.7398834228515625,0.2913360595703125,-0.4295196533203125
0.7444610595703125,0.2823638916015625,-0.504119873046875
0.7634735107421875,0.301605224609375,-0.451904296875
0.7590789794921875,0.3107147216796875,-0.3683929443359375
0.7407989501953125,0.2672119140625,-0.3856964111328125
0.7470703125,0.2223663330078125,-0.4135284423828125
0.77301025390625,0.209320068359375,-0.4167022705078125
0.80987548828125,0.234588623046875,-0.45361328125
0.855987548828125,0.260009765625,-0.4290924072265625
0.8870391845703125,0.308074951171875,-0.43353271484375
0.9154815673828124,0.3184661865234375,-0.4680023193359375
0.91009521484375,0.39959716796875,-0.5055694580078125
0.886505126953125,0.4202423095703125,-0.4848785400390625
0.86285400390625,0.456634521484375,-0.497222900390625
0.8563232421875,0.49072265625,-0.468841552734375
0.8004302978515625,0.4406585693359375,-0.348724365234375
0.782501220703125,0.39044189453125,-0.3440399169921875
0.8458709716796875,0.5232391357421875,-0.4830169677734375
0.85882568359375,0.545562744140625,-0.447784423828125
0.876678466796875,0.5775146484375,-0.39752197265625
0.7703857421875,0.5503692626953125,-0.3274993896484375
0.7698974609375,0.50054931640625,-0.392852783203125
0.78607177734375,0.49737548828125,-0.44293212890625
0.7962493896484375,0.521697998046875,-0.4173583984375
0.8017730712890625,0.4895477294921875,-0.38934326171875
0.7972564697265625,0.5072784423828125,-0.38409423828125
0.7991790771484375,0.5614013671875,-0.416015625
0.7787322998046875,0.5772857666015625,-0.435943603515625
0.8064727783203125,0.5679473876953125,-0.4741363525390625
0.824493408203125,0.6204833984375,-0.4904327392578125
0.778656005859375,0.60247802734375,-0.391448974609375
0.7200164794921875,0.556365966796875,-0.3448944091796875
0.7772216796875,0.535400390625,-0.366607666015625
0.8137054443359375,0.4893035888671875,-0.315185546875
0.81475830078125,0.4324188232421875,-0.3304901123046875
0.8552398681640625,0.4019622802734375,-0.324432373046875
0.85968017578125,0.3888397216796875,-0.307220458984375
0.856597900390625,0.431396484375,-0.3139801025390625
0.8643035888671875,0.4075469970703125,-0.240875244140625
0.84661865234375,0.3983001708984375,-0.231353759765625
0.8368377685546875,0.3975372314453125,-0.253814697265625
0.8298797607421875,0.4179229736328125,-0.3011016845703125
0.833221435546875,0.3712310791015625,-0.1962890625
0.8744964599609375,0.374664306640625,-0.2431640625
0.905181884765625,0.3736419677734375,-0.2318267822265625
0.89825439453125,0.377197265625,-0.274322509765625
0.9030303955078124,0.3620147705078125,-0.293792724609375
0.8824005126953125,0.3571014404296875,-0.2830657958984375
0.8714752197265625,0.3671875,-0.3467254638671875
0.8358612060546875,0.36669921875,-0.2782135009765625
0.89068603515625,0.370391845703125,-0.3556060791015625
0.847686767578125,0.4109344482421875,-0.3925018310546875
0.8831939697265625,0.3643798828125,-0.3602142333984375
0.8812103271484375,0.35394287109375,-0.461639404296875
0.8386993408203125,0.4384765625,-0.440216064453125
0.842193603515625,0.4430999755859375,-0.4338531494140625
0.81402587890625,0.448028564453125,-0.47003173828125
0.819366455078125,0.4134368896484375,-0.38671875
0.85565185546875,0.3930816650390625,-0.4518890380859375
0.826385498046875,0.4163818359375,-0.55242919921875
0.7817535400390625,0.427764892578125,-0.4849090576171875
0.7551727294921875,0.369171142578125,-0.4397125244140625
0.7704620361328125,0.3504791259765625,-0.4435577392578125
0.7935638427734375,0.3665008544921875,-0.4366455078125
0.7935638427734375,0.3801116943359375,-0.468780517578125
0.78271484375,0.3819427490234375,-0.4319000244140625
0.7782135009765625,0.336883544921875,-0.4144287109375
0.7945404052734375,0.30987548828125,-0.4232177734375
0.81671142578125,0.325347900390625,-0.4358978271484375
0.832000732421875,0.346435546875,-0.4765167236328125
0.8467254638671875,0.318359375,-0.42938232421875
0.922943115234375,0.31427001953125,-0.525238037109375
0.766021728515625,0.2911834716796875,-0.5906982421875
0.72479248046875,0.3930206298828125,-0.541748046875
0.711273193359375,0.4163360595703125,-0.5682525634765625
0.693023681640625,0.39691162109375,-0.5258636474609375
0.700714111328125,0.33392333984375,-0.4212188720703125
0.768890380859375,0.327056884765625,-0.4333038330078125
0.9052734375,0.4205474853515625,-0.480377197265625
0.967254638671875,0.48480224609375,-0.5145263671875
0.9089813232421876,0.447509765625,-0.378326416015625
0.8087158203125,0.3850555419921875,-0.3472442626953125
0.7934417724609375,0.3661651611328125,-0.434600830078125
0.827728271484375,0.4201812744140625,-0.4715728759765625
0.805419921875,0.473114013671875,-0.420135498046875
0.7311248779296875,0.4821014404296875,-0.383392333984375
0.7397613525390625,0.425445556640625,-0.393524169921875
0.7498321533203125,0.407012939453125,-0.4182281494140625
0.74896240234375,0.41546630859375,-0.410125732421875
0.7802886962890625,0.4370574951171875,-0.41778564453125
0.823394775390625,0.4623870849609375,-0.4220428466796875
0.854766845703125,0.4463958740234375,-0.422332763671875
0.894317626953125,0.4495849609375,-0.4607696533203125
1.0259246826171875,0.592132568359375,-0.600677490234375
0.9388885498046876,0.444580078125,-0.5290985107421875
0.926239013671875,0.48345947265625,-0.5795745849609375
0.879730224609375,0.4932098388671875,-0.536865234375
0.806304931640625,0.4042816162109375,-0.4348907470703125
0.755279541015625,0.3657073974609375,-0.4202117919921875
0.85009765625,0.481109619140625,-0.5782623291015625
0.8917694091796875,0.6918182373046875,-0.666778564453125
0.7956390380859375,0.697509765625,-0.5538177490234375
0.7668609619140625,0.5501861572265625,-0.48992919921875
0.7110443115234375,0.513427734375,-0.528839111328125
0.653656005859375,0.511016845703125,-0.5548858642578125
0.6138763427734375,0.51861572265625,-0.54913330078125
0.561676025390625,0.5124359130859375,-0.509857177734375
0.528961181640625,0.453125,-0.5175018310546875
0.55743408203125,0.44891357421875,-0.5667266845703125
0.64324951171875,0.523529052734375,-0.4952392578125
0.7270965576171875,0.5609893798828125,-0.4766845703125
0.83502197265625,0.627227783203125,-0.549285888671875
0.9025726318359376,0.7558135986328125,-0.5601959228515625
0.887481689453125,0.70263671875,-0.461090087890625
0.850250244140625,0.61773681640625,-0.359649658203125
0.8678741455078125,0.5682220458984375,-0.265655517578125
0.907684326171875,0.5602569580078125,-0.3226776123046875
0.95947265625,0.5794525146484375,-0.391754150390625
1.0273284912109375,0.6202392578125,-0.410400390625
1.03704833984375,0.6724700927734375,-0.3584136962890625
0.94647216796875,0.6205291748046875,-0.25592041015625
0.8353729248046875,0.537322998046875,-0.2433624267578125
0.7777862548828125,0.4982452392578125,-0.2925262451171875
0.7587890625,0.544403076171875,-0.3444976806640625
0.72857666015625,0.6376190185546875,-0.3307037353515625
0.777618408203125,0.675750732421875,-0.2720794677734375
1.0223236083984375,0.562225341796875,-0.2048797607421875
1.0734710693359375,0.3173370361328125,-0.2964324951171875
1.1334991455078125,0.25628662109375,-0.40899658203125
1.1458740234375,0.1776580810546875,-0.46453857421875
1.1686248779296875,0.1925048828125,-0.4244537353515625
1.1778106689453125,0.2501983642578125,-0.47540283203125
1.24005126953125,0.346405029296875,-0.617889404296875
1.23187255859375,0.41461181640625,-0.5918426513671875
1.1872100830078125,0.4104766845703125,-0.587799072265625
1.0228271484375,0.376129150390625,-0.52197265625
0.86065673828125,0.4076080322265625,-0.529052734375
0.795379638671875,0.47406005859375,-0.519439697265625
0.85369873046875,0.63214111328125,-0.5135040283203125
0.8630828857421875,0.780242919921875,-0.5504150390625
0.817169189453125,0.7589263916015625,-0.54412841796875
0.788848876953125,0.6374664306640625,-0.481292724609375
0.7162322998046875,0.4933013916015625,-0.420501708984375
0.6672821044921875,0.4599151611328125,-0.4291229248046875
0.6030426025390625,0.4794464111328125,-0.4238433837890625
0.5247344970703125,0.489593505859375,-0.3833465576171875
0.4839324951171875,0.44873046875,-0.3539276123046875
0.47161865234375,0.4324798583984375,-0.4085693359375
0.47406005859375,0.3954010009765625,-0.4213104248046875
0.5695953369140625,0.3845062255859375,-0.444732666015625
0.6335601806640625,0.38995361328125,-0.4792633056640625
0.786956787109375,0.4933319091796875,-0.574310302734375
0.98883056640625,0.6136627197265625,-0.673065185546875
1.271148681640625,0.9121856689453124,-0.7743377685546875
1.2379608154296875,0.819488525390625,-0.4311370849609375
1.13494873046875,0.5913848876953125,-0.275909423828125
0.86126708984375,0.3535614013671875,-0.3119659423828125
0.7133026123046875,0.1436614990234375,-0.3485870361328125
0.75958251953125,0.19989013671875,-0.43402099609375
0.827301025390625,0.4764556884765625,-0.4976654052734375
0.86126708984375,0.6384124755859375,-0.433258056640625
0.826812744140625,0.561248779296875,-0.3339080810546875
0.7830963134765625,0.3790435791015625,-0.364990234375
0.7855072021484375,0.36053466796875,-0.4771575927734375
0.8000335693359375,0.416534423828125,-0.4538421630859375
0.8454742431640625,0.4875640869140625,-0.3805694580078125
0.8379974365234375,0.5121307373046875,-0.3616485595703125
0.78228759765625,0.4690704345703125,-0.3838043212890625
0.7520294189453125,0.463287353515625,-0.422393798828125
0.760040283203125,0.4866485595703125,-0.4111175537109375
0.7934112548828125,0.563629150390625,-0.3788909912109375
0.8555450439453125,0.6531982421875,-0.3997955322265625
0.948028564453125,0.742156982421875,-0.41815185546875
0.88665771484375,0.59625244140625,-0.2746429443359375
0.8484039306640625,0.5164947509765625,-0.312103271484375
0.8252410888671875,0.59735107421875,-0.4242706298828125
0.7909698486328125,0.5824127197265625,-0.3524322509765625
0.7603607177734375,0.502777099609375,-0.2379302978515625
0.734954833984375,0.5368194580078125,-0.28460693359375
0.81304931640625,0.608856201171875,-0.3078460693359375
0.87646484375,0.6120758056640625,-0.25592041015625
0.942169189453125,0.5942535400390625,-0.157196044921875
0.921112060546875,0.5538482666015625,-0.105224609375
0.89739990234375,0.5851593017578125,-0.127899169921875
0.842315673828125,0.616424560546875,-0.1612091064453125
0.82916259765625,0.6334228515625,-0.193817138671875
0.8236083984375,0.6331787109375,-0.2300567626953125
0.82427978515625,0.59954833984375,-0.25067138671875
0.81732177734375,0.561126708984375,-0.29376220703125
0.822357177734375,0.5651092529296875,-0.340362548828125
0.8329010009765625,0.589202880859375,-0.394927978515625
0.8363494873046875,0.6324462890625,-0.4431915283203125
0.8149871826171875,0.631805419921875,-0.411590576171875
0.8323822021484375,0.6457061767578125,-0.4538116455078125
0.8609771728515625,0.6792144775390625,-0.5659637451171875
0.814788818359375,0.7151031494140625,-0.5550079345703125
0.7840576171875,0.591033935546875,-0.5035400390625
0.7046661376953125,0.396331787109375,-0.51239013671875
0.6422271728515625,0.366912841796875,-0.5784454345703125
0.651275634765625,0.5020904541015625,-0.6021270751953125
0.6689453125,0.6307220458984375,-0.5630340576171875
0.62738037109375,0.7186279296875,-0.4184112548828125
0.615081787109375,0.617431640625,-0.42138671875
0.607421875,0.5377655029296875,-0.3598175048828125
0.6085357666015625,0.48956298828125,-0.3344268798828125
0.615020751953125,0.5411529541015625,-0.337493896484375
0.6181793212890625,0.6225738525390625,-0.3348846435546875
0.59613037109375,0.6146087646484375,-0.3259429931640625
0.57781982421875,0.594451904296875,-0.3636322021484375
0.612823486328125,0.5961761474609375,-0.3831634521484375
0.68841552734375,0.574859619140625,-0.3903350830078125
0.794219970703125,0.6366729736328125,-0.4396820068359375
0.8854217529296875,0.660675048828125,-0.469085693359375
0.9991912841796876,0.6658782958984375,-0.52764892578125
1.0550689697265625,0.7217254638671875,-0.5161895751953125
0.9461822509765624,0.527313232421875,-0.3938751220703125
0.9524993896484376,0.59417724609375,-0.521728515625
0.8220672607421875,0.4808349609375,-0.4510498046875
0.716400146484375,0.3147125244140625,-0.3860321044921875
0.6894683837890625,0.3013916015625,-0.4604949951171875
0.7667694091796875,0.48724365234375,-0.6342010498046875
0.90057373046875,0.6904754638671875,-0.6208953857421875
0.9164276123046876,0.65203857421875,-0.3940277099609375
0.849365234375,0.5324554443359375,-0.2896728515625
0.7799835205078125,0.5480804443359375,-0.3565521240234375
0.7335052490234375,0.5854644775390625,-0.4175262451171875
0.724212646484375,0.6295166015625,-0.453765869140625
0.715240478515625,0.6843414306640625,-0.39727783203125
0.681427001953125,0.6960296630859375,-0.308319091796875
0.6351318359375,0.6628570556640625,-0.2540130615234375
0.617218017578125,0.6340179443359375,-0.2733154296875
0.606719970703125,0.622772216796875,-0.337310791015625
0.6032257080078125,0.60009765625,-0.3992156982421875
0.608856201171875,0.56884765625,-0.4459686279296875
0.61456298828125,0.5402069091796875,-0.488739013671875
0.6739654541015625,0.5476837158203125,-0.530609130859375
0.78076171875,0.570953369140625,-0.57708740234375
0.8385009765625,0.5660247802734375,-0.576995849609375
0.8718109130859375,0.53546142578125,-0.51873779296875
0.87152099609375,0.45257568359375,-0.505767822265625
0.81146240234375,0.471954345703125,-0.5724639892578125
0.8363037109375,0.5517578125,-0.670501708984375
0.8554229736328125,0.542633056640625,-0.6635284423828125
0.8421630859375,0.3873748779296875,-0.5139312744140625
0.8398590087890625,0.3226318359375,-0.532867431640625
0.82183837890625,0.286590576171875,-0.565704345703125
0.7946319580078125,0.220489501953125,-0.4303131103515625
0.8247528076171875,0.34820556640625,-0.4127960205078125
1.014190673828125,0.64599609375,-0.43353271484375
1.1011810302734375,0.7751007080078125,-0.3480987548828125
1.0569000244140625,0.68719482421875,-0.2124481201171875
0.9810943603515624,0.6319427490234375,-0.2362518310546875
0.9398193359375,0.7039947509765625,-0.3391876220703125
0.959564208984375,0.7662811279296875,-0.340118408203125
0.9901885986328124,0.71502685546875,-0.2607879638671875
1.0037689208984375,0.6776885986328125,-0.207122802734375
0.9450836181640624,0.668121337890625,-0.2012939453125
0.86431884765625,0.6979217529296875,-0.24298095703125
0.828948974609375,0.6834259033203125,-0.216705322265625
0.7605743408203125,0.662322998046875,-0.2032470703125
0.678375244140625,0.6701507568359375,-0.2188262939453125
0.638641357421875,0.6381072998046875,-0.286041259765625
0.6260528564453125,0.592071533203125,-0.3428192138671875
0.7244873046875,0.52154541015625,-0.41802978515625
0.7489776611328125,0.484039306640625,-0.487335205078125
0.8139190673828125,0.5358734130859375,-0.54742431640625
0.850860595703125,0.5601959228515625,-0.5366973876953125
0.895843505859375,0.4516448974609375,-0.4578704833984375
0.9573211669921876,0.5862274169921875,-0.579071044921875
0.915679931640625,0.44854736328125,-0.432647705078125
0.876983642578125,0.3733062744140625,-0.3853759765625
0.8919525146484375,0.5436553955078125,-0.5711822509765625
0.863525390625,0.6332244873046875,-0.52880859375
0.870452880859375,0.521514892578125,-0.404754638671875
0.8356781005859375,0.429779052734375,-0.3924713134765625
0.78302001953125,0.4373016357421875,-0.39129638671875
0.740753173828125,0.4799652099609375,-0.3582611083984375
0.6925811767578125,0.5338134765625,-0.36102294921875
0.65252685546875,0.552886962890625,-0.39300537109375
0.635498046875,0.49493408203125,-0.36907958984375
0.6346588134765625,0.46051025390625,-0.3732452392578125
0.6334991455078125,0.461578369140625,-0.4145050048828125
0.6454315185546875,0.4918975830078125,-0.4429473876953125
0.666351318359375,0.561065673828125,-0.4554290771484375
0.695220947265625,0.6274566650390625,-0.4674530029296875
0.8076324462890625,0.813018798828125,-0.633056640625
0.818145751953125,0.8372955322265625,-0.4985809326171875
0.9201812744140624,0.7152862548828125,-0.4355010986328125
0.90850830078125,0.690521240234375,-0.46441650390625
0.821563720703125,0.5160369873046875,-0.4219970703125
0.816009521484375,0.288421630859375,-0.3758544921875
0.86334228515625,0.293914794921875,-0.4891204833984375
0.8803558349609375,0.549102783203125,-0.5440216064453125
0.772674560546875,0.6084442138671875,-0.45501708984375
0.72052001953125,0.409423828125,-0.4197998046875
0.71868896484375,0.27874755859375,-0.4892578125
0.69244384765625,0.4002227783203125,-0.59246826171875
0.6884002685546875,0.53289794921875,-0.57147216796875
0.7350006103515625,0.537872314453125,-0.4839324951171875
0.74591064453125,0.52252197265625,-0.4386138916015625
0.707305908203125,0.4727630615234375,-0.4090423583984375
0.7173004150390625,0.5012664794921875,-0.435394287109375
0.745208740234375,0.5719451904296875,-0.4515228271484375
0.87103271484375,0.7648468017578125,-0.5615692138671875
0.889556884765625,0.8782958984375,-0.495574951171875
0.824127197265625,0.56243896484375,-0.3371734619140625
0.844940185546875,0.431365966796875,-0.403350830078125
0.7608642578125,0.4499664306640625,-0.4241790771484375
0.7219390869140625,0.527679443359375,-0.36529541015625
0.76214599609375,0.636810302734375,-0.3384552001953125
0.7868194580078125,0.7149505615234375,-0.3397064208984375
0.8116607666015625,0.676849365234375,-0.315948486328125
0.844696044921875,0.584686279296875,-0.3053741455078125
0.88970947265625,0.5159759521484375,-0.335113525390625
0.9528656005859376,0.5696258544921875,-0.38397216796875
0.9432525634765624,0.6172027587890625,-0.31390380859375
0.9169464111328124,0.6436004638671875,-0.2554168701171875
0.87640380859375,0.692047119140625,-0.2941741943359375
0.8345184326171875,0.712127685546875,-0.3365631103515625
0.799835205078125,0.7044525146484375,-0.3751373291015625
0.7637939453125,0.707427978515625,-0.4040374755859375
0.7373504638671875,0.6749114990234375,-0.4027862548828125
0.735382080078125,0.6530609130859375,-0.4214935302734375
0.7049560546875,0.643707275390625,-0.46142578125
0.646514892578125,0.6145172119140625,-0.4999542236328125
0.6470489501953125,0.5985565185546875,-0.5696868896484375
0.64227294921875,0.520782470703125,-0.64892578125
0.5633392333984375,0.5291900634765625,-0.660125732421875
0.5836639404296875,0.465789794921875,-0.55706787109375
0.6679840087890625,0.409454345703125,-0.5433502197265625
0.6983642578125,0.47784423828125,-0.6201324462890625
0.6966552734375,0.41729736328125,-0.5892333984375
0.7174224853515625,0.4240264892578125,-0.6315765380859375
0.7079315185546875,0.4800567626953125,-0.668182373046875
0.693511962890625,0.4475555419921875,-0.6066131591796875
0.7068939208984375,0.4124603271484375,-0.57879638671875
0.68267822265625,0.4503021240234375,-0.576202392578125
0.6905975341796875,0.4451141357421875,-0.543365478515625
0.69927978515625,0.4474029541015625,-0.527862548828125
0.6994781494140625,0.4529266357421875,-0.515838623046875
0.7213287353515625,0.4467620849609375,-0.5210723876953125
0.7508544921875,0.4210205078125,-0.49908447265625
0.7837371826171875,0.4353485107421875,-0.5100860595703125
0.813232421875,0.419677734375,-0.50299072265625
0.832550048828125,0.393829345703125,-0.5205535888671875
0.8528900146484375,0.3855133056640625,-0.54486083984375
0.8658599853515625,0.382476806640625,-0.555206298828125
0.9670562744140624,0.4737396240234375,-0.6109771728515625
1.0000762939453125,0.5080108642578125,-0.6037750244140625
0.9607696533203124,0.440643310546875,-0.533447265625
1.0058135986328125,0.5789947509765625,-0.662139892578125
0.903472900390625,0.4968109130859375,-0.5401611328125
0.782379150390625,0.340576171875,-0.43194580078125
0.8042755126953125,0.478179931640625,-0.589111328125
0.8413543701171875,0.708770751953125,-0.6955108642578125
0.8372650146484375,0.816558837890625,-0.629119873046875
0.791778564453125,0.6845703125,-0.497100830078125
0.727935791015625,0.5899200439453125,-0.4651031494140625
0.6721954345703125,0.5724334716796875,-0.4781341552734375
0.625701904296875,0.5686187744140625,-0.4838104248046875
0.5783843994140625,0.5706634521484375,-0.47454833984375
0.5460968017578125,0.563262939453125,-0.4489288330078125
0.5337982177734375,0.5550994873046875,-0.44427490234375
0.5227203369140625,0.5516510009765625,-0.4328765869140625
0.544342041015625,0.540313720703125,-0.44903564453125
0.6649169921875,0.523681640625,-0.458465576171875
0.75238037109375,0.5813140869140625,-0.442047119140625
0.8421630859375,0.7008056640625,-0.5105743408203125
0.9031829833984376,0.76300048828125,-0.45404052734375
0.9414215087890624,0.732574462890625,-0.306121826171875
0.9912261962890624,0.7450714111328125,-0.23773193359375
1.039031982421875,0.74725341796875,-0.2405853271484375
1.0392608642578125,0.6909027099609375,-0.2155609130859375
0.969940185546875,0.5959930419921875,-0.175537109375
0.879302978515625,0.6025390625,-0.222686767578125
0.8347015380859375,0.6030426025390625,-0.248687744140625
0.8346099853515625,0.615203857421875,-0.2382049560546875
0.8158416748046875,0.606689453125,-0.224212646484375
0.7787933349609375,0.5785675048828125,-0.2043304443359375
0.74151611328125,0.5440826416015625,-0.2558746337890625
0.7230377197265625,0.4987640380859375,-0.305816650390625
0.7436676025390625,0.50299072265625,-0.37481689453125
0.823394775390625,0.515289306640625,-0.4623260498046875
0.8793792724609375,0.51971435546875,-0.47113037109375
0.9251556396484376,0.5074462890625,-0.4755096435546875
0.9383087158203124,0.434295654296875,-0.5786895751953125
0.9208221435546876,0.373779296875,-0.6531982421875
0.9195709228515624,0.3084869384765625,-0.6356964111328125
0.9224853515625,0.2801666259765625,-0.5792999267578125
0.8981781005859375,0.282470703125,-0.5450592041015625
0.8506622314453125,0.3054351806640625,-0.584716796875
0.8418121337890625,0.354278564453125,-0.5825042724609375
0.849090576171875,0.454437255859375,-0.583953857421875
0.8921661376953125,0.5467987060546875,-0.592681884765625
0.898529052734375,0.54608154296875,-0.530914306640625
0.84033203125,0.5055694580078125,-0.44940185546875
0.7999420166015625,0.5579376220703125,-0.5130157470703125
0.734619140625,0.574493408203125,-0.542236328125
0.6781463623046875,0.5889434814453125,-0.52789306640625
0.6451873779296875,0.5674285888671875,-0.4730072021484375
0.62359619140625,0.5335235595703125,-0.4588775634765625
0.5889739990234375,0.496795654296875,-0.45648193359375
0.5629730224609375,0.4449310302734375,-0.480712890625
0.5677642822265625,0.445526123046875,-0.507049560546875
0.6190185546875,0.4709014892578125,-0.5320587158203125
0.6957550048828125,0.4668121337890625,-0.5344085693359375
0.78289794921875,0.5678558349609375,-0.596221923828125
0.79071044921875,0.526092529296875,-0.5467376708984375
0.8228607177734375,0.5112762451171875,-0.51727294921875
0.817230224609375,0.5312957763671875,-0.488800048828125
0.7781982421875,0.5032501220703125,-0.476287841796875
0.73712158203125,0.4315338134765625,-0.462432861328125
0.7094268798828125,0.3562774658203125,-0.4398956298828125
0.7784271240234375,0.434478759765625,-0.5188140869140625
0.8561553955078125,0.6147003173828125,-0.6063079833984375
0.849853515625,0.56536865234375,-0.503387451171875
0.7740936279296875,0.3948516845703125,-0.4218597412109375
0.6787261962890625,0.3541107177734375,-0.4963226318359375
0.6589508056640625,0.381988525390625,-0.5642852783203125
0.670654296875,0.465911865234375,-0.53814697265625
0.6425628662109375,0.553253173828125,-0.4478607177734375
0.615447998046875,0.5237884521484375,-0.40283203125
0.6396942138671875,0.5083465576171875,-0.4405364990234375
0.67510986328125,0.554168701171875,-0.471099853515625
0.697113037109375,0.604095458984375,-0.45526123046875
0.710906982421875,0.628021240234375,-0.4479522705078125
0.7185821533203125,0.649658203125,-0.494110107421875
0.698822021484375,0.64129638671875,-0.504638671875
0.7494354248046875,0.661224365234375,-0.50732421875
0.7144927978515625,0.5576019287109375,-0.4015655517578125
0.6331939697265625,0.4775848388671875,-0.3471221923828125
0.7311248779296875,0.6181182861328125,-0.5800628662109375
0.7855224609375,0.678619384765625,-0.646209716796875
0.6212005615234375,0.5315399169921875,-0.402496337890625
0.588653564453125,0.486541748046875,-0.43475341796875
0.718017578125,0.47161865234375,-0.5383148193359375
0.7462310791015625,0.47235107421875,-0.482696533203125
0.67169189453125,0.344635009765625,-0.38519287109375
0.4691314697265625,0.039398193359375,-0.21624755859375
0.03765869140625,0.024627685546875,-0.0257720947265625
0.017303466796875,-0.0008697509765625,-0.008056640625
0.0154266357421875,-0.001068115234375,-0.0121002197265625
0.01416015625,0.0004119873046875,-0.0196380615234375
0.013641357421875,0.000762939453125,-0.02532958984375
0.0107269287109375,0.003570556640625,-0.0340423583984375
0.010406494140625,0.0064544677734375,-0.0522918701171875
0.0087127685546875,0.0107421875,-0.072540283203125
3.452423095703125,6.005950927734375,2.1537628173828125
-0.109161376953125,1.408599853515625,-5.820083618164063
0.4162445068359375,-0.1577301025390625,0.0298614501953125
-0.5791473388671875,0.584442138671875,0.2102813720703125
-0.13336181640625,0.421600341796875,0.0052642822265625
-0.3349761962890625,0.549713134765625,0.0142364501953125
-0.8962860107421875,-1.104827880859375,0.1157379150390625
-0.076446533203125,0.093597412109375,0.01446533203125
0.2165069580078125,-0.02752685546875,0.0349884033203125
3.3285369873046875,-0.6841888427734375,-5.515777587890625
-0.342010498046875,0.1218109130859375,0.25079345703125
-0.306793212890625,-0.0308837890625,0.131134033203125
-0.131011962890625,-0.0965118408203125,0.509674072265625
-0.155914306640625,0.164886474609375,-0.533233642578125
0.03076171875,0.0578460693359375,-0.999664306640625
0.0284423828125,0.021575927734375,-1.014404296875
0.0294647216796875,0.0286865234375,-1.005615234375
0.0287322998046875,0.0234222412109375,-1.0063018798828125
0.0284271240234375,0.0276641845703125,-1.007354736328125
0.028289794921875,0.0254974365234375,-1.006866455078125
0.02703857421875,0.0238800048828125,-1.007049560546875
0.0278778076171875,0.026092529296875,-1.0050201416015625
0.029449462890625,0.0247955322265625,-1.006622314453125
0.024566650390625,0.0254364013671875,-1.0069732666015625
0.0895538330078125,0.030853271484375,-0.65118408203125
-0.0487213134765625,0.04510498046875,-1.056884765625
0.032440185546875,0.0255126953125,-0.924896240234375
0.03753662109375,0.0299224853515625,-0.99127197265625
0.0257720947265625,0.0216827392578125,-1.006011962890625
0.0359649658203125,0.0207977294921875,-1.0064544677734375
0.0322113037109375,0.0214385986328125,-1.0061492919921875
0.032928466796875,0.022125244140625,-1.005523681640625
0.0329132080078125,0.0210723876953125,-1.0068206787109375
0.0322418212890625,0.0208740234375,-1.0063018798828125
0.0322265625,0.0217742919921875,-1.005615234375
0.0332489013671875,0.021575927734375,-1.0062103271484375
0.033416748046875,0.0223388671875,-1.0068511962890625
0.0338897705078125,0.022552490234375,-1.007232666015625
0.0328521728515625,0.0215301513671875,-1.00653076171875
0.0329437255859375,0.0229339599609375,-1.0063018798828125
0.032989501953125,0.021453857421875,-1.0054168701171875
0.0328521728515625,0.021453857421875,-1.005218505859375
0.0338592529296875,0.0225372314453125,-1.0060577392578125
0.03265380859375,0.0240020751953125,-1.0016326904296875
0.033905029296875,0.0189971923828125,-1.00750732421875
0.0340576171875,0.0184326171875,-1.009521484375
0.03436279296875,0.0184326171875,-1.0077362060546875
0.033233642578125,0.0184173583984375,-1.0118408203125
0.033111572265625,0.0214080810546875,-1.009307861328125
0.032562255859375,0.0220489501953125,-1.004669189453125
0.0338287353515625,0.0209197998046875,-1.005523681640625
0.0329132080078125,0.02117919921875,-1.007080078125
0.033355712890625,0.0220794677734375,-1.005950927734375
0.0328826904296875,0.0218505859375,-1.0059967041015625
0.0321502685546875,0.022064208984375,-1.005462646484375
0.0334014892578125,0.021270751953125,-1.0063629150390625
0.032928466796875,0.0218353271484375,-1.0055389404296875
0.0322113037109375,0.0210418701171875,-1.006256103515625
0.032806396484375,0.02215576171875,-1.005584716796875
0.0326995849609375,0.0219573974609375,-1.0064544677734375
0.032745361328125,0.020660400390625,-1.0059967041015625
0.032135009765625,0.021728515625,-1.0062713623046875
0.0329437255859375,0.0213775634765625,-1.00579833984375
0.032867431640625,0.0218048095703125,-1.006195068359375
0.0334320068359375,0.0220794677734375,-1.0069122314453125
0.032745361328125,0.0214996337890625,-1.00628662109375
0.0329742431640625,0.020721435546875,-1.006683349609375
0.0330352783203125,0.02142333984375,-1.0069122314453125
0.032470703125,0.021484375,-1.00579833984375
0.0326385498046875,0.022003173828125,-1.006317138671875
0.0329437255859375,0.0216522216796875,-1.006805419921875
0.0333099365234375,0.0220184326171875,-1.0047149658203125
0.034210205078125,0.022308349609375,-1.0031890869140625
0.034454345703125,0.017913818359375,-1.00909423828125
