AccelerationX,AccelerationY,AccelerationZ
0.0150604248046875,-0.3543853759765625,-0.8470458984375
-0.00286865234375,-0.3860931396484375,-0.8364105224609375
0.0283203125,-0.38848876953125,-0.849945068359375
0.0220794677734375,-0.350860595703125,-0.9255218505859376
-0.0416412353515625,-0.34991455078125,-1.0037384033203125
-0.0428924560546875,-0.3947601318359375,-0.9293975830078124
-0.0535736083984375,-0.439361572265625,-0.9394683837890624
-0.121551513671875,-0.4331817626953125,-0.935577392578125
-0.1897430419921875,-0.4077606201171875,-0.91326904296875
-0.2339019775390625,-0.4214019775390625,-0.9253997802734376
-0.130889892578125,-0.177642822265625,-0.96539306640625
-0.09625244140625,-0.209503173828125,-1.012481689453125
0.475921630859375,-0.5304412841796875,-1.5108642578125
0.0263519287109375,-0.1187286376953125,-0.787872314453125
-0.3311614990234375,0.09625244140625,-0.793426513671875
-0.0998077392578125,-0.5777740478515625,-0.9076385498046876
-0.3423004150390625,-0.5673065185546875,-1.241424560546875
-0.28863525390625,-0.60919189453125,-0.9485321044921876
-0.3270111083984375,-0.5680389404296875,-0.658447265625
-0.4119415283203125,-0.59912109375,-0.540496826171875
-0.4626922607421875,-0.513580322265625,-0.4379119873046875
-0.332366943359375,-0.318572998046875,-0.464752197265625
-0.3345947265625,-0.09356689453125,-0.3827972412109375
-0.2140045166015625,-0.1120758056640625,-0.3568878173828125
-0.345489501953125,-0.2151336669921875,-0.214019775390625
-0.4600830078125,-0.191497802734375,-0.421142578125
-0.57952880859375,-0.3620758056640625,-0.3198394775390625
-0.8162078857421875,-0.35675048828125,-0.5202484130859375
-0.9561309814453124,-0.3375396728515625,-0.8080596923828125
-1.13299560546875,-0.1599578857421875,-0.9194183349609376
-1.4632415771484375,-0.1824493408203125,-1.1856231689453125
-1.5494232177734375,-0.0334625244140625,-0.9394073486328124
-1.5415191650390625,0.02264404296875,-0.988067626953125
-1.4227447509765625,-0.0160980224609375,-0.7956390380859375
-1.014251708984375,-0.67633056640625,-0.8739013671875
-0.9605865478515624,-0.781646728515625,-0.7401885986328125
-0.6776885986328125,-0.830596923828125,-0.5924835205078125
-0.3190765380859375,-0.7895355224609375,-0.2263946533203125
-0.14892578125,-0.392608642578125,-0.020416259765625
-0.197967529296875,-0.5000457763671875,0.28289794921875
-1.2700958251953125,-0.0665435791015625,1.149505615234375
-3.0355377197265625,-0.3628997802734375,0.8907012939453125
-3.164764404296875,-0.0468902587890625,1.3775634765625
-2.1366424560546875,-0.0904998779296875,1.1900787353515625
-1.5428314208984375,0.0585479736328125,0.8966827392578125
-0.761505126953125,0.3743896484375,0.4420166015625
-0.3548583984375,0.3834075927734375,0.0217132568359375
-0.1729583740234375,0.4551849365234375,0.0878753662109375
0.1243896484375,0.250213623046875,0.195343017578125
0.0369415283203125,0.2220001220703125,0.1500701904296875
-0.02490234375,0.160400390625,0.1319122314453125
-0.3011627197265625,0.1182708740234375,9.1552734375e-05
-1.0263671875,0.1905517578125,-0.166656494140625
-1.758941650390625,-0.0852813720703125,-0.111236572265625
-1.95361328125,-0.4641571044921875,0.041656494140625
-1.6241912841796875,-0.2295074462890625,-0.6566314697265625
-1.5517120361328125,-0.0802001953125,-0.7520599365234375
-1.2484130859375,-0.2249298095703125,-0.250885009765625
-1.1170806884765625,-0.454620361328125,-0.234832763671875
-1.2958526611328125,-0.9011383056640624,-0.2040863037109375
-1.6227569580078125,-1.064300537109375,-0.0655975341796875
-1.7893829345703125,-1.322479248046875,0.2725982666015625
-1.6630706787109375,-1.019683837890625,0.575408935546875
-1.17041015625,-0.74261474609375,0.4598846435546875
-1.3680267333984375,-0.5973968505859375,0.398193359375
-1.8466949462890625,-0.5730743408203125,0.56854248046875
-2.261016845703125,-0.63482666015625,0.5341033935546875
-2.355194091796875,-0.2872772216796875,0.30523681640625
-1.47576904296875,0.20281982421875,0.04315185546875
-0.5137939453125,0.4099884033203125,-0.0487823486328125
-0.04998779296875,0.3101348876953125,-0.03948974609375
0.1452178955078125,0.236663818359375,-0.0531463623046875
0.2688751220703125,0.2904205322265625,-0.0989532470703125
0.277069091796875,0.3121337890625,-0.16546630859375
0.1936798095703125,0.24749755859375,-0.2035064697265625
-0.4908905029296875,0.3658447265625,-0.18994140625
-1.505462646484375,0.5934906005859375,0.2001800537109375
-2.0772247314453125,0.827972412109375,0.6020660400390625
-2.4478302001953125,0.5156707763671875,0.7698211669921875
-2.3328094482421875,-0.0636138916015625,0.4956207275390625
-2.5578765869140625,-0.401885986328125,0.3223724365234375
-2.078857421875,-0.78802490234375,0.0749664306640625
-1.5384521484375,-0.9152374267578124,0.103607177734375
-1.0465087890625,-0.7706146240234375,0.1407928466796875
-0.711822509765625,-0.701263427734375,0.0693817138671875
-0.785980224609375,-0.52593994140625,-0.1215667724609375
-1.0728759765625,-0.415679931640625,-0.2274932861328125
-1.5931243896484375,-0.387542724609375,-0.2314453125
-2.20843505859375,-0.5663299560546875,0.0289459228515625
-2.890853881835937,-0.756988525390625,0.12628173828125
-2.998565673828125,-0.2275390625,0.350921630859375
-1.9526519775390625,0.3756256103515625,0.1888885498046875
-1.2264556884765625,0.3985595703125,-0.0724029541015625
-0.7235870361328125,0.5293731689453125,0.0363006591796875
-0.293609619140625,0.4860992431640625,0.040679931640625
-0.3367462158203125,0.75494384765625,0.0073089599609375
0.0219573974609375,0.6409149169921875,-0.0758819580078125
0.3625640869140625,0.229095458984375,-0.142913818359375
0.4164276123046875,0.0292205810546875,-0.0216217041015625
0.116607666015625,0.0009002685546875,0.1327972412109375
-0.316009521484375,-0.0025634765625,0.2884063720703125
-1.0560302734375,0.5660400390625,0.5600433349609375
-2.601287841796875,0.92730712890625,0.546478271484375
-4.01641845703125,0.219329833984375,0.5183563232421875
-2.98541259765625,-0.3290863037109375,0.458160400390625
-1.8717803955078125,-0.6245880126953125,0.6157684326171875
-1.0886077880859375,-0.6888885498046875,0.3612213134765625
-0.716583251953125,-0.6757354736328125,0.15167236328125
-0.5723876953125,-0.717437744140625,-0.0452880859375
-0.510711669921875,-0.6817779541015625,-0.051177978515625
-0.57391357421875,-0.72503662109375,-0.0155792236328125
-1.1017303466796875,-0.908935546875,0.064666748046875
-1.3853302001953125,-0.8370513916015625,0.2813568115234375
-1.5181884765625,-0.7606658935546875,0.243621826171875
-1.8339385986328125,-0.693756103515625,0.2830810546875
-2.506820678710937,-0.5799407958984375,0.405517578125
-2.251449584960937,-0.08294677734375,0.8229827880859375
-1.8118133544921875,-0.061370849609375,0.55267333984375
-1.21435546875,0.0070648193359375,0.34063720703125
-0.5444793701171875,0.091522216796875,0.143463134765625
-0.027801513671875,0.1982879638671875,-0.19293212890625
0.0816497802734375,0.21636962890625,0.0001983642578125
0.118011474609375,0.2552490234375,0.1457672119140625
-0.0032806396484375,0.257171630859375,0.254730224609375
-0.196746826171875,0.3031005859375,0.3458709716796875
-0.537078857421875,0.2316436767578125,0.2497100830078125
-1.3790283203125,0.0607757568359375,0.5640716552734375
-2.0318756103515625,-0.3331298828125,0.7703704833984375
-2.3560943603515625,-0.543701171875,1.1376800537109375
-1.87298583984375,-0.5069580078125,1.0230712890625
-1.167938232421875,-0.462158203125,0.575469970703125
-0.8403778076171875,-0.397918701171875,0.2779083251953125
-0.7587127685546875,-0.55413818359375,0.167572021484375
-0.77716064453125,-0.723358154296875,0.1903533935546875
-0.7934417724609375,-0.8868560791015625,0.27569580078125
-0.858184814453125,-0.9909820556640624,0.269805908203125
-1.0197906494140625,-0.9583892822265624,0.3271942138671875
-1.1287078857421875,-0.882415771484375,0.4200286865234375
-1.2042083740234375,-0.7382049560546875,0.4505615234375
-1.6428985595703125,-0.6131134033203125,0.4043731689453125
-1.756988525390625,-0.2288665771484375,0.5213623046875
-1.99365234375,-0.1288604736328125,0.4808807373046875
-2.013656616210937,-0.093536376953125,0.8271331787109375
-1.31396484375,-0.035736083984375,0.660064697265625
-0.794097900390625,0.12005615234375,0.4192657470703125
-0.401702880859375,0.172576904296875,0.2354583740234375
-0.10980224609375,0.1726837158203125,0.158355712890625
0.1112060546875,0.117462158203125,0.0437164306640625
0.17266845703125,0.0803375244140625,0.000579833984375
-0.0136260986328125,0.05535888671875,0.0214080810546875
-0.5281219482421875,0.1033935546875,0.0132904052734375
-1.3106689453125,-0.0015716552734375,0.3081512451171875
-1.88238525390625,-0.278167724609375,0.69549560546875
-1.97344970703125,-0.3636474609375,0.93011474609375
-1.653106689453125,-0.3103485107421875,0.85748291015625
-1.312530517578125,-0.24530029296875,0.5086212158203125
-1.057037353515625,-0.3402099609375,0.288970947265625
-0.8565673828125,-0.5173187255859375,0.1972808837890625
-0.7767791748046875,-0.67364501953125,0.22967529296875
-0.750030517578125,-0.8442535400390625,0.2538604736328125
-0.784088134765625,-1.0289459228515625,0.2747650146484375
-1.0581817626953125,-1.1668243408203125,0.2761688232421875
-1.360382080078125,-1.0208740234375,0.2388153076171875
-1.5755462646484375,-0.8724822998046875,0.2544403076171875
-1.8443756103515625,-0.773590087890625,0.2955322265625
-2.3579864501953125,-0.6293182373046875,0.423797607421875
-2.372787475585937,-0.3651580810546875,0.4721221923828125
-2.028549194335937,-0.2659759521484375,0.364532470703125
-1.335174560546875,0.111572265625,0.3599090576171875
-0.6564788818359375,0.1666412353515625,0.2177581787109375
-0.271209716796875,0.3402862548828125,0.1071319580078125
0.0328826904296875,0.3485565185546875,-0.0382843017578125
0.1689453125,0.2501373291015625,-0.1257171630859375
0.20953369140625,0.161865234375,-0.144073486328125
0.07330322265625,0.16912841796875,-0.08001708984375
-0.2652587890625,0.1229400634765625,0.044647216796875
-0.7340240478515625,0.054107666015625,0.3642425537109375
-1.356964111328125,-0.047515869140625,0.574462890625
-1.9855804443359373,-0.0791473388671875,0.5338134765625
-2.514007568359375,-0.4538421630859375,0.631805419921875
-2.1245880126953125,-0.623077392578125,0.6263580322265625
-1.5450286865234375,-0.8804931640625,0.570709228515625
-1.0696563720703125,-1.032867431640625,0.481292724609375
-0.9316864013671876,-1.0924224853515625,0.328826904296875
-0.9331207275390624,-0.9576873779296876,0.09228515625
-0.9196014404296876,-0.8316650390625,0.13470458984375
-0.9965057373046876,-0.7526397705078125,0.2266845703125
-1.196624755859375,-0.6373291015625,0.2411041259765625
-1.493743896484375,-0.626068115234375,0.2297821044921875
-2.1038055419921875,-0.7026214599609375,0.2696380615234375
-2.46807861328125,-0.7101898193359375,0.7187957763671875
-1.6474609375,-0.3613739013671875,0.5071563720703125
-1.4898223876953125,-0.3070831298828125,0.4437255859375
-1.1190032958984375,-0.1299896240234375,0.226318359375
-0.704010009765625,0.0254364013671875,0.076507568359375
-0.3884429931640625,0.1236724853515625,-0.0196380615234375
-0.185546875,0.1985015869140625,-0.113616943359375
-0.0689849853515625,0.1937713623046875,-0.1184844970703125
0.0103912353515625,0.1970672607421875,-0.0280303955078125
0.052398681640625,0.0950164794921875,-0.0027313232421875
-0.1765289306640625,0.01422119140625,0.0626220703125
-0.5078887939453125,-0.143890380859375,0.0281524658203125
-1.2191619873046875,-0.352783203125,0.0803985595703125
-1.9436187744140625,-0.232635498046875,0.2171173095703125
-2.232330322265625,-0.8536529541015625,0.358001708984375
-2.0371246337890625,-0.7241668701171875,0.610382080078125
-1.7408599853515625,-1.027618408203125,0.3125762939453125
-1.3292694091796875,-0.976348876953125,0.0868377685546875
-0.984283447265625,-0.924835205078125,-0.1383209228515625
-0.8683319091796875,-0.8348541259765625,-0.20184326171875
-0.6966400146484375,-0.7264404296875,-0.2118377685546875
-0.703948974609375,-0.6689300537109375,-0.229461669921875
-0.9114990234375,-0.6154937744140625,-0.2029266357421875
-1.2042083740234375,-0.62933349609375,-0.0054779052734375
-1.509429931640625,-0.6476287841796875,0.2310638427734375
-1.7940826416015625,-0.7115936279296875,0.43035888671875
-2.347763061523437,-0.8946075439453125,0.356170654296875
-2.2793121337890625,-0.448699951171875,0.5271759033203125
-1.4638214111328125,-0.1424102783203125,0.3245849609375
-0.943267822265625,-0.0337982177734375,0.1424102783203125
-0.510833740234375,0.0921630859375,0.0489349365234375
-0.1414794921875,0.1661529541015625,-0.0101776123046875
0.0726776123046875,0.1630401611328125,-0.040985107421875
0.139801025390625,0.15509033203125,-0.059661865234375
0.169097900390625,0.11749267578125,-0.0724029541015625
0.0919189453125,0.02734375,-0.0189056396484375
-0.2266387939453125,-0.08935546875,0.0050506591796875
-0.60504150390625,0.05889892578125,0.078643798828125
-1.428497314453125,0.0634307861328125,0.1380157470703125
-2.1471405029296875,0.0546112060546875,0.689971923828125
-2.256103515625,-0.2497406005859375,0.757598876953125
-2.078094482421875,-0.3141937255859375,0.7241058349609375
-1.637603759765625,-0.418792724609375,0.490081787109375
-1.1190338134765625,-0.54156494140625,0.2878265380859375
-0.8196868896484375,-0.5848846435546875,0.217071533203125
-0.75933837890625,-0.599273681640625,0.1691436767578125
-0.664703369140625,-0.6313323974609375,0.1446990966796875
-0.6201171875,-0.7063140869140625,0.10321044921875
-0.8753509521484375,-0.7658538818359375,0.1495361328125
-1.137847900390625,-0.79876708984375,0.2724456787109375
-1.504180908203125,-0.7803802490234375,0.400543212890625
-2.0076904296875,-0.6672821044921875,0.5157318115234375
-1.90191650390625,-0.306610107421875,0.6618194580078125
-1.6322021484375,-0.1846466064453125,0.42315673828125
-1.90863037109375,-0.154998779296875,0.3321685791015625
-1.5521697998046875,-0.0764007568359375,0.3884735107421875
-0.95660400390625,0.1002655029296875,0.2277679443359375
-0.4661865234375,0.2839813232421875,0.09375
-0.0889739990234375,0.3290863037109375,0.000701904296875
0.0934906005859375,0.2172088623046875,-0.0142974853515625
0.1469573974609375,0.100860595703125,0.0003204345703125
0.0712127685546875,0.0642547607421875,0.016510009765625
-0.2386474609375,0.0645751953125,0.016448974609375
-0.767852783203125,0.253265380859375,0.2571258544921875
-1.5983123779296875,0.26483154296875,0.24810791015625
-2.292022705078125,0.0291748046875,0.5376434326171875
-2.257080078125,-0.1663055419921875,0.4464263916015625
-2.030120849609375,-0.3543853759765625,0.3375396728515625
-1.374237060546875,-0.38409423828125,0.1203155517578125
-1.0643310546875,-0.5186767578125,0.239349365234375
-0.8975982666015625,-0.658294677734375,0.3549957275390625
-0.901397705078125,-0.7391204833984375,0.11712646484375
-0.855133056640625,-0.765960693359375,-0.00164794921875
-0.8471832275390625,-0.754547119140625,-0.003387451171875
-0.81048583984375,-0.68670654296875,0.0836181640625
-1.1095428466796875,-0.8299102783203125,0.0590057373046875
-1.6583404541015625,-0.7498931884765625,-0.023284912109375
-1.8303070068359373,-0.6683349609375,-0.078033447265625
-2.3957061767578125,-0.303070068359375,-0.0250091552734375
-2.21966552734375,-0.115447998046875,-0.11474609375
-2.2803497314453125,-0.0118408203125,-0.0512847900390625
-1.878997802734375,-0.0570068359375,-0.1316986083984375
-1.32574462890625,0.0163421630859375,-0.17822265625
-0.7221221923828125,0.1349639892578125,-0.2021636962890625
-0.335174560546875,0.2110443115234375,-0.2276763916015625
-0.1097869873046875,0.2145843505859375,-0.1658477783203125
0.072540283203125,0.14056396484375,-0.1159515380859375
0.06768798828125,0.0846405029296875,-0.1125030517578125
-0.0010223388671875,0.06402587890625,-0.08154296875
0.0107574462890625,0.0911712646484375,-0.0347137451171875
-0.280120849609375,0.2342681884765625,0.2100982666015625
-1.26544189453125,0.0998687744140625,0.2638092041015625
-2.378448486328125,-0.17852783203125,0.30706787109375
-2.705108642578125,-0.5920562744140625,0.3955535888671875
-2.092681884765625,-0.6618499755859375,0.5612335205078125
-1.44635009765625,-0.641693115234375,0.5659027099609375
-1.1479034423828125,-0.6511383056640625,0.2247314453125
-1.0348358154296875,-0.7225494384765625,0.0021209716796875
-0.86627197265625,-0.7578887939453125,0.113922119140625
-0.7493133544921875,-0.8477783203125,0.212646484375
-0.740570068359375,-0.850830078125,0.27294921875
-0.8082733154296875,-0.7654266357421875,0.191192626953125
-1.0522003173828125,-0.6177520751953125,0.0316619873046875
-1.6027374267578125,-0.4890594482421875,-0.3615264892578125
-1.90496826171875,-0.4437255859375,-0.4275665283203125
-2.573959350585937,-0.4262847900390625,-0.4065093994140625
-2.303451538085937,-0.181243896484375,-0.1204071044921875
-1.790740966796875,-0.007476806640625,-0.2232208251953125
-1.4435882568359375,0.1548919677734375,-0.1426544189453125
-0.92498779296875,0.0684814453125,-0.028228759765625
-0.486663818359375,0.1061248779296875,0.006134033203125
-0.3497314453125,0.0919189453125,0.0019073486328125
-0.1251678466796875,0.185455322265625,0.0155029296875
0.1124420166015625,0.2300872802734375,-0.1792755126953125
-0.08465576171875,0.2203521728515625,-0.2584075927734375
-0.301605224609375,0.275604248046875,-0.190826416015625
-0.535736083984375,0.107818603515625,-0.1099700927734375
-0.990509033203125,0.099853515625,0.123199462890625
-1.613372802734375,-0.1319732666015625,0.0378875732421875
-2.155487060546875,0.0876617431640625,-0.0410003662109375
-2.1925506591796875,-0.0687408447265625,0.1569671630859375
-1.785736083984375,-0.2500762939453125,0.249542236328125
-1.3697509765625,-0.3380889892578125,0.1741790771484375
-1.1860809326171875,-0.4682464599609375,0.075469970703125
-1.0452117919921875,-0.5223236083984375,-0.05096435546875
-0.96246337890625,-0.60882568359375,-0.14215087890625
-0.95428466796875,-0.623321533203125,-0.2137451171875
-1.092803955078125,-0.5682373046875,-0.228240966796875
-1.259368896484375,-0.4918212890625,-0.20379638671875
-1.46527099609375,-0.461395263671875,-0.17169189453125
-1.705718994140625,-0.4794158935546875,-0.101348876953125
-2.288055419921875,-0.3706207275390625,-0.288177490234375
-2.369369506835937,-0.0075225830078125,-0.371978759765625
-1.8489532470703125,-0.030975341796875,-0.2485504150390625
-1.64788818359375,-0.03558349609375,-0.2328033447265625
-1.17303466796875,0.0413818359375,-0.1069183349609375
-0.7186431884765625,0.1162109375,-0.0428314208984375
-0.3569793701171875,0.177276611328125,-0.0667724609375
-0.1561279296875,0.2941741943359375,-0.1350555419921875
-0.050811767578125,0.403564453125,-0.10784912109375
-0.0547027587890625,0.3227691650390625,-0.0722808837890625
-0.109832763671875,0.25592041015625,-0.0579986572265625
-0.2947998046875,0.230682373046875,-0.019073486328125
-0.610595703125,0.27117919921875,0.11358642578125
-1.20556640625,0.218109130859375,0.3171844482421875
-1.8052825927734373,0.1482086181640625,0.4948883056640625
-2.4544219970703125,-0.023773193359375,0.52276611328125
-2.4198150634765625,-0.4134521484375,0.709991455078125
-1.935394287109375,-0.266571044921875,0.4649505615234375
-1.78143310546875,-0.2826690673828125,0.2163543701171875
-1.354949951171875,-0.4449615478515625,0.1214752197265625
-1.0412750244140625,-0.5338592529296875,0.0574188232421875
-0.885498046875,-0.522674560546875,0.05523681640625
-0.7446441650390625,-0.4944610595703125,-0.0074462890625
-0.794647216796875,-0.432952880859375,0.018341064453125
-0.8897552490234375,-0.2923736572265625,0.0340423583984375
-1.1293792724609375,-0.2624359130859375,0.1462860107421875
-1.2291412353515625,-0.3618011474609375,0.23309326171875
-1.4499969482421875,-0.42425537109375,0.1901092529296875
-1.48455810546875,-0.504364013671875,0.0341796875
-1.803985595703125,-0.5474853515625,-0.0975494384765625
-2.1415557861328125,-0.595062255859375,-0.096099853515625
-1.9759521484375,-0.45294189453125,-0.149993896484375
-1.926910400390625,-0.2538909912109375,-0.1783599853515625
-1.579742431640625,-0.0061187744140625,0.0526885986328125
-1.0074920654296875,0.166290283203125,0.077880859375
-0.6626129150390625,0.3981781005859375,0.0396881103515625
-0.3734893798828125,0.3898773193359375,-0.0393218994140625
-0.178131103515625,0.2078399658203125,-0.100738525390625
-0.1168975830078125,0.09393310546875,-0.1331634521484375
-0.081268310546875,-0.0422210693359375,-0.098907470703125
-0.207733154296875,-0.1254730224609375,-0.0286712646484375
-0.4358673095703125,-0.282012939453125,0.1972503662109375
-0.5831451416015625,-0.4056396484375,0.415069580078125
-0.5941619873046875,-0.315826416015625,0.37823486328125
-1.0419464111328125,-0.02435302734375,0.0287322998046875
-1.7381439208984375,0.3673095703125,0.4442901611328125
-2.33917236328125,0.0944671630859375,0.055023193359375
-2.4475250244140625,-0.18621826171875,0.4574737548828125
-1.659912109375,-0.645751953125,0.02764892578125
-1.331695556640625,-0.7928619384765625,-0.0560150146484375
-1.2678375244140625,-0.75701904296875,-0.1741485595703125
-1.100921630859375,-0.704315185546875,-0.122802734375
-0.935333251953125,-0.57501220703125,-0.12518310546875
-0.8440704345703125,-0.4464874267578125,-0.1335906982421875
-0.8498992919921875,-0.42645263671875,-0.1842803955078125
-1.071624755859375,-0.460784912109375,-0.216705322265625
-1.244964599609375,-0.540283203125,-0.254547119140625
-1.5188751220703125,-0.5173492431640625,-0.3468475341796875
-1.9033203125,-0.51629638671875,-0.473846435546875
-2.472885131835937,-0.5571136474609375,-0.3782806396484375
-2.078948974609375,-0.32989501953125,-0.1039276123046875
-1.4852752685546875,-0.166473388671875,-0.2923126220703125
-1.2940216064453125,-0.0970611572265625,-0.2330322265625
-0.7729644775390625,-0.0521392822265625,-0.198883056640625
-0.5179290771484375,0.1027069091796875,-0.218841552734375
-0.3945770263671875,0.2030181884765625,-0.18719482421875
-0.2475738525390625,0.155731201171875,-0.1422119140625
-0.1926116943359375,0.1221160888671875,-0.079986572265625
-0.2584991455078125,0.2386474609375,-0.093231201171875
-0.3194580078125,0.21429443359375,-0.082489013671875
-0.6327667236328125,0.18768310546875,0.0345611572265625
-0.9444122314453124,0.1622314453125,0.22857666015625
-1.562103271484375,0.078369140625,0.422515869140625
-2.1683807373046875,0.0126495361328125,0.5082244873046875
-2.322540283203125,-0.324462890625,0.5547332763671875
-2.07550048828125,-0.4332275390625,0.439849853515625
-1.5499114990234375,-0.5439910888671875,0.324981689453125
-1.2258148193359375,-0.5587005615234375,0.1561737060546875
-1.0704345703125,-0.5668792724609375,-0.0658111572265625
-0.8212890625,-0.438232421875,-0.118927001953125
-0.741485595703125,-0.51611328125,-0.1476593017578125
-0.9499969482421876,-0.52716064453125,-0.07794189453125
-1.1244964599609375,-0.584625244140625,-0.003173828125
-1.34033203125,-0.62603759765625,0.0731658935546875
-1.48394775390625,-0.6616058349609375,0.130126953125
-1.630584716796875,-0.76629638671875,0.1124420166015625
-1.558258056640625,-0.486236572265625,-0.0496826171875
-1.41009521484375,-0.2233734130859375,-0.115753173828125
-2.03826904296875,-0.332427978515625,-0.1639404296875
-1.727325439453125,-0.21240234375,0.0158843994140625
-1.70135498046875,-0.31097412109375,-0.1132659912109375
-1.241485595703125,-0.0487060546875,0.011962890625
-0.55194091796875,0.1104278564453125,0.0720367431640625
-0.1569366455078125,0.183929443359375,0.05523681640625
-0.0203399658203125,0.2143707275390625,0.01922607421875
-0.002899169921875,0.195068359375,-0.013153076171875
-0.1125030517578125,0.1117095947265625,0.000946044921875
-0.187103271484375,0.0524444580078125,0.025787353515625
-0.4327392578125,0.0724639892578125,0.0549468994140625
-0.781158447265625,0.07818603515625,0.1705169677734375
-1.2559356689453125,0.03497314453125,0.14056396484375
-1.5313262939453125,0.1052703857421875,0.50506591796875
-2.3318328857421875,-0.011016845703125,0.449432373046875
-2.42596435546875,-0.4017791748046875,0.65142822265625
-2.151351928710937,-0.66094970703125,0.225738525390625
-1.499969482421875,-0.627288818359375,0.2093048095703125
-1.122161865234375,-0.6288909912109375,0.107269287109375
-0.9332122802734376,-0.6091461181640625,0.006256103515625
-0.7680816650390625,-0.5864715576171875,-0.070556640625
-0.7467803955078125,-0.530181884765625,-0.08489990234375
-0.8158721923828125,-0.5596466064453125,-0.061920166015625
-1.1590728759765625,-0.6833343505859375,-0.00567626953125
-1.4170989990234375,-0.61431884765625,0.0458984375
-1.7818603515625,-0.557586669921875,-0.0964202880859375
-2.3123016357421875,-0.5571746826171875,0.028900146484375
-2.2357330322265625,-0.4547119140625,0.108245849609375
-1.9504547119140625,-0.2717437744140625,0.05841064453125
-1.4338836669921875,-0.0261688232421875,-0.0101776123046875
-0.9212188720703124,-0.042266845703125,-0.108184814453125
-0.6498870849609375,-0.20001220703125,-0.1194610595703125
-0.4292449951171875,-0.06903076171875,-0.099517822265625
-0.242095947265625,0.028564453125,-0.1526336669921875
-0.1713409423828125,0.0541229248046875,-0.089935302734375
-0.1393280029296875,0.02728271484375,-0.029541015625
-0.069854736328125,-0.0372467041015625,0.032257080078125
-0.2524566650390625,-0.0528106689453125,-0.003753662109375
-0.4478302001953125,0.0107269287109375,0.062286376953125
-0.940765380859375,0.0336456298828125,0.0092926025390625
-1.4938507080078125,-0.0943756103515625,0.414703369140625
-1.87347412109375,-0.0567779541015625,0.7044525146484375
-1.98516845703125,-0.19317626953125,0.694580078125
-1.893890380859375,-0.2582244873046875,0.6506805419921875
-1.5384674072265625,-0.2618560791015625,0.51318359375
-1.259857177734375,-0.4068450927734375,0.3689727783203125
-1.0774383544921875,-0.5011138916015625,0.30462646484375
-0.9219970703125,-0.6477813720703125,0.2874603271484375
-0.8361053466796875,-0.70806884765625,0.2101898193359375
-0.9480133056640624,-0.6878509521484375,0.1096343994140625
-1.0860595703125,-0.580108642578125,0.063323974609375
-1.239349365234375,-0.4920806884765625,0.0474395751953125
-1.4232177734375,-0.4853668212890625,0.0454864501953125
-1.6716461181640625,-0.473358154296875,0.05615234375
-2.0734405517578125,-0.424072265625,0.1403656005859375
-2.109115600585937,-0.3947601318359375,0.3075103759765625
-1.5865325927734375,-0.2459564208984375,0.2074737548828125
-1.270660400390625,-0.1808319091796875,-0.0127105712890625
-0.993621826171875,-0.0481109619140625,-0.09796142578125
-0.736602783203125,-0.0330810546875,-0.1063079833984375
-0.4861907958984375,-0.001251220703125,-0.069305419921875
-0.378448486328125,0.0345001220703125,-0.06488037109375
-0.2742767333984375,0.056396484375,-0.041748046875
-0.174468994140625,0.049774169921875,-0.0312347412109375
-0.17901611328125,0.0675506591796875,-0.057098388671875
-0.3193359375,0.1477813720703125,-0.078277587890625
-0.6905975341796875,0.197601318359375,-0.0230712890625
-1.0362396240234375,0.251922607421875,0.2855072021484375
-1.717315673828125,0.090087890625,0.37567138671875
-2.1148681640625,0.0917205810546875,0.703155517578125
-2.234649658203125,-0.3659210205078125,0.7132568359375
-2.158843994140625,-0.482940673828125,0.6462860107421875
-1.4937744140625,-0.815185546875,0.484832763671875
-0.9931793212890624,-0.69110107421875,0.1547393798828125
-0.89654541015625,-0.6800994873046875,0.022369384765625
-0.712615966796875,-0.666656494140625,0.0439453125
-0.69232177734375,-0.572998046875,0.131683349609375
-0.753326416015625,-0.530548095703125,0.1500701904296875
-0.9613189697265624,-0.5329132080078125,0.0906524658203125
-1.2119903564453125,-0.5347900390625,0.016876220703125
-1.4546966552734375,-0.6134490966796875,0.0102996826171875
-1.9509124755859373,-0.613494873046875,0.0985870361328125
-2.4303436279296875,-0.50830078125,0.2213287353515625
-2.011383056640625,-0.177947998046875,0.24957275390625
-1.6732635498046875,-0.09661865234375,0.131134033203125
-1.452880859375,-0.0299530029296875,0.086090087890625
-0.9782867431640624,-0.00311279296875,0.0568084716796875
-0.665557861328125,0.0739898681640625,-0.0139312744140625
-0.3061065673828125,0.15570068359375,-0.0074920654296875
-0.1246337890625,0.1124267578125,-0.061737060546875
-0.07275390625,0.0780181884765625,-0.0786590576171875
-0.12744140625,0.0928192138671875,-0.0514984130859375
-0.19842529296875,0.0775604248046875,-0.03778076171875
-0.5933685302734375,0.0743255615234375,0.052276611328125
-1.065185546875,0.0812530517578125,0.2971038818359375
-1.7810821533203125,-0.164154052734375,0.4056549072265625
-1.93157958984375,-0.1078643798828125,0.812774658203125
-1.819427490234375,-0.359161376953125,0.5869140625
-1.78460693359375,-0.5583343505859375,0.7046356201171875
-1.2062225341796875,-0.8583526611328125,0.44390869140625
-0.9130706787109376,-0.875213623046875,0.2965087890625
-0.74786376953125,-0.824554443359375,0.2016143798828125
-0.6076507568359375,-0.781036376953125,0.20391845703125
-0.5955657958984375,-0.73583984375,0.194854736328125
-0.7125091552734375,-0.7112884521484375,0.1797637939453125
-0.9059600830078124,-0.8069000244140625,0.1827545166015625
-1.4346771240234375,-0.894500732421875,0.27764892578125
-1.67535400390625,-0.79217529296875,0.247314453125
-1.538177490234375,-0.5477294921875,0.2305450439453125
-1.8765716552734373,-0.5242156982421875,0.046417236328125
-2.228240966796875,-0.413330078125,0.1938323974609375
-1.7481689453125,-0.3392181396484375,0.117095947265625
-1.53271484375,-0.2123260498046875,0.1050872802734375
-1.057281494140625,-0.1057586669921875,0.1493682861328125
-0.598236083984375,0.0175323486328125,0.058624267578125
-0.3277587890625,0.1198272705078125,-0.0259552001953125
-0.1670379638671875,0.160308837890625,-0.0897979736328125
-0.01318359375,0.1627655029296875,-0.138214111328125
0.0104217529296875,0.139434814453125,-0.164306640625
-0.19873046875,0.1547698974609375,-0.137786865234375
-0.56048583984375,0.1790313720703125,0.005889892578125
-1.094482421875,-0.0062103271484375,0.17266845703125
-1.636077880859375,-0.0802001953125,0.400054931640625
-2.0212554931640625,-0.3367156982421875,0.603363037109375
-1.92510986328125,-0.5139312744140625,0.478668212890625
-1.76507568359375,-0.461395263671875,0.341064453125
-1.5086517333984375,-0.429412841796875,0.1534423828125
-1.362701416015625,-0.5878753662109375,0.1175689697265625
-1.330657958984375,-0.78106689453125,0.243621826171875
-1.1278839111328125,-0.825286865234375,0.3050994873046875
-0.92669677734375,-0.735107421875,0.2794952392578125
-0.8543853759765625,-0.62908935546875,0.2260589599609375
-0.9114532470703124,-0.4649658203125,0.06878662109375
-1.065460205078125,-0.4409637451171875,0.2028045654296875
-1.240142822265625,-0.54730224609375,0.2569122314453125
-1.753265380859375,-0.60931396484375,0.316802978515625
-2.2082672119140625,-0.6187896728515625,0.4704132080078125
-2.1098785400390625,-0.435211181640625,0.35302734375
-2.1788787841796875,-0.22222900390625,0.308624267578125
-1.807952880859375,-0.0083160400390625,0.348236083984375
-1.3622283935546875,0.0196990966796875,0.214935302734375
-0.9043426513671876,0.214447021484375,0.16107177734375
-0.5372161865234375,0.2222137451171875,0.0626373291015625
-0.3341522216796875,0.1727752685546875,0.0252685546875
-0.1349639892578125,0.17645263671875,0.0005035400390625
-0.0162506103515625,0.08795166015625,-0.03558349609375
0.1222076416015625,0.0573577880859375,0.0195770263671875
0.16455078125,-0.0584564208984375,-0.04339599609375
-0.218719482421875,-0.025543212890625,0.0253143310546875
-0.64697265625,0.061431884765625,0.384979248046875
-1.5882720947265625,0.12176513671875,0.15179443359375
-2.1326446533203125,-0.11767578125,0.8007354736328125
-2.07476806640625,-0.5023040771484375,0.4706268310546875
-2.013885498046875,-0.361358642578125,0.52362060546875
-1.6097412109375,-0.42095947265625,0.3795928955078125
-1.3549957275390625,-0.487091064453125,0.2509002685546875
-1.154266357421875,-0.6013336181640625,0.1551513671875
-0.9269561767578124,-0.592987060546875,0.0320281982421875
-0.7801513671875,-0.6011810302734375,-0.0625762939453125
-0.857208251953125,-0.5952911376953125,-0.0762176513671875
-0.9715423583984376,-0.5824737548828125,-0.001190185546875
-1.1254730224609375,-0.533966064453125,0.0415802001953125
-1.3136444091796875,-0.51116943359375,0.0979461669921875
-1.3169708251953125,-0.4406280517578125,0.0872955322265625
-1.5318603515625,-0.4696044921875,-0.0029449462890625
-1.8763580322265625,-0.4888763427734375,-0.065338134765625
-2.301498413085937,-0.5248870849609375,-0.0146331787109375
-1.964141845703125,-0.2899169921875,-0.193206787109375
-1.8058319091796875,-0.02850341796875,-0.3664093017578125
-1.4620208740234375,0.06494140625,-0.285614013671875
-0.874908447265625,0.13739013671875,-0.2111968994140625
-0.4652862548828125,0.2073974609375,-0.1818695068359375
-0.3127593994140625,0.21246337890625,-0.171417236328125
-0.2303619384765625,0.1895599365234375,-0.07696533203125
-0.1461639404296875,0.0866241455078125,-0.043487548828125
-0.2233428955078125,-0.01708984375,-0.0865478515625
-0.310455322265625,-0.1526031494140625,-0.170013427734375
-0.5005950927734375,-0.142120361328125,-0.24951171875
-0.659027099609375,0.081695556640625,-0.329559326171875
-0.845123291015625,0.102996826171875,-0.331695556640625
-1.231170654296875,0.0316162109375,-0.2965087890625
-1.66192626953125,-0.0874176025390625,-0.305877685546875
-1.752166748046875,-0.0764923095703125,-0.9074249267578124
-1.5457763671875,0.029449462890625,-1.1636810302734375
-1.273895263671875,-0.1684417724609375,-0.98382568359375
-1.2073974609375,-0.374420166015625,-0.787994384765625
-0.9282073974609376,-0.3892822265625,-0.73809814453125
-0.73260498046875,-0.4716644287109375,-0.7492218017578125
-0.7161407470703125,-0.5565032958984375,-0.779632568359375
-0.74383544921875,-0.5580596923828125,-0.8762664794921875
-0.7985687255859375,-0.5229644775390625,-0.9251708984375
-0.899078369140625,-0.4482574462890625,-1.0325927734375
-0.9636993408203124,-0.279449462890625,-1.2046051025390625
-1.10205078125,-0.133209228515625,-1.433135986328125
-1.530487060546875,-0.1048736572265625,-1.5630950927734375
-1.748046875,-0.0550994873046875,-1.15997314453125
-1.417022705078125,-0.007904052734375,-1.1330413818359375
-1.3812255859375,0.0355224609375,-0.7923431396484375
-1.1814117431640625,0.035125732421875,-0.4399871826171875
-0.770477294921875,0.1632537841796875,-0.2171478271484375
-0.45947265625,0.2226715087890625,-0.139312744140625
-0.312408447265625,0.2512054443359375,-0.11053466796875
-0.2698516845703125,0.30096435546875,-0.088134765625
-0.3262481689453125,0.2418060302734375,-0.032623291015625
-0.487518310546875,0.2383880615234375,0.038604736328125
-0.8520660400390625,0.175628662109375,-0.0142059326171875
-1.1166229248046875,0.0828094482421875,0.091766357421875
-1.518890380859375,0.0417938232421875,-0.118865966796875
-1.9686431884765625,0.016876220703125,0.0866546630859375
-2.120697021484375,-0.2592010498046875,0.099334716796875
-1.862213134765625,-0.4139556884765625,0.02099609375
-1.628570556640625,-0.548797607421875,-0.123687744140625
-1.3935089111328125,-0.650543212890625,-0.2010040283203125
-0.9960784912109376,-0.73431396484375,-0.2424774169921875
-0.8714447021484375,-0.7078094482421875,-0.378326416015625
-0.8878631591796875,-0.6212005615234375,-0.51123046875
-1.069671630859375,-0.5330810546875,-0.4032745361328125
-1.3668975830078125,-0.527587890625,-0.4607391357421875
-1.834564208984375,-0.3694610595703125,-0.4574737548828125
-2.045028686523437,-0.3737640380859375,-0.867767333984375
-2.625961303710937,-0.1579437255859375,-0.8576507568359375
-2.331329345703125,0.0567779541015625,-0.4588470458984375
-1.53472900390625,0.23333740234375,-0.3069000244140625
-0.9279937744140624,0.3347930908203125,-0.2795562744140625
-0.6448211669921875,0.29119873046875,-0.3098297119140625
-0.4157257080078125,0.2410430908203125,-0.3066253662109375
-0.1381683349609375,0.1965179443359375,-0.1731414794921875
-0.0009765625,0.0819244384765625,-0.104034423828125
0.0684814453125,0.048431396484375,-0.0653228759765625
0.021453857421875,0.1124725341796875,-0.07061767578125
-0.3468475341796875,0.16009521484375,-0.1218109130859375
-1.168212890625,0.2566375732421875,0.0452423095703125
-1.6252593994140625,0.21185302734375,0.1965789794921875
-1.9048309326171875,0.0908966064453125,0.511016845703125
-1.9911346435546875,-0.0437469482421875,0.7303466796875
-1.769134521484375,-0.125457763671875,0.5661773681640625
-1.68267822265625,-0.2626495361328125,0.298126220703125
-1.522430419921875,-0.4190521240234375,0.27911376953125
-1.34625244140625,-0.52593994140625,0.13018798828125
-1.175537109375,-0.6326751708984375,0.04620361328125
-1.082244873046875,-0.6639251708984375,-0.0406951904296875
-1.0878753662109375,-0.614044189453125,-0.17584228515625
-1.2555389404296875,-0.578399658203125,-0.1570281982421875
-1.621124267578125,-0.492828369140625,-0.1592864990234375
-1.9229278564453125,-0.5202484130859375,-0.249847412109375
-2.6855926513671875,-0.4719696044921875,-0.0185546875
-2.3397369384765625,-0.111541748046875,0.25872802734375
-1.9613494873046875,0.0276336669921875,0.19390869140625
-1.548583984375,0.1626129150390625,0.2376556396484375
-1.031402587890625,0.2283782958984375,0.0452880859375
-0.6616973876953125,0.2790069580078125,-0.0823516845703125
-0.3924560546875,0.1813201904296875,-0.1219024658203125
-0.2044830322265625,0.03521728515625,-0.084259033203125
-0.1412506103515625,-0.1198883056640625,-0.062774658203125
-0.0110015869140625,-0.1849212646484375,-0.04168701171875
0.0501556396484375,-0.2110748291015625,-0.043975830078125
-0.005218505859375,-0.1824798583984375,-0.0197296142578125
-0.1143798828125,-0.0526885986328125,0.1063385009765625
-0.313018798828125,-0.20513916015625,0.2468109130859375
-0.4917755126953125,-0.0601348876953125,0.59320068359375
-0.8938751220703125,0.1171417236328125,0.493255615234375
-1.53973388671875,0.247802734375,0.5252838134765625
-2.17724609375,-0.2347564697265625,0.4174041748046875
-2.5048370361328125,-0.039642333984375,0.8035888671875
-2.1308135986328125,-0.439453125,0.289398193359375
-1.690948486328125,-0.490966796875,0.3891143798828125
-1.3136444091796875,-0.596435546875,0.404083251953125
-1.124053955078125,-0.4720458984375,0.42340087890625
-0.828826904296875,-0.3723907470703125,0.242950439453125
-0.7989349365234375,-0.371490478515625,0.1559906005859375
-0.7837677001953125,-0.363189697265625,0.1307220458984375
-0.7939300537109375,-0.3245697021484375,0.114654541015625
-0.950164794921875,-0.34954833984375,0.1624298095703125
-0.91082763671875,-0.3570556640625,0.240386962890625
-1.2677154541015625,-0.42364501953125,0.1686553955078125
-2.0448150634765625,-0.499969482421875,0.3165283203125
-2.5808868408203125,-0.6438446044921875,-0.06292724609375
-2.232177734375,-0.3618011474609375,-0.089019775390625
-1.98675537109375,-0.29180908203125,-0.2908172607421875
-1.6151275634765625,-0.1350860595703125,-0.2147979736328125
-1.1778564453125,0.027740478515625,-0.1237030029296875
-0.6520233154296875,0.1484222412109375,-0.1096038818359375
-0.3179473876953125,0.1884765625,-0.1132659912109375
-0.1611175537109375,0.12384033203125,-0.171905517578125
-0.1790924072265625,0.123138427734375,-0.1246490478515625
-0.255615234375,0.039825439453125,-0.20086669921875
-0.3850250244140625,0.096771240234375,-0.2066802978515625
-0.3914794921875,0.1072845458984375,-0.137237548828125
-0.68890380859375,0.248382568359375,-0.0590667724609375
-1.3285064697265625,0.6767120361328125,0.415191650390625
-1.633026123046875,0.4582977294921875,0.5232086181640625
-2.649276733398437,0.255828857421875,0.4197540283203125
-2.4813232421875,-0.2670745849609375,0.3668365478515625
-2.317657470703125,-0.7462310791015625,0.4336700439453125
-1.6715087890625,-0.9702911376953124,0.296661376953125
-1.2162322998046875,-1.0435028076171875,0.1612396240234375
-0.92535400390625,-0.9272308349609376,0.081512451171875
-0.76202392578125,-0.744293212890625,0.05780029296875
-0.8848419189453125,-0.46929931640625,0.0756378173828125
-1.0010528564453125,-0.1667327880859375,0.0253753662109375
-0.9923858642578124,-0.1491546630859375,0.1464385986328125
-1.1555633544921875,-0.250518798828125,0.1796417236328125
-1.3333587646484375,-0.49981689453125,0.140350341796875
-1.566314697265625,-0.7524566650390625,-0.0662689208984375
-1.7493743896484375,-0.76495361328125,-0.1269378662109375
-1.908905029296875,-0.624755859375,-0.11895751953125
-2.6171875,-0.304595947265625,0.1533660888671875
-2.610565185546875,-0.0494842529296875,-0.0515289306640625
-2.44720458984375,-0.0142822265625,0.0829925537109375
-1.8363189697265625,0.188507080078125,0.0877532958984375
-1.0326995849609375,0.36407470703125,-0.0180206298828125
-0.507049560546875,0.3803253173828125,-0.08770751953125
-0.2269439697265625,0.407684326171875,-0.07269287109375
-0.039886474609375,0.4129638671875,-0.079833984375
0.1046295166015625,0.2822265625,-0.1167449951171875
0.0482025146484375,0.21649169921875,-0.078826904296875
-0.1268157958984375,0.1638031005859375,-0.043914794921875
-0.5704498291015625,0.0570526123046875,0.0808868408203125
-0.881317138671875,-0.0682525634765625,0.20953369140625
-1.3311004638671875,-0.04168701171875,0.276123046875
-2.179046630859375,0.199127197265625,0.4986724853515625
-2.4748992919921875,-0.02008056640625,0.6252899169921875
-2.4821319580078125,-0.107696533203125,0.5265045166015625
-1.98834228515625,-0.4646759033203125,0.29376220703125
-1.639495849609375,-0.8985595703125,0.4184722900390625
-1.231964111328125,-0.983612060546875,0.1328125
-0.995208740234375,-0.8681182861328125,-0.0894012451171875
-0.99652099609375,-0.7157440185546875,0.0313262939453125
-0.991790771484375,-0.563262939453125,0.1151123046875
-1.1645965576171875,-0.443450927734375,0.0856170654296875
-1.47430419921875,-0.457305908203125,0.0109100341796875
-1.8539886474609373,-0.4725494384765625,0.0397796630859375
-2.19140625,-0.451995849609375,0.0978546142578125
-2.58062744140625,-0.4715728759765625,0.210174560546875
-2.4867706298828125,-0.11383056640625,0.1093292236328125
-2.102691650390625,0.19415283203125,-0.0345306396484375
-1.7566070556640625,0.410980224609375,-0.045318603515625
-1.0885467529296875,0.3283538818359375,0.1810760498046875
-0.4483642578125,0.4141387939453125,0.138427734375
-0.034088134765625,0.363433837890625,0.036956787109375
0.1394805908203125,0.315887451171875,0.0198516845703125
0.2435150146484375,0.2310333251953125,0.1032257080078125
0.332550048828125,0.142242431640625,0.1170806884765625
0.203826904296875,0.071075439453125,-0.014129638671875
-0.3988494873046875,-0.025909423828125,0.0068817138671875
-1.268798828125,-0.249267578125,0.3614654541015625
-1.413330078125,0.0099029541015625,0.3928680419921875
-1.9281463623046875,0.0966949462890625,0.401947021484375
-2.14495849609375,-0.0052337646484375,0.4870452880859375
-2.2049713134765625,-0.101043701171875,0.30682373046875
-1.9241485595703125,-0.175201416015625,0.2849578857421875
-1.4467315673828125,-0.399017333984375,0.1882781982421875
-0.95166015625,-0.5514984130859375,0.156890869140625
-0.915496826171875,-0.625396728515625,0.056793212890625
-0.8852691650390625,-0.625,-0.0640869140625
-0.872100830078125,-0.6877593994140625,-0.2012481689453125
-0.958282470703125,-0.76446533203125,-0.26129150390625
-0.9552764892578124,-0.8914947509765625,-0.024017333984375
-1.1630401611328125,-0.903717041015625,-0.1575775146484375
-1.660064697265625,-0.9146728515625,-0.0899200439453125
-2.096054077148437,-1.0028839111328125,-0.193450927734375
-2.427276611328125,-0.8859405517578125,-0.261505126953125
-2.0870513916015625,-0.5475311279296875,-0.321044921875
-1.3527069091796875,-0.179443359375,-0.29595947265625
-0.767608642578125,-0.1098480224609375,-0.2270660400390625
-0.385894775390625,-0.0555877685546875,-0.1261138916015625
-0.09503173828125,0.025604248046875,-0.07110595703125
0.0633392333984375,-0.03375244140625,-0.090606689453125
0.1289825439453125,-0.0243988037109375,-0.0696258544921875
0.1436767578125,0.0803070068359375,-0.19024658203125
0.053009033203125,0.1138458251953125,-0.2309112548828125
-0.3522796630859375,0.1777801513671875,-0.130035400390625
-0.7116851806640625,0.2986907958984375,-0.0571441650390625
-0.81378173828125,0.205535888671875,0.0439605712890625
-1.1879119873046875,0.398834228515625,0.1499786376953125
-1.9473876953125,0.4206390380859375,0.22442626953125
-2.3887176513671875,0.3445892333984375,0.241424560546875
-2.37109375,0.0663299560546875,0.15301513671875
-2.207489013671875,0.0253448486328125,0.26641845703125
-1.878814697265625,-0.211700439453125,0.2218170166015625
-1.58331298828125,-0.3099365234375,0.231842041015625
-1.195953369140625,-0.3592987060546875,0.13616943359375
-0.98602294921875,-0.40618896484375,0.0509033203125
-0.924072265625,-0.498504638671875,-0.02264404296875
-0.90045166015625,-0.5386810302734375,-0.08880615234375
-0.9784088134765624,-0.5338134765625,-0.182647705078125
-1.230987548828125,-0.578887939453125,-0.2052459716796875
-1.5601806640625,-0.751953125,-0.1888427734375
-2.086181640625,-0.759307861328125,-0.297882080078125
-2.164093017578125,-0.4829864501953125,-0.0901031494140625
-2.154205322265625,-0.319915771484375,-0.290924072265625
-2.215850830078125,-0.13800048828125,-0.2554473876953125
-1.742401123046875,-0.0419921875,-0.198516845703125
-1.38031005859375,-0.0761566162109375,-0.302947998046875
-0.90216064453125,-0.0074005126953125,-0.193267822265625
-0.5775146484375,0.0155181884765625,-0.1435546875
-0.306610107421875,0.0017547607421875,-0.1607818603515625
-0.152252197265625,-0.010040283203125,-0.1643524169921875
-0.0132598876953125,-0.043853759765625,-0.0949859619140625
0.0870513916015625,-0.068206787109375,-0.00372314453125
0.113189697265625,-0.08349609375,0.0587615966796875
0.2519073486328125,0.0699920654296875,-0.197967529296875
-0.2145538330078125,0.101776123046875,-0.193511962890625
-0.2802276611328125,-0.303741455078125,-0.1396331787109375
-0.7501678466796875,-0.2363433837890625,0.17218017578125
-1.2030487060546875,-0.086212158203125,0.176727294921875
-1.545806884765625,0.2302398681640625,0.3594970703125
-2.061859130859375,0.2622833251953125,0.58978271484375
-2.703033447265625,0.2997283935546875,0.838165283203125
-2.685089111328125,-0.2931671142578125,0.7492218017578125
-1.8219451904296875,-0.5252532958984375,0.40728759765625
-1.0079193115234375,-0.4369354248046875,0.1816253662109375
-0.9060211181640624,-0.61834716796875,0.1505584716796875
-0.926361083984375,-0.75054931640625,0.19842529296875
-0.949615478515625,-0.73773193359375,0.01617431640625
-0.897735595703125,-0.65142822265625,-0.19244384765625
-0.8758087158203125,-0.5583953857421875,-0.256195068359375
-0.90264892578125,-0.4833984375,-0.2405242919921875
-0.9672698974609376,-0.3959197998046875,-0.181549072265625
-1.03863525390625,-0.410430908203125,-0.1956329345703125
-1.4710540771484375,-0.5211181640625,-0.1733245849609375
-2.0952606201171875,-0.655120849609375,-0.2548065185546875
-2.825531005859375,-0.9382781982421876,-0.166534423828125
-2.4144439697265625,-0.470550537109375,-0.0729522705078125
-2.0697174072265625,-0.2627716064453125,-0.213226318359375
-1.577850341796875,-0.0344390869140625,-0.106414794921875
-0.8670654296875,0.24951171875,-0.0565338134765625
-0.3566741943359375,0.35888671875,0.017425537109375
-0.0411224365234375,0.2972412109375,0.0284576416015625
0.1624298095703125,0.1945648193359375,0.0925750732421875
0.20013427734375,0.1585235595703125,0.0722503662109375
0.2551422119140625,0.0738525390625,0.05828857421875
0.1600494384765625,0.0684814453125,-0.0473480224609375
-0.2965087890625,0.2286834716796875,-0.06500244140625
-0.6655120849609375,0.120391845703125,-0.011077880859375
-1.2421417236328125,0.2519378662109375,0.250518798828125
-2.2622833251953125,0.0842742919921875,0.475494384765625
-2.31732177734375,-0.2886810302734375,0.5587921142578125
-2.545135498046875,-0.3548431396484375,0.48638916015625
-1.9936065673828125,-0.3356475830078125,0.5327606201171875
-1.3147125244140625,-0.4380950927734375,0.3595733642578125
-0.9546356201171876,-0.3157958984375,0.33197021484375
-0.809539794921875,-0.2682952880859375,0.1847381591796875
-0.9709930419921876,-0.4830322265625,0.0788726806640625
-1.4151763916015625,-0.741302490234375,0.163787841796875
-1.143341064453125,-0.7946014404296875,0.0233306884765625
-0.87652587890625,-0.8253326416015625,0.1676177978515625
-0.984344482421875,-0.938690185546875,0.118621826171875
-1.320068359375,-1.0517425537109375,-0.0343170166015625
-1.9814910888671875,-1.104827880859375,-0.24114990234375
-2.722640991210937,-0.871673583984375,-0.118560791015625
-2.0533599853515625,-0.444183349609375,0.0147247314453125
-1.2519378662109375,-0.035980224609375,0.094818115234375
-0.835052490234375,-0.011383056640625,-0.0337371826171875
-1.0238037109375,-0.203582763671875,-0.170257568359375
-1.1067657470703125,-0.16265869140625,0.061798095703125
-0.564788818359375,-0.27899169921875,0.0613861083984375
-0.279632568359375,-0.202606201171875,-0.072662353515625
-0.0710601806640625,-0.1204376220703125,-0.1139984130859375
0.090484619140625,-0.1943511962890625,-0.086334228515625
0.0576171875,-0.0608062744140625,0.053558349609375
0.00506591796875,0.0707855224609375,0.07440185546875
-0.15771484375,0.0210723876953125,0.0323333740234375
-0.3241424560546875,0.0188446044921875,0.1321868896484375
-0.89093017578125,-0.080810546875,-0.043548583984375
-1.0777587890625,0.104766845703125,0.2938385009765625
-1.4525299072265625,-0.22906494140625,0.2222747802734375
-1.4577178955078125,0.0378875732421875,0.7017364501953125
-2.329132080078125,-0.4718170166015625,0.583892822265625
-2.4856719970703125,-0.06866455078125,0.9023284912109376
-2.220565795898437,-0.9384307861328124,0.3606109619140625
-1.6786041259765625,-0.373992919921875,0.355316162109375
-1.1723175048828125,-0.110748291015625,0.0732574462890625
-0.8783721923828125,-0.1252899169921875,0.348388671875
-0.6914215087890625,-0.1831207275390625,0.321502685546875
-0.568634033203125,-0.3332672119140625,0.14288330078125
-0.79144287109375,-0.5660247802734375,0.1934967041015625
-0.982025146484375,-0.755950927734375,0.176025390625
-0.9749298095703124,-0.7519683837890625,0.1843719482421875
-0.9728546142578124,-0.6684112548828125,0.0764007568359375
-1.1354217529296875,-0.6820831298828125,0.0392303466796875
-1.3135833740234375,-0.7291717529296875,-0.0078125
-1.723968505859375,-0.6957244873046875,-0.0192413330078125
-2.1162567138671875,-0.826141357421875,0.2679290771484375
-1.9410247802734373,-0.587554931640625,0.2263946533203125
-1.6361541748046875,-0.3223114013671875,0.2170867919921875
-1.469757080078125,-0.3983917236328125,0.24224853515625
-1.0576324462890625,-0.174163818359375,0.202178955078125
-0.4407958984375,0.0507049560546875,0.0608978271484375
-0.0783538818359375,0.2340545654296875,-0.1504669189453125
0.177581787109375,0.2535400390625,-0.2643280029296875
0.1774139404296875,0.2449798583984375,-0.139007568359375
0.0464935302734375,0.1538238525390625,0.0235137939453125
-0.129638671875,0.096099853515625,0.1142120361328125
-0.4413909912109375,0.0963287353515625,0.1190643310546875
-0.8601226806640625,0.413909912109375,0.1521759033203125
-1.799407958984375,-0.0152740478515625,0.250732421875
-2.13116455078125,0.3693084716796875,0.572845458984375
-2.3492889404296875,-0.6254119873046875,0.4336090087890625
-2.1245574951171875,-0.3339080810546875,0.5583648681640625
-1.7244110107421875,-0.537750244140625,0.1487274169921875
-1.3213043212890625,-0.51593017578125,0.2393646240234375
-0.992889404296875,-0.6287689208984375,0.1630706787109375
-0.949249267578125,-0.672760009765625,0.0720672607421875
-0.924652099609375,-0.6891632080078125,0.056182861328125
-0.9124603271484376,-0.6600189208984375,0.0164337158203125
-0.9247283935546876,-0.6004638671875,-0.003082275390625
-1.0631561279296875,-0.5522918701171875,-0.0466461181640625
-1.3240509033203125,-0.57293701171875,-0.1103973388671875
-1.6662445068359375,-0.6130218505859375,-0.2050933837890625
-2.188232421875,-0.6453399658203125,-0.228912353515625
-2.3627166748046875,-0.56103515625,-0.08245849609375
-1.9332733154296875,-0.397613525390625,-0.2102508544921875
-1.68133544921875,-0.1840667724609375,-0.334930419921875
-1.2172393798828125,-0.058135986328125,-0.1355133056640625
-0.71484375,0.0419769287109375,-0.0987548828125
-0.4427490234375,0.1252593994140625,-0.18426513671875
-0.249603271484375,0.1505279541015625,-0.145050048828125
-0.1470184326171875,0.0990142822265625,-0.01702880859375
-0.0742950439453125,0.0795135498046875,-0.09197998046875
-0.176910400390625,0.19146728515625,-0.1675872802734375
-0.3684844970703125,0.4693756103515625,-0.050567626953125
-0.7167510986328125,0.5859375,-0.1548309326171875
-1.229705810546875,0.7366790771484375,0.1717071533203125
-1.8900146484375,0.4088592529296875,0.2556304931640625
-2.551422119140625,0.221099853515625,0.3661346435546875
-2.7777099609375,-0.2832183837890625,0.215057373046875
-2.1188201904296875,-0.6360321044921875,0.1423492431640625
-1.48193359375,-0.8051300048828125,0.0838165283203125
-1.08612060546875,-0.8883514404296875,0.06597900390625
-0.9457244873046876,-0.9046630859375,-0.022064208984375
-0.8985137939453125,-0.8338623046875,-0.0670013427734375
-1.012908935546875,-0.7362060546875,-0.0218658447265625
-1.2190093994140625,-0.6839752197265625,-0.0730438232421875
-1.4394683837890625,-0.5833740234375,-0.1268768310546875
-1.747283935546875,-0.5166778564453125,-0.357025146484375
-2.119110107421875,-0.5257415771484375,-0.329437255859375
-2.410995483398437,-0.300933837890625,-0.522247314453125
-1.7638397216796875,0.044219970703125,-0.462188720703125
-1.2005462646484375,0.116668701171875,-0.5927734375
-0.95013427734375,0.1627655029296875,-0.58074951171875
-0.624298095703125,0.102203369140625,-0.5203094482421875
-0.471923828125,0.0989990234375,-0.3871307373046875
-0.2521209716796875,0.086212158203125,-0.25054931640625
-0.1508636474609375,0.0371551513671875,-0.1957855224609375
-0.1988983154296875,0.0379791259765625,-0.22869873046875
-0.3008270263671875,-0.066162109375,-0.223602294921875
-0.48162841796875,-0.205413818359375,-0.2520904541015625
-0.6083831787109375,-0.24530029296875,-0.3337249755859375
-0.694091796875,-0.1386260986328125,-0.3630218505859375
-0.8693084716796875,0.134124755859375,-0.3886871337890625
-0.8335418701171875,0.11444091796875,-0.371246337890625
-1.0238189697265625,0.181396484375,-0.258392333984375
-1.2593536376953125,0.2353515625,-0.0766754150390625
-1.6660003662109375,0.0302734375,-0.2540740966796875
-1.9886016845703125,-0.1468353271484375,-0.022674560546875
-1.830413818359375,-0.44171142578125,-0.3321380615234375
-1.687103271484375,-0.572052001953125,-0.2418670654296875
-1.2508544921875,-0.7584228515625,-0.112091064453125
-1.10211181640625,-0.764739990234375,-0.0419158935546875
-0.96453857421875,-0.7277984619140625,-0.0664215087890625
-1.0201263427734375,-0.66168212890625,-0.0309906005859375
-1.1571044921875,-0.644866943359375,-0.0810546875
-1.518341064453125,-0.6074981689453125,-0.1161956787109375
-1.7362213134765625,-0.624969482421875,-0.1244049072265625
-1.889373779296875,-0.5970916748046875,-0.112152099609375
-2.6038055419921875,-0.5081787109375,-0.1453857421875
-2.48699951171875,-0.10931396484375,-0.0198822021484375
-2.0907745361328125,0.06951904296875,-0.0426177978515625
-1.356689453125,0.0444488525390625,0.0316619873046875
-0.7111968994140625,0.1544189453125,0.135711669921875
-0.1667022705078125,0.25732421875,0.111785888671875
-0.0124664306640625,0.2570343017578125,0.0528717041015625
0.2155914306640625,0.1849365234375,-0.102508544921875
0.327423095703125,0.06842041015625,-0.2273101806640625
0.179931640625,0.1224517822265625,-0.1226806640625
-0.0365142822265625,0.0653076171875,-0.01470947265625
-0.356903076171875,0.1014556884765625,-0.0398406982421875
-0.9163360595703124,0.24957275390625,0.1581878662109375
-1.7669830322265625,-0.113739013671875,0.2005767822265625
-2.1754150390625,-0.5565338134765625,0.2075042724609375
-2.8137664794921875,-0.92901611328125,0.084625244140625
-2.396026611328125,-1.12066650390625,-0.0882110595703125
-1.2801971435546875,-0.85797119140625,0.0091094970703125
-0.609466552734375,-0.7095489501953125,0.001495361328125
-0.446624755859375,-0.7342987060546875,-0.07159423828125
-0.4722747802734375,-0.909698486328125,-0.17034912109375
-0.9740142822265624,-1.08966064453125,-0.2025299072265625
-0.979583740234375,-1.0851898193359375,-0.0713958740234375
-0.820343017578125,-0.98846435546875,-0.131103515625
-1.0583648681640625,-0.8829193115234375,-0.1902313232421875
-1.4145965576171875,-0.8754730224609375,-0.18438720703125
-1.917938232421875,-0.8343353271484375,-0.145050048828125
-1.8812103271484373,-0.7006683349609375,-0.0492401123046875
-1.9152679443359373,-0.4415283203125,-0.1227264404296875
-1.44207763671875,-0.1940460205078125,-0.0461273193359375
-0.76629638671875,-0.0686492919921875,-0.0055084228515625
-0.400299072265625,0.0322723388671875,0.048248291015625
-0.2343902587890625,0.1103668212890625,0.0618438720703125
-0.204925537109375,0.16650390625,0.068511962890625
-0.15936279296875,0.29669189453125,0.1162261962890625
-0.159637451171875,0.234222412109375,0.02020263671875
-0.33721923828125,0.2048187255859375,0.0187225341796875
-0.8730316162109375,0.1124420166015625,-0.0692291259765625
-1.6199951171875,0.0647735595703125,-0.037109375
-2.28204345703125,-0.4731597900390625,-0.060821533203125
-2.150863647460937,-0.525177001953125,0.33892822265625
-1.870330810546875,-0.5241546630859375,-0.081634521484375
-1.5787200927734375,-0.6337432861328125,-0.112579345703125
-1.08258056640625,-0.8375244140625,-0.17047119140625
-0.8915252685546875,-0.811309814453125,-0.183837890625
-0.8384246826171875,-0.754913330078125,-0.1083526611328125
-0.893951416015625,-0.709808349609375,0.003448486328125
-1.5419921875,-0.7571563720703125,0.1315460205078125
-2.0531768798828125,-0.7006683349609375,0.354034423828125
-1.9423370361328125,-0.3628692626953125,0.4193878173828125
-2.007797241210937,-0.24530029296875,0.2432098388671875
-2.183990478515625,-0.052154541015625,0.2115478515625
-1.6721343994140625,0.174560546875,0.1996612548828125
-0.879180908203125,0.1360931396484375,0.06719970703125
-0.4056243896484375,0.1541900634765625,0.0243072509765625
-0.0337982177734375,0.13720703125,-0.03143310546875
0.1280517578125,0.1481170654296875,-0.0401153564453125
0.2088623046875,0.0723724365234375,-0.00225830078125
0.286041259765625,-0.0116119384765625,0.0595245361328125
0.306304931640625,-0.0986328125,0.1205902099609375
0.0030364990234375,-0.0560455322265625,0.1112518310546875
-0.6611175537109375,-0.004241943359375,0.230194091796875
-1.475433349609375,0.1646728515625,0.3469085693359375
-2.065948486328125,-0.095428466796875,0.68695068359375
-2.494415283203125,-0.3914794921875,0.4694671630859375
-2.085067749023437,-0.09759521484375,0.6468505859375
-1.7046966552734375,-0.4321746826171875,0.2292327880859375
-1.2483673095703125,-0.452056884765625,0.1168212890625
-0.82940673828125,-0.4833984375,-0.083160400390625
-0.6016693115234375,-0.450836181640625,-0.064056396484375
-0.63983154296875,-0.5023651123046875,-0.1539306640625
-0.9036102294921876,-0.5770111083984375,-0.0663299560546875
-1.2841949462890625,-0.667510986328125,-0.0544281005859375
-1.6144866943359375,-0.736846923828125,0.237823486328125
-1.5123748779296875,-0.64727783203125,0.632598876953125
-1.615447998046875,-0.495391845703125,0.343658447265625
-2.103607177734375,-0.6600494384765625,0.6883544921875
-2.157196044921875,-0.3796234130859375,1.0150146484375
-1.8824462890625,-0.16278076171875,0.8157196044921875
-1.5030517578125,-0.00213623046875,0.5032806396484375
-0.9285736083984376,0.1015472412109375,0.2773284912109375
-0.4058074951171875,0.099945068359375,0.1036834716796875
-0.131622314453125,0.0989532470703125,0.043212890625
-0.0431060791015625,0.0812530517578125,0.017791748046875
0.1932525634765625,0.1172332763671875,-0.079345703125
0.2470703125,0.0770263671875,-0.2163848876953125
-0.08111572265625,0.132476806640625,-0.1496429443359375
-0.526947021484375,0.282379150390625,0.03778076171875
-1.6390380859375,0.3245697021484375,0.3003997802734375
-2.2231903076171875,-0.076202392578125,0.3944549560546875
-2.3229217529296875,-0.323974609375,0.2016448974609375
-1.89111328125,-0.582672119140625,0.0823822021484375
-1.50140380859375,-0.70458984375,0.049102783203125
-1.131317138671875,-0.769622802734375,-0.0937957763671875
-0.9186248779296876,-0.8680267333984375,-0.217620849609375
-0.814483642578125,-1.0112762451171875,-0.298980712890625
-0.8079681396484375,-1.0419769287109375,-0.4325714111328125
-0.8525848388671875,-0.962005615234375,-0.5006561279296875
-1.1436920166015625,-0.8350372314453125,-0.5164337158203125
-1.6220550537109375,-0.8337249755859375,-0.3708038330078125
-1.8425140380859373,-0.804534912109375,-0.2721405029296875
-2.4185028076171875,-0.67584228515625,-0.2998504638671875
-2.177947998046875,-0.384735107421875,0.0013580322265625
-1.68890380859375,-0.279815673828125,-0.029083251953125
-1.2404022216796875,-0.1061248779296875,-0.05615234375
-0.824432373046875,0.23944091796875,0.0013275146484375
-0.44122314453125,0.5596771240234375,0.0780487060546875
-0.2652587890625,0.6914825439453125,0.096435546875
0.1454620361328125,0.4313812255859375,-0.0125885009765625
0.0471649169921875,0.4226531982421875,0.0620574951171875
-0.3262939453125,0.1967620849609375,0.006988525390625
-0.9087371826171876,-0.051422119140625,0.127410888671875
-1.3042449951171875,-0.115692138671875,0.34210205078125
-2.0489501953125,-0.1612701416015625,0.6756591796875
-2.0930938720703125,-0.3370208740234375,0.7294464111328125
-1.9229583740234373,-0.4100494384765625,0.4542083740234375
-1.83563232421875,-0.631011962890625,0.5648193359375
-1.630889892578125,-0.8463897705078125,0.5873870849609375
-1.2009429931640625,-0.8408660888671875,0.4067535400390625
-1.124542236328125,-0.8641204833984375,0.2704315185546875
-1.120635986328125,-0.9259796142578124,0.19256591796875
-1.143951416015625,-0.8463287353515625,0.0473480224609375
-1.2252349853515625,-0.77362060546875,-0.0683441162109375
-1.0931243896484375,-0.4081268310546875,-0.1130523681640625
-1.042449951171875,-0.19757080078125,-0.0246429443359375
-1.170989990234375,-0.495269775390625,0.0984954833984375
-1.590484619140625,-0.917266845703125,0.4666748046875
-1.4839935302734375,-0.6116943359375,0.419036865234375
-1.014434814453125,-0.520050048828125,0.162261962890625
-0.707550048828125,-0.3892822265625,0.2382965087890625
-0.459625244140625,-0.213531494140625,0.32049560546875
-0.146270751953125,-0.103179931640625,0.14874267578125
0.002471923828125,0.0072174072265625,-0.0335845947265625
-0.0295257568359375,0.1181640625,-0.1070098876953125
-0.1127471923828125,0.107940673828125,-0.1193084716796875
-0.2536468505859375,0.2042388916015625,-0.0156707763671875
-0.4710845947265625,0.250396728515625,0.09759521484375
-1.1717681884765625,0.1759033203125,0.2178802490234375
-2.222274780273437,0.3641510009765625,0.658935546875
-2.78936767578125,0.2390289306640625,0.7499237060546875
-2.1549224853515625,-0.2521514892578125,0.3304443359375
-1.6175994873046875,-0.51751708984375,0.12713623046875
-1.5748443603515625,-0.710601806640625,0.1569366455078125
-1.463348388671875,-0.7875518798828125,0.20159912109375
-1.1067962646484375,-0.7230987548828125,0.010162353515625
-0.8403472900390625,-0.6094207763671875,-0.03363037109375
-0.79925537109375,-0.557769775390625,0.1060791015625
-0.957427978515625,-0.52252197265625,0.2595367431640625
-1.2508392333984375,-0.3955230712890625,0.4896392822265625
-1.65155029296875,-0.2425994873046875,0.641204833984375
-1.9068450927734373,-0.1096954345703125,0.8166351318359375
-1.8501129150390625,-0.0711822509765625,0.5915374755859375
-1.6957244873046875,0.0435333251953125,0.48187255859375
-1.537384033203125,0.0216522216796875,0.42242431640625
-1.08172607421875,0.057159423828125,0.2953033447265625
-0.52984619140625,0.109832763671875,0.1357879638671875
-0.101104736328125,0.187286376953125,0.1357421875
0.20068359375,0.220367431640625,0.103302001953125
0.144744873046875,0.317108154296875,0.0511016845703125
0.1079864501953125,0.3320770263671875,0.0359344482421875
-0.0728912353515625,0.3525390625,0.0809173583984375
-0.531005859375,0.3802490234375,0.1954803466796875
-1.326751708984375,0.3824005126953125,0.3147430419921875
-1.6778717041015625,0.374267578125,0.6073760986328125
-2.19293212890625,0.1192779541015625,0.496429443359375
-2.3737335205078125,-0.0064697265625,0.8103790283203125
-2.27935791015625,-0.3472442626953125,0.8017730712890625
-1.5846710205078125,-0.505584716796875,0.3885650634765625
-1.0099639892578125,-0.5391082763671875,0.1386566162109375
-0.852508544921875,-0.6837005615234375,0.154144287109375
-0.756256103515625,-0.931793212890625,0.14093017578125
-0.6521453857421875,-1.0517578125,0.1008148193359375
-0.773681640625,-1.0602569580078125,0.1015472412109375
-0.9914093017578124,-0.9599151611328124,0.160369873046875
-1.3785858154296875,-0.8326416015625,0.361053466796875
-1.65130615234375,-0.544952392578125,0.5390777587890625
-2.0450897216796875,-0.2772064208984375,0.902557373046875
-1.9452667236328125,-0.1224822998046875,0.657318115234375
-1.721435546875,0.020751953125,0.6775360107421875
-1.088470458984375,0.057647705078125,0.4105072021484375
-0.667205810546875,0.1952972412109375,0.220458984375
-0.3055572509765625,0.302154541015625,0.1010589599609375
-0.10076904296875,0.228424072265625,0.0336761474609375
-0.036407470703125,0.18310546875,0.07281494140625
-0.097320556640625,0.1573333740234375,0.0472564697265625
-0.4716644287109375,0.0051727294921875,0.1448211669921875
-1.143646240234375,0.032745361328125,0.072601318359375
-1.6146392822265625,0.003814697265625,0.161407470703125
-1.8484344482421875,-0.4421844482421875,-0.14459228515625
-1.944061279296875,-0.606658935546875,-0.0726470947265625
-1.6690216064453125,-0.748931884765625,-0.2086181640625
-1.381622314453125,-0.753021240234375,-0.219451904296875
-0.90313720703125,-0.7039642333984375,-0.148223876953125
-0.64825439453125,-0.6337432861328125,-0.1692047119140625
-0.6531524658203125,-0.688079833984375,-0.1494293212890625
-0.7799224853515625,-0.7281494140625,-0.097076416015625
-1.1242218017578125,-0.9119873046875,-0.15142822265625
-1.1574249267578125,-0.7441253662109375,-0.3433685302734375
-1.085906982421875,-0.6022796630859375,-0.695526123046875
-1.0008392333984375,-0.276702880859375,-0.785186767578125
-0.7246246337890625,-0.1282806396484375,-0.79119873046875
-0.5063629150390625,-0.058197021484375,-0.771514892578125
0.0239715576171875,0.014678955078125,-0.1438751220703125
0.0402679443359375,0.019683837890625,-0.136444091796875
0.0404205322265625,0.0189208984375,-0.0067901611328125
0.04779052734375,0.0161590576171875,-0.0115966796875
0.0552825927734375,0.0094757080078125,-0.0274505615234375
0.059326171875,0.002685546875,-0.0433502197265625
0.0606231689453125,-0.00384521484375,-0.0539398193359375
0.061859130859375,-0.0109710693359375,-0.0615386962890625
0.0560150146484375,-0.016632080078125,-0.0703887939453125
0.0511474609375,-0.019134521484375,-0.0782623291015625
8.240219116210938,0.9351043701171876,-7.9485015869140625
-2.6543121337890625,-0.5988006591796875,-1.1038055419921875
-0.2677154541015625,0.0829925537109375,-0.7010650634765625
0.41375732421875,0.167205810546875,-0.4835205078125
0.1092987060546875,0.0353546142578125,-1.0612640380859375
0.1681060791015625,-0.2632598876953125,-0.6717376708984375
0.4411468505859375,-0.34564208984375,-1.1402587890625
0.0417022705078125,-0.217498779296875,-0.931396484375
-0.0744171142578125,-0.1068878173828125,-0.9526824951171876
0.0840911865234375,-0.108489990234375,-1.0265960693359375
0.06317138671875,-0.1850128173828125,-0.9824371337890624
0.0348358154296875,-0.1508026123046875,-0.9965057373046876
0.06427001953125,-0.135894775390625,-0.9914093017578124
0.0421295166015625,-0.1686553955078125,-0.993804931640625
0.0443878173828125,-0.16375732421875,-1.00390625
0.091949462890625,-0.1166229248046875,-1.0228424072265625
0.0435638427734375,-0.18548583984375,-0.9897003173828124
0.058837890625,-0.14794921875,-1.0002593994140625
0.0443115234375,-0.13201904296875,-1.0199432373046875
0.052947998046875,-0.1581878662109375,-0.994293212890625
0.0541229248046875,-0.1483306884765625,-0.990020751953125
0.054229736328125,-0.1506195068359375,-1.0012969970703125
0.051300048828125,-0.155548095703125,-0.9941253662109376
0.0513916015625,-0.14990234375,-0.9937896728515624
0.0094451904296875,-0.1659393310546875,-0.8775177001953125
0.09283447265625,-0.172393798828125,-1.0225677490234375
0.1416473388671875,-0.1456756591796875,-1.0558319091796875
0.1101531982421875,-0.139434814453125,-1.0026702880859375
0.107269287109375,-0.1705322265625,-0.9777679443359376
0.1093292236328125,-0.142425537109375,-0.9933013916015624
0.129302978515625,-0.123931884765625,-0.8840789794921875
0.1085205078125,-0.1818389892578125,-1.015899658203125
0.0955657958984375,-0.226348876953125,-1.045562744140625
0.0927276611328125,-0.198944091796875,-1.0687255859375
