AccelerationX,AccelerationY,AccelerationZ
0.0959320068359375,-0.41937255859375,-0.8229217529296875
0.1783447265625,-0.41937255859375,-0.988128662109375
0.147491455078125,-0.4401092529296875,-1.0073089599609375
0.0467529296875,-0.41229248046875,-1.0221710205078125
0.0594482421875,-0.3375701904296875,-1.0547027587890625
0.13568115234375,-0.276519775390625,-1.079864501953125
0.3686676025390625,-0.38690185546875,-1.11572265625
0.1261138916015625,-0.2367706298828125,-0.87835693359375
0.23126220703125,-0.2454986572265625,-1.05743408203125
0.14886474609375,-0.3817901611328125,-1.0818023681640625
-0.1740570068359375,-0.40594482421875,-0.3839569091796875
0.0571746826171875,-0.421661376953125,-0.6349945068359375
0.2706298828125,-0.6717376708984375,-0.9182586669921876
-0.378326416015625,-0.0605621337890625,-0.5455169677734375
-0.388153076171875,-0.126495361328125,-0.488494873046875
-0.4049072265625,-0.185760498046875,-0.4496612548828125
-0.4345855712890625,-0.0580902099609375,-0.169586181640625
-0.349029541015625,0.114013671875,-0.2371978759765625
-0.5908966064453125,0.4339141845703125,0.0018157958984375
-1.1345977783203125,0.39422607421875,0.115966796875
-1.9186248779296875,0.332794189453125,0.4097900390625
-1.8193511962890625,0.043670654296875,0.2888031005859375
-2.0829010009765625,-0.31158447265625,0.2730712890625
-2.2144775390625,-0.7646636962890625,-0.08538818359375
-2.186386108398437,-1.0677337646484375,0.2139129638671875
-1.9212188720703125,-1.0541229248046875,0.376708984375
-1.994049072265625,-0.8938751220703125,0.2411651611328125
-2.072967529296875,-0.7856903076171875,0.24322509765625
-2.355743408203125,-0.400787353515625,0.6710662841796875
-1.53118896484375,0.2520751953125,0.2140045166015625
-0.234527587890625,0.8473052978515625,-0.1578216552734375
0.1724090576171875,1.1092071533203125,-0.0672760009765625
0.478302001953125,1.071533203125,0.170806884765625
0.44482421875,0.787628173828125,0.2587127685546875
-0.1939849853515625,0.7458343505859375,0.3467559814453125
-1.8788604736328125,0.4529266357421875,0.313232421875
-2.904525756835937,-0.100555419921875,0.6212921142578125
-2.20965576171875,-0.6475067138671875,0.75994873046875
-1.63800048828125,-0.722442626953125,1.035247802734375
-0.943267822265625,-0.755523681640625,0.9974365234375
-0.549530029296875,-0.7426300048828125,0.576751708984375
-0.4828948974609375,-0.7327117919921875,0.4296875
-0.18597412109375,-0.746826171875,0.252166748046875
-0.224853515625,-0.6009979248046875,0.0992431640625
-0.379119873046875,-0.699371337890625,0.0988922119140625
-0.927581787109375,-1.0296478271484375,0.176116943359375
-2.0329132080078125,-1.4592437744140625,0.0029449462890625
-3.12066650390625,-1.69256591796875,0.29095458984375
-3.2719879150390625,-1.1866455078125,0.368194580078125
-2.428939819335937,-0.31634521484375,0.5066070556640625
-1.2267303466796875,0.211578369140625,0.3897857666015625
-0.3004608154296875,0.607696533203125,0.193145751953125
0.133544921875,0.5096435546875,-0.049224853515625
0.0928802490234375,0.707275390625,-0.0232391357421875
0.0442352294921875,0.6198883056640625,-0.06903076171875
-0.0340118408203125,0.594207763671875,0.070831298828125
-0.0088958740234375,0.43133544921875,0.1910400390625
-0.185546875,0.5059967041015625,0.24200439453125
-0.840667724609375,0.5068511962890625,0.4000396728515625
-2.762603759765625,0.3636932373046875,0.6164398193359375
-3.899200439453125,0.08209228515625,1.843292236328125
-2.0557403564453125,-0.608306884765625,1.066680908203125
-1.65625,-0.3728179931640625,0.2889556884765625
-1.5447845458984375,-0.6225738525390625,-0.1871337890625
-1.3809051513671875,-0.939788818359375,-0.0631866455078125
-1.183563232421875,-1.2013092041015625,0.470184326171875
-0.69140625,-1.0777587890625,0.624298095703125
-0.2299041748046875,-0.998931884765625,0.2482452392578125
0.1261138916015625,-1.09503173828125,0.1367034912109375
0.0099334716796875,-0.9065704345703124,-0.456390380859375
-1.3012847900390625,-1.00799560546875,-0.3603973388671875
-3.01312255859375,-1.8170013427734373,0.183990478515625
-4.5832366943359375,-1.87188720703125,0.6992645263671875
-3.913497924804688,-0.6769561767578125,0.7481842041015625
-2.006210327148437,0.44451904296875,0.251007080078125
-0.7346954345703125,0.8062896728515625,0.016021728515625
-0.236572265625,1.119720458984375,-0.068511962890625
0.2180633544921875,0.983612060546875,-0.0881500244140625
0.1535186767578125,0.746551513671875,-0.13397216796875
-0.0853271484375,0.68365478515625,0.0203094482421875
-0.0268402099609375,0.5120849609375,0.140472412109375
-0.0402679443359375,0.3279571533203125,0.2648162841796875
-0.782867431640625,-0.0451507568359375,0.5746307373046875
-2.694183349609375,-0.43353271484375,0.9155120849609376
-3.3379058837890625,-0.7140655517578125,1.199676513671875
-2.320419311523437,-1.0569000244140625,0.7339935302734375
-1.77655029296875,-1.294097900390625,0.6331329345703125
-1.1968841552734375,-1.2265625,0.45196533203125
-0.9279022216796876,-1.128204345703125,0.222320556640625
-0.5408782958984375,-1.0397491455078125,-0.2085723876953125
-0.2723388671875,-0.87286376953125,-0.600677490234375
-0.16748046875,-0.8910675048828125,-0.491851806640625
-0.652801513671875,-0.958343505859375,-0.364776611328125
-2.005477905273437,-1.4207611083984375,-0.1143798828125
-4.10711669921875,-1.869598388671875,-0.4710845947265625
-5.538330078125,-0.6368865966796875,1.18988037109375
-2.607696533203125,0.466705322265625,0.755340576171875
-1.067840576171875,0.8497314453125,-0.04681396484375
-0.18328857421875,1.2065887451171875,0.0862274169921875
0.4316253662109375,0.8555450439453125,0.082489013671875
0.2554473876953125,0.6920166015625,-0.0240478515625
0.1924896240234375,0.555999755859375,-0.168304443359375
0.122772216796875,0.4414215087890625,-0.1204071044921875
-0.1269683837890625,0.341583251953125,0.1277618408203125
-1.0622406005859375,0.1756134033203125,0.6936798095703125
-2.639190673828125,0.01177978515625,1.1793975830078125
-2.8056793212890625,-0.489776611328125,1.1131439208984375
-2.25213623046875,-0.3706207275390625,0.6506500244140625
-1.84912109375,-0.3899993896484375,0.2599334716796875
-1.7272491455078125,-0.4513397216796875,0.062591552734375
-1.258636474609375,-0.591888427734375,0.09686279296875
-0.653228759765625,-0.7672882080078125,-0.0262451171875
-0.3501739501953125,-0.75146484375,-0.12640380859375
-0.0431976318359375,-0.691497802734375,-0.1461029052734375
-0.1685943603515625,-0.747222900390625,-0.3166351318359375
-0.9398345947265624,-0.8055419921875,-0.206329345703125
-2.4800262451171875,-0.9736175537109376,-0.00482177734375
-3.6927642822265625,-0.88653564453125,0.5163726806640625
-3.6270599365234375,-0.548583984375,0.6588592529296875
-2.505218505859375,-0.1461334228515625,0.709747314453125
-1.2892608642578125,0.2308502197265625,0.4596405029296875
-0.403350830078125,0.3887481689453125,0.3240814208984375
-0.08270263671875,0.510345458984375,0.2262115478515625
0.0980377197265625,0.545501708984375,-0.0116729736328125
0.1580657958984375,0.4550323486328125,-0.0923309326171875
0.138519287109375,0.384307861328125,0.0106201171875
0.19110107421875,0.31280517578125,0.0829620361328125
-0.1800994873046875,0.2871551513671875,0.24310302734375
-1.077880859375,-0.5638427734375,0.4203948974609375
-2.56671142578125,-0.9886474609375,0.30865478515625
-2.2335205078125,-0.4862518310546875,0.3503570556640625
-1.510040283203125,-0.193634033203125,-0.18426513671875
-1.3946533203125,-0.191741943359375,0.101226806640625
-2.0014190673828125,-0.5645599365234375,0.1306915283203125
-1.6062469482421875,-0.566436767578125,0.4222869873046875
-1.4830322265625,-0.74871826171875,-0.371612548828125
-0.805755615234375,-0.94110107421875,-0.17822265625
-0.4909515380859375,-1.0884246826171875,0.0342254638671875
-0.312591552734375,-1.1141204833984375,0.0441131591796875
-0.4223785400390625,-1.1126251220703125,0.28985595703125
-0.655426025390625,-1.13232421875,0.079254150390625
-2.155059814453125,-1.2788238525390625,-0.11322021484375
-3.27081298828125,-1.26220703125,-0.15264892578125
-3.1337432861328125,-0.9968719482421876,0.2248687744140625
-2.28131103515625,-0.53814697265625,0.4800262451171875
-1.048980712890625,0.0777587890625,0.3147430419921875
-0.20123291015625,0.5299530029296875,0.0638580322265625
0.1932373046875,0.747039794921875,-0.0475006103515625
0.3511810302734375,0.7060089111328125,-0.200836181640625
-0.0217132568359375,0.77471923828125,-0.0940704345703125
-0.07958984375,0.6860504150390625,0.074676513671875
-0.12237548828125,0.6071624755859375,0.154388427734375
-0.7474212646484375,0.5364837646484375,0.3587188720703125
-2.15179443359375,0.1722869873046875,0.4838714599609375
-3.4546051025390625,-0.397796630859375,1.12646484375
-2.7788848876953125,-0.8199920654296875,0.7295379638671875
-2.0160675048828125,-0.6904449462890625,0.482757568359375
-1.54510498046875,-0.5590362548828125,0.118682861328125
-1.2497406005859375,-0.8191070556640625,0.0300140380859375
-0.786773681640625,-0.9862213134765624,0.1967315673828125
-0.7957916259765625,-1.2114410400390625,0.1677703857421875
-0.423919677734375,-1.0554656982421875,0.33135986328125
-0.07904052734375,-0.92840576171875,0.2456817626953125
-0.274078369140625,-0.9703826904296876,0.292388916015625
-1.1060943603515625,-1.1686553955078125,0.268585205078125
-2.32269287109375,-1.3560333251953125,0.34552001953125
-3.192535400390625,-1.3676910400390625,0.56634521484375
-3.8160552978515625,-1.06414794921875,0.490814208984375
-2.683349609375,0.049591064453125,0.034515380859375
-1.0435638427734375,0.7024688720703125,-0.319000244140625
-0.2737884521484375,0.95440673828125,0.0254974365234375
0.101104736328125,0.9408721923828124,0.22076416015625
-0.0612640380859375,0.9498291015625,0.2731475830078125
0.1417236328125,0.8831329345703125,0.2109222412109375
0.3653717041015625,0.71612548828125,0.089263916015625
-0.1072845458984375,0.6731414794921875,0.2771759033203125
-1.6275177001953125,0.0178070068359375,0.533782958984375
-3.683319091796875,-0.9353485107421876,1.269744873046875
-3.17095947265625,-1.1136932373046875,0.9757843017578124
-2.319580078125,-1.086029052734375,0.1285247802734375
-1.21575927734375,-0.9978179931640624,0.3402862548828125
-0.745208740234375,-0.9332427978515624,0.25384521484375
-0.585205078125,-0.8894500732421875,0.115447998046875
-0.4448394775390625,-0.8222503662109375,0.079620361328125
-0.3170013427734375,-0.6681976318359375,0.06048583984375
-0.356475830078125,-0.549163818359375,0.0172576904296875
-0.67041015625,-0.6809844970703125,-0.1965484619140625
-1.305145263671875,-1.142364501953125,-0.41400146484375
-2.8318634033203125,-1.675567626953125,-0.826263427734375
-4.0214385986328125,-1.63031005859375,-0.45111083984375
-3.698028564453125,-1.230224609375,-0.0489349365234375
-2.785125732421875,-0.3117828369140625,0.078094482421875
-1.5818328857421875,0.245330810546875,-0.0208740234375
-0.78802490234375,0.7994232177734375,-0.1012115478515625
-0.324249267578125,1.4405517578125,-0.2174835205078125
0.39306640625,1.3724212646484375,-0.256439208984375
0.3763885498046875,1.0969696044921875,-0.132354736328125
-0.1693572998046875,0.8032379150390625,0.0918426513671875
-0.4528045654296875,0.4218597412109375,0.407501220703125
-1.57000732421875,-0.2581024169921875,0.7103118896484375
-2.84637451171875,-0.427001953125,1.35943603515625
-2.883895874023437,-0.6809844970703125,0.77581787109375
-2.1457977294921875,-0.7232818603515625,0.4029541015625
-1.342498779296875,-0.74755859375,0.275054931640625
-0.850738525390625,-0.8092803955078125,0.2613677978515625
-0.58929443359375,-0.839874267578125,0.166473388671875
-0.3799591064453125,-0.8343963623046875,-0.0862884521484375
-0.2747955322265625,-0.8523101806640625,-0.2248382568359375
-0.55126953125,-0.8685455322265625,-0.2053680419921875
-1.067596435546875,-1.013336181640625,-0.00860595703125
-2.0168914794921875,-1.302642822265625,0.2599639892578125
-3.2691192626953125,-1.0508270263671875,0.41912841796875
-3.411956787109375,-0.7359619140625,0.7358245849609375
-2.5297088623046875,-0.318023681640625,0.4131622314453125
-1.329254150390625,0.252777099609375,0.2265625
-0.3868408203125,0.5448455810546875,0.1307373046875
0.0952911376953125,0.7340545654296875,-0.0069122314453125
0.205291748046875,0.628265380859375,-0.1300048828125
0.0584259033203125,0.509918212890625,-0.1399078369140625
-0.132049560546875,0.4364776611328125,-0.1442718505859375
-0.549835205078125,0.434814453125,-0.068756103515625
-1.098358154296875,0.96246337890625,0.4215240478515625
-1.3959197998046875,0.2372894287109375,0.564422607421875
-2.44244384765625,0.036773681640625,0.9553985595703124
-2.7443084716796875,-0.2236480712890625,0.8423309326171875
-2.5421600341796875,-0.4908905029296875,0.5057373046875
-2.2125396728515625,-0.8190460205078125,0.4592132568359375
-1.7119293212890625,-1.0634765625,0.1688995361328125
-1.1518707275390625,-1.180419921875,-0.101226806640625
-0.8658599853515625,-1.1212005615234375,0.0207672119140625
-0.6605682373046875,-0.6782379150390625,-0.2761688232421875
-0.555145263671875,-0.612823486328125,-0.4136505126953125
-0.5206756591796875,-0.7954559326171875,-0.0084228515625
-1.5822296142578125,-0.794219970703125,0.69659423828125
-2.359375,-1.0430755615234375,0.6177520751953125
-3.048080444335937,-1.2227325439453125,0.0905914306640625
-3.19342041015625,-0.75482177734375,0.0899658203125
-1.6840667724609375,0.05474853515625,0.3303070068359375
-0.26873779296875,0.5327301025390625,0.42108154296875
0.36578369140625,0.7973785400390625,0.3456878662109375
0.6582794189453125,0.7936248779296875,0.1217803955078125
0.414520263671875,0.7169036865234375,0.0924224853515625
0.13177490234375,0.6352386474609375,0.15643310546875
0.0821075439453125,0.5174560546875,0.244384765625
-0.642486572265625,0.5030670166015625,0.446533203125
-2.1215972900390625,0.1592864990234375,0.923614501953125
-2.9696807861328125,-0.508087158203125,1.0390625
-2.78173828125,-0.7664031982421875,0.6839752197265625
-2.6431427001953125,-1.005706787109375,0.4466094970703125
-1.62969970703125,-0.9098663330078124,0.17498779296875
-0.994659423828125,-0.82958984375,-0.0189666748046875
-0.677398681640625,-0.833953857421875,-0.1478729248046875
-0.6540069580078125,-0.79400634765625,-0.0766448974609375
-0.286376953125,-0.7744903564453125,-0.11798095703125
-0.143646240234375,-0.8037567138671875,-0.1638946533203125
-0.489654541015625,-0.880157470703125,-0.08172607421875
-1.2158660888671875,-1.256988525390625,0.0827178955078125
-2.1233367919921875,-1.4139556884765625,0.2773590087890625
-2.5704803466796875,-1.4840240478515625,0.303070068359375
-3.0581817626953125,-1.2025604248046875,-0.3756256103515625
-2.848373413085937,-0.8683929443359375,-0.0070343017578125
-2.026458740234375,-0.26495361328125,0.1139984130859375
-1.0059661865234375,0.1002197265625,0.009033203125
-0.32659912109375,0.503326416015625,0.382598876953125
0.00946044921875,0.6208648681640625,0.3181915283203125
0.0260009765625,0.77276611328125,0.1146392822265625
0.29046630859375,0.7645416259765625,0.1378936767578125
0.3458709716796875,0.70257568359375,0.2186431884765625
0.269622802734375,0.5672149658203125,0.2415924072265625
-0.1276702880859375,0.5940093994140625,0.3213653564453125
-1.37994384765625,0.3728485107421875,0.4546966552734375
-3.1478271484375,-0.104736328125,0.8338775634765625
-3.591827392578125,-0.776336669921875,1.340606689453125
-2.526214599609375,-0.852386474609375,0.687713623046875
-1.7706451416015625,-0.9271697998046876,0.301483154296875
-1.251434326171875,-0.899993896484375,0.2938079833984375
-0.6897125244140625,-0.858306884765625,0.065765380859375
-0.3575897216796875,-0.8143463134765625,-0.1964569091796875
-0.2160491943359375,-0.694671630859375,-0.3294830322265625
-0.2229461669921875,-0.704498291015625,-0.3334808349609375
-0.414520263671875,-0.8368377685546875,-0.236358642578125
-0.496368408203125,-0.733306884765625,-0.0437774658203125
-1.669464111328125,-1.2958526611328125,-0.881561279296875
-3.603546142578125,-1.235015869140625,-0.29510498046875
-3.8958892822265625,-1.3456268310546875,0.1316375732421875
-3.1279449462890625,-0.2837677001953125,-0.137237548828125
-2.0570220947265625,0.14202880859375,-0.1614990234375
-1.1473541259765625,0.4657745361328125,0.0311279296875
-0.4565277099609375,0.7407684326171875,0.0156097412109375
0.00274658203125,0.8148651123046875,-0.041961669921875
0.212158203125,0.7571563720703125,-0.045928955078125
0.2048797607421875,0.62005615234375,-0.0499420166015625
0.1271820068359375,0.4897308349609375,-0.1902008056640625
-0.241485595703125,0.471466064453125,-0.02410888671875
-0.98748779296875,0.3559417724609375,0.24920654296875
-2.555084228515625,-0.2070465087890625,0.1913604736328125
-3.0178375244140625,-0.4500885009765625,0.6234130859375
-2.6815948486328125,-0.81365966796875,0.258392333984375
-1.8797607421875,-0.8868560791015625,0.5298614501953125
-1.127655029296875,-0.8300628662109375,0.1086273193359375
-0.795013427734375,-0.84295654296875,-0.0616455078125
-0.5953826904296875,-0.8752899169921875,0.16766357421875
-0.335113525390625,-0.8345794677734375,0.230133056640625
-0.3947296142578125,-0.799072265625,0.156585693359375
-0.798583984375,-0.7813720703125,-0.0682220458984375
-1.6627349853515625,-1.009033203125,-0.529266357421875
-2.7828826904296875,-1.1180267333984375,-0.6365203857421875
-4.186325073242188,-0.8494720458984375,-0.592010498046875
-3.390899658203125,-0.0205078125,-0.235015869140625
-1.78887939453125,0.4907684326171875,-0.2158050537109375
-0.7767791748046875,0.9884033203125,-0.3426666259765625
-0.139801025390625,1.055084228515625,-0.27288818359375
0.1580352783203125,0.7031707763671875,-0.156158447265625
0.117340087890625,0.537109375,-0.1494903564453125
-0.0247955322265625,0.545318603515625,-0.111114501953125
-0.24102783203125,0.61871337890625,0.114044189453125
-0.5165863037109375,0.51202392578125,0.2987213134765625
-2.016204833984375,0.005126953125,0.3437042236328125
-3.090423583984375,-0.4641265869140625,0.6467742919921875
-2.721893310546875,-0.8893585205078125,0.560577392578125
-1.9638214111328125,-0.60076904296875,0.6748504638671875
-1.1487579345703125,-0.6507110595703125,0.348419189453125
-0.67486572265625,-0.5937347412109375,0.1566314697265625
-0.55645751953125,-0.584075927734375,0.0944061279296875
-0.452606201171875,-0.5956573486328125,0.1147003173828125
-0.4928131103515625,-0.6209259033203125,0.1053466796875
-0.7530517578125,-0.6138763427734375,0.12969970703125
-0.99859619140625,-0.7680816650390625,0.0858306884765625
-1.743743896484375,-0.898651123046875,0.2274627685546875
-2.48779296875,-1.0982818603515625,0.1633148193359375
-3.0027618408203125,-0.962677001953125,0.2877197265625
-2.6809844970703125,-0.5839080810546875,0.13201904296875
-1.841064453125,-0.2487640380859375,0.0531005859375
-0.961334228515625,0.07623291015625,0.0353851318359375
-0.2840728759765625,0.2174835205078125,-0.083221435546875
-0.06378173828125,0.296966552734375,-0.091796875
-0.082916259765625,0.461761474609375,-0.1227569580078125
-0.146942138671875,0.5180816650390625,-0.1951904296875
-0.174957275390625,0.49267578125,-0.15460205078125
-0.2530975341796875,0.537384033203125,0.0162353515625
-0.779266357421875,0.1822662353515625,0.067291259765625
-1.7305908203125,0.245208740234375,0.38623046875
-2.383636474609375,-0.0601043701171875,0.358489990234375
-2.8076324462890625,-0.3818206787109375,1.08453369140625
-1.8505096435546875,-0.540496826171875,1.072784423828125
-1.2509765625,-0.6267242431640625,0.444366455078125
-1.051666259765625,-0.63385009765625,0.311004638671875
-0.9240875244140624,-0.7735443115234375,0.195068359375
-0.9385223388671876,-0.9589691162109376,0.1868133544921875
-0.90509033203125,-1.0294189453125,0.1141510009765625
-0.96624755859375,-0.982391357421875,0.07012939453125
-0.967620849609375,-0.8261566162109375,0.1028900146484375
-0.99298095703125,-0.720001220703125,0.116302490234375
-1.2052459716796875,-0.6936187744140625,0.136810302734375
-1.818084716796875,-0.8875579833984375,0.1533203125
-2.623291015625,-0.93878173828125,0.2317352294921875
-3.0746307373046875,-0.9447174072265624,0.2208251953125
-2.8070220947265625,-0.6237030029296875,0.194488525390625
-1.9891357421875,-0.2708740234375,0.083953857421875
-1.150848388671875,-0.1871795654296875,0.0848236083984375
-0.580963134765625,0.1971893310546875,0.0656585693359375
-0.272705078125,0.641571044921875,-0.0687713623046875
-0.1341552734375,0.7197113037109375,-0.149383544921875
-0.2289276123046875,0.7262115478515625,-0.02935791015625
-0.0596771240234375,0.5108489990234375,0.0880279541015625
0.01678466796875,0.4180450439453125,0.115570068359375
-0.0631866455078125,0.430419921875,0.1424560546875
-0.230316162109375,0.3497467041015625,0.4545440673828125
-1.686981201171875,-0.0515289306640625,0.621551513671875
-3.13116455078125,0.071014404296875,1.0385589599609375
-3.0003204345703125,-0.3438568115234375,0.824493408203125
-2.5817413330078125,-0.4973297119140625,0.927093505859375
-1.751220703125,-0.6787567138671875,0.7984466552734375
-1.0491180419921875,-0.6733245849609375,0.4551544189453125
-0.6385345458984375,-0.61004638671875,0.07867431640625
-0.381195068359375,-0.6053466796875,0.0008392333984375
-0.3752593994140625,-0.5916900634765625,0.1456756591796875
-0.37689208984375,-0.663330078125,0.1062469482421875
-0.762237548828125,-0.940887451171875,-0.1481170654296875
-1.9406280517578125,-1.1193084716796875,-0.3093414306640625
-3.0551910400390625,-1.3425445556640625,-0.140838623046875
-3.010726928710937,-1.109344482421875,0.3029022216796875
-2.396636962890625,-0.63201904296875,0.202850341796875
-1.8484649658203125,-0.2982940673828125,0.0800628662109375
-1.4174652099609375,-0.0714111328125,-0.0113677978515625
-0.9154052734375,0.1607208251953125,-0.1478729248046875
-0.5006256103515625,0.2389984130859375,-0.120086669921875
-0.2147369384765625,0.2197265625,-0.0905914306640625
-0.06494140625,0.21826171875,-0.151641845703125
-0.0429534912109375,0.33172607421875,-0.150543212890625
-0.047607421875,0.2142791748046875,-0.1956939697265625
-0.328338623046875,0.2479705810546875,-0.015594482421875
-0.7281494140625,0.1318206787109375,0.109710693359375
-1.1873931884765625,0.098175048828125,0.281982421875
-1.936004638671875,0.0262298583984375,0.295440673828125
-2.4405059814453125,0.0391082763671875,0.5236358642578125
-2.41314697265625,-0.1915130615234375,0.5218353271484375
-2.0217742919921875,-0.30120849609375,0.54376220703125
-1.78515625,-0.4991455078125,0.4452056884765625
-1.3448638916015625,-0.551177978515625,0.334716796875
-1.2988433837890625,-0.747222900390625,0.3106842041015625
-1.3124847412109375,-0.8219451904296875,0.366790771484375
-1.245391845703125,-0.9563751220703124,0.2476654052734375
-0.5681610107421875,-1.257171630859375,-0.1007843017578125
-0.40338134765625,-1.1186981201171875,0.18524169921875
-0.7358856201171875,-1.16510009765625,-0.0366058349609375
-0.9178466796875,-0.949127197265625,-0.28607177734375
-0.8539581298828125,-0.7754974365234375,-0.097076416015625
-0.882354736328125,-0.6512908935546875,-0.1595001220703125
-1.961578369140625,-1.103607177734375,-0.412811279296875
-3.242218017578125,-1.53509521484375,0.29931640625
-3.1790771484375,-1.3370819091796875,0.01885986328125
-2.3786163330078125,-0.7930145263671875,0.25408935546875
-1.6215667724609375,-0.330841064453125,0.1502532958984375
-0.9164581298828124,0.022796630859375,-0.0013885498046875
-0.503997802734375,0.234100341796875,-0.03009033203125
-0.2762298583984375,0.2923736572265625,-0.031463623046875
-0.157379150390625,0.308746337890625,-0.0248565673828125
-0.059173583984375,0.300079345703125,0.004486083984375
0.0525360107421875,0.2909088134765625,-0.004638671875
0.0248870849609375,0.3291168212890625,0.01263427734375
-0.152313232421875,0.36614990234375,0.027496337890625
-0.872406005859375,0.4228363037109375,0.37396240234375
-1.7401123046875,0.1139678955078125,0.8796539306640625
-2.2681427001953125,-0.5650787353515625,0.7335357666015625
-2.4575653076171875,-0.454132080078125,0.6590576171875
-2.13592529296875,-0.6611328125,0.3881988525390625
-1.7196502685546875,-0.7775421142578125,0.4862518310546875
-1.470977783203125,-0.8604278564453125,0.411407470703125
-1.335662841796875,-0.9802703857421876,0.338104248046875
-0.98773193359375,-0.9388885498046876,0.3059234619140625
-0.673553466796875,-0.882415771484375,0.3356781005859375
-0.7109832763671875,-0.887176513671875,0.336334228515625
-1.07379150390625,-0.912628173828125,0.2893524169921875
-1.539031982421875,-0.862701416015625,0.199005126953125
-1.673614501953125,-0.8860321044921875,0.0674591064453125
-2.0756378173828125,-1.0652008056640625,-0.154022216796875
-2.6670684814453125,-0.741485595703125,-0.5757904052734375
-3.010848999023437,-0.6074676513671875,-0.26409912109375
-2.2967529296875,-0.1990509033203125,-0.15509033203125
-1.417999267578125,0.1954193115234375,-0.1739349365234375
-0.8512115478515625,0.319610595703125,-0.214996337890625
-0.48895263671875,0.4017333984375,-0.153656005859375
-0.10693359375,0.2789154052734375,-0.1875
-0.140716552734375,0.215087890625,-0.19769287109375
-0.25018310546875,0.2483673095703125,-0.099884033203125
-0.2671966552734375,0.3298797607421875,-0.11138916015625
-0.28302001953125,0.3748016357421875,-0.1214599609375
-0.594635009765625,0.4543609619140625,0.0325927734375
-1.23297119140625,0.18670654296875,0.374359130859375
-2.1859283447265625,-0.1554412841796875,0.2909393310546875
-2.6334686279296875,-0.459136962890625,0.4425048828125
-2.2288360595703125,-0.7034759521484375,0.497344970703125
-1.8027496337890625,-0.78680419921875,0.4698638916015625
-1.356842041015625,-0.87847900390625,0.31988525390625
-1.0421295166015625,-0.8280029296875,0.1874847412109375
-0.920318603515625,-0.7475433349609375,0.0186309814453125
-0.972503662109375,-0.6838836669921875,-0.1314239501953125
-1.0446319580078125,-0.65850830078125,-0.148284912109375
-1.2876434326171875,-0.630584716796875,-0.0810546875
-1.550323486328125,-0.5687103271484375,0.16015625
-1.511871337890625,-0.6272125244140625,0.226959228515625
-1.6957550048828125,-0.5990753173828125,0.00897216796875
-1.9270782470703125,-0.609649658203125,-0.2069854736328125
-2.171875,-0.4618377685546875,-0.0214385986328125
-2.031158447265625,-0.4224700927734375,0.115753173828125
-1.532684326171875,-0.2479095458984375,0.0696258544921875
-1.089752197265625,-0.0709686279296875,0.0755157470703125
-0.5897674560546875,0.0966796875,0.00830078125
-0.2721099853515625,0.1750030517578125,-0.014617919921875
-0.0366973876953125,0.1873321533203125,-0.0640869140625
0.0291595458984375,0.1654815673828125,-0.0697021484375
-0.076934814453125,0.17950439453125,-0.0872039794921875
-0.2287445068359375,0.11297607421875,-0.137420654296875
-0.406402587890625,0.143951416015625,0.04107666015625
-0.6721038818359375,0.121856689453125,0.18255615234375
-0.9160919189453124,0.170928955078125,0.4387664794921875
-1.884307861328125,-0.0424346923828125,0.5225677490234375
-2.383209228515625,-0.2299957275390625,0.739501953125
-2.3350372314453125,-0.56097412109375,0.501953125
-1.917449951171875,-0.516387939453125,0.4604949951171875
-1.4522552490234375,-0.53497314453125,0.3097991943359375
-1.17596435546875,-0.417236328125,0.4446258544921875
-1.1337127685546875,-0.559173583984375,0.3198699951171875
-1.0148468017578125,-0.6577911376953125,0.175506591796875
-1.09521484375,-0.7095947265625,-0.02679443359375
-1.0296630859375,-0.633270263671875,-0.054412841796875
-1.0687408447265625,-0.644073486328125,-0.0609588623046875
-1.4784393310546875,-0.6538543701171875,0.0573577880859375
-1.9133453369140625,-0.600372314453125,-0.01519775390625
-2.4408721923828125,-0.52197265625,0.043792724609375
-2.1554412841796875,-0.1580047607421875,0.124847412109375
-2.2178192138671875,-0.030029296875,-0.0420684814453125
-1.8846282958984373,0.1843414306640625,-0.0397796630859375
-1.411285400390625,0.28717041015625,-0.0786590576171875
-1.028717041015625,0.3355560302734375,-0.1087799072265625
-0.6700897216796875,0.2785491943359375,-0.1265411376953125
-0.4886016845703125,0.2781829833984375,-0.129913330078125
-0.3243255615234375,0.295623779296875,-0.1245880126953125
-0.2119903564453125,0.2971954345703125,-0.1360015869140625
-0.1262359619140625,0.1864776611328125,-0.1787567138671875
-0.2199249267578125,0.169830322265625,-0.1247100830078125
-0.36285400390625,0.0179290771484375,0.026031494140625
-0.6105194091796875,-0.0019073486328125,0.178802490234375
-1.1057586669921875,-0.1174774169921875,0.3316650390625
-1.6033172607421875,-0.0073699951171875,-0.0050506591796875
-2.209335327148437,-0.3073272705078125,-0.1457672119140625
-1.9979400634765625,-0.25030517578125,0.21533203125
-1.5955810546875,-0.6271514892578125,0.0997161865234375
-1.4791107177734375,-0.7368621826171875,0.131805419921875
-1.2835235595703125,-0.8436737060546875,0.073211669921875
-1.2355194091796875,-0.985504150390625,-0.078857421875
-1.178314208984375,-0.812103271484375,-0.1570892333984375
-0.9821014404296876,-0.68572998046875,-0.121185302734375
-0.9330291748046876,-0.5660858154296875,-0.0802154541015625
-1.09039306640625,-0.543853759765625,-0.1659698486328125
-1.557464599609375,-0.6491241455078125,-0.1533050537109375
-1.8518218994140625,-0.7451324462890625,-0.3211517333984375
-2.3578643798828125,-0.721954345703125,-0.5225372314453125
-1.83135986328125,-0.45074462890625,-0.3431396484375
-1.8106536865234373,-0.396240234375,-0.4993438720703125
-1.682769775390625,-0.389404296875,-0.2673187255859375
-1.1162567138671875,-0.22247314453125,-0.169830322265625
-0.637939453125,0.0313873291015625,-0.1906280517578125
-0.336456298828125,0.116912841796875,-0.236846923828125
-0.17034912109375,0.150115966796875,-0.2465667724609375
-0.2609100341796875,0.1146240234375,-0.296478271484375
-0.4132537841796875,0.0829315185546875,-0.110870361328125
-0.3840789794921875,0.0175933837890625,-0.0073394775390625
-0.275390625,0.1538238525390625,0.0783233642578125
-0.3227386474609375,0.266082763671875,0.214874267578125
-0.8047332763671875,0.314422607421875,0.3884735107421875
-1.6641998291015625,0.340484619140625,0.455352783203125
-2.6920166015625,-0.04718017578125,0.537078857421875
-2.3106689453125,-0.3173370361328125,0.8271942138671875
-2.2050323486328125,-0.863555908203125,0.4559478759765625
-1.6168365478515625,-0.9822235107421876,0.34112548828125
-1.4291229248046875,-1.1522674560546875,0.18475341796875
-0.8415985107421875,-0.9774169921875,0.221649169921875
-0.7906646728515625,-0.8193359375,0.0528411865234375
-0.961822509765625,-0.719390869140625,0.087677001953125
-0.9603118896484376,-0.75201416015625,0.0594940185546875
-1.18865966796875,-0.90533447265625,0.0823211669921875
-1.1825103759765625,-1.107269287109375,0.003265380859375
-1.44757080078125,-1.092193603515625,0.0054779052734375
-1.9308624267578125,-1.0017852783203125,-0.2875823974609375
-3.01080322265625,-0.7502899169921875,-0.2358856201171875
-2.819320678710937,-0.301544189453125,-0.3629608154296875
-2.5459747314453125,-0.220306396484375,0.034423828125
-1.6059722900390625,-0.1242523193359375,0.2991180419921875
-0.83819580078125,0.087310791015625,-0.000152587890625
-0.4217071533203125,0.3799591064453125,-0.2496490478515625
-0.2041473388671875,0.5010528564453125,-0.1925048828125
-0.0988311767578125,0.4846343994140625,-0.07904052734375
0.0146484375,0.4129791259765625,-0.02435302734375
0.09149169921875,0.36358642578125,0.0086212158203125
-0.0078887939453125,0.2700653076171875,0.038665771484375
-0.9112091064453124,0.05859375,0.0027008056640625
-1.869659423828125,-0.140228271484375,0.48590087890625
-1.7148895263671875,-0.120330810546875,0.58892822265625
-2.00250244140625,-0.1435546875,0.8245697021484375
-2.176971435546875,-0.361114501953125,1.2557830810546875
-2.3875732421875,-0.4361419677734375,0.7776031494140625
-1.8431549072265625,-0.556915283203125,0.3999176025390625
-1.348480224609375,-0.8167724609375,0.4784088134765625
-1.0059661865234375,-0.9589385986328124,0.6183624267578125
-0.888031005859375,-0.972503662109375,0.5514984130859375
-0.9078216552734376,-0.7097320556640625,0.2677459716796875
-1.0646820068359375,-0.566680908203125,0.0417938232421875
-1.3766021728515625,-0.542999267578125,0.141693115234375
-1.69915771484375,-0.5133514404296875,0.07232666015625
-2.0044097900390625,-0.5805511474609375,0.174713134765625
-2.2108306884765625,-0.6091766357421875,0.1005859375
-2.429229736328125,-0.5569305419921875,0.1841583251953125
-1.94873046875,-0.3602447509765625,0.199066162109375
-1.5250396728515625,-0.28302001953125,0.102691650390625
-1.0467071533203125,-0.091796875,0.1410980224609375
-0.5619659423828125,0.12890625,0.03411865234375
-0.2543792724609375,0.332763671875,-0.099334716796875
-0.08380126953125,0.4987030029296875,-0.3059234619140625
-0.001617431640625,0.33453369140625,-0.236236572265625
-0.035919189453125,0.2579345703125,-0.1094207763671875
-0.17315673828125,0.210235595703125,-0.0283355712890625
-0.5435028076171875,0.1757049560546875,0.0992584228515625
-0.9118194580078124,0.1546630859375,0.3111724853515625
-1.5193634033203125,0.179351806640625,0.4131927490234375
-2.000106811523437,0.6205291748046875,0.97943115234375
-2.808502197265625,0.16729736328125,0.629241943359375
-2.718017578125,-0.0073394775390625,0.690185546875
-2.176422119140625,-0.535980224609375,0.5532379150390625
-1.565582275390625,-0.6463165283203125,0.3241119384765625
-1.28656005859375,-0.86468505859375,0.0937347412109375
-0.985443115234375,-0.8441162109375,0.00262451171875
-0.815185546875,-0.8190460205078125,-0.05596923828125
-0.85821533203125,-0.72662353515625,0.0301055908203125
-0.9291229248046876,-0.674896240234375,0.0973052978515625
-1.1700592041015625,-0.6365509033203125,0.0356292724609375
-1.53936767578125,-0.64068603515625,0.05340576171875
-1.7965850830078125,-0.591583251953125,-0.025299072265625
-1.978759765625,-0.5881195068359375,-0.206634521484375
-2.3900909423828125,-0.544708251953125,-0.27252197265625
-1.7929534912109375,-0.1609344482421875,-0.1492767333984375
-1.421112060546875,-0.209564208984375,-0.09173583984375
-1.2221221923828125,-0.0660858154296875,0.005035400390625
-0.8744049072265625,-0.03179931640625,0.01898193359375
-0.61236572265625,0.2281341552734375,0.02960205078125
-0.2945709228515625,0.4295501708984375,-0.0442962646484375
-0.0427093505859375,0.3557891845703125,-0.18896484375
-0.0398712158203125,0.2644500732421875,-0.1568450927734375
-0.1769256591796875,0.1276702880859375,-0.1245880126953125
-0.54718017578125,0.0745697021484375,-0.03350830078125
-0.887969970703125,0.073974609375,0.039398193359375
-1.406097412109375,0.0369110107421875,-0.063140869140625
-1.9073486328125,-0.0150146484375,-0.0932464599609375
-2.147613525390625,-0.125091552734375,0.0342254638671875
-2.0736236572265625,-0.3249359130859375,-0.1906585693359375
-1.7514801025390625,-0.388824462890625,-0.1056976318359375
-1.54693603515625,-0.578582763671875,0.0053253173828125
-1.234466552734375,-0.5925445556640625,0.00384521484375
-0.9153289794921876,-0.6348114013671875,-0.0800323486328125
-0.7913665771484375,-0.6170501708984375,-0.056396484375
-0.7649078369140625,-0.6561126708984375,-0.08819580078125
-0.948577880859375,-0.666412353515625,-0.0806884765625
-1.1023101806640625,-0.6530914306640625,-0.0584564208984375
-1.0824737548828125,-0.6248931884765625,-0.055084228515625
-1.3105010986328125,-0.6996307373046875,0.0243988037109375
-1.640777587890625,-0.5665283203125,-0.2696990966796875
-1.8357086181640625,-0.569305419921875,-0.112579345703125
-1.8892364501953125,-0.689788818359375,0.05926513671875
-2.020736694335937,-0.6569976806640625,0.104339599609375
-1.4217071533203125,-0.3060455322265625,0.00860595703125
-0.9441986083984376,-0.1455078125,-0.1248779296875
-0.54998779296875,-0.03411865234375,-0.10369873046875
-0.4536590576171875,0.0653533935546875,-0.023345947265625
-0.2749786376953125,0.113616943359375,-0.035186767578125
-0.2121124267578125,0.082672119140625,-0.03765869140625
-0.266815185546875,0.0940093994140625,-0.022308349609375
-0.464630126953125,0.0601959228515625,0.01416015625
-0.651275634765625,0.001739501953125,0.1068267822265625
-0.637237548828125,-0.111236572265625,0.1275787353515625
-0.75469970703125,-0.2464141845703125,0.18487548828125
-0.98773193359375,-0.39208984375,0.094268798828125
-1.3951416015625,-0.416107177734375,0.213958740234375
-1.6286468505859375,-0.73321533203125,0.206817626953125
-1.9890594482421875,-0.78564453125,0.4879608154296875
-2.0813751220703125,-1.0567169189453125,0.5652923583984375
-1.324859619140625,-0.67437744140625,-0.0888824462890625
-1.1218414306640625,-0.4322662353515625,-0.1952056884765625
-0.9604644775390624,-0.42767333984375,0.0970916748046875
-0.8520355224609375,-0.566497802734375,0.2327117919921875
-0.8359222412109375,-0.5865631103515625,0.1477813720703125
-0.771820068359375,-0.4935150146484375,-0.106658935546875
-0.833526611328125,-0.5099029541015625,-0.232147216796875
-0.902130126953125,-0.7517242431640625,-0.0313568115234375
-1.2045440673828125,-0.911529541015625,-0.0738677978515625
-1.501373291015625,-0.9007568359375,-0.2288818359375
-1.4859466552734375,-0.855560302734375,-0.0590057373046875
-1.6356353759765625,-0.9405364990234376,0.05194091796875
-1.9837799072265625,-1.000396728515625,0.1513671875
-1.9675750732421875,-0.91424560546875,0.24127197265625
-1.5080108642578125,-0.6866912841796875,0.0995025634765625
-1.1834564208984375,-0.5054779052734375,-0.0182952880859375
-1.0343170166015625,-0.491943359375,0.00860595703125
-0.6983489990234375,-0.1847686767578125,-0.11181640625
-0.296417236328125,0.0263519287109375,-0.1936798095703125
-0.1063690185546875,0.0808563232421875,-0.200714111328125
0.0143280029296875,0.106536865234375,-0.1417999267578125
0.0068206787109375,0.0408935546875,-0.0808868408203125
-0.2018585205078125,-0.0088348388671875,-0.030975341796875
-0.4492034912109375,0.048309326171875,-0.103546142578125
-0.8977203369140625,0.090087890625,-0.120025634765625
-0.9580078125,0.0259246826171875,0.0379180908203125
-1.395599365234375,0.0644378662109375,0.20428466796875
-2.03125,0.1511383056640625,0.3152008056640625
-2.6293182373046875,-0.08355712890625,0.375274658203125
-2.556884765625,-0.4211578369140625,0.2296600341796875
-1.92315673828125,-0.5890655517578125,0.275604248046875
-1.3493194580078125,-0.62542724609375,0.251129150390625
-1.0262298583984375,-0.66229248046875,0.1022491455078125
-0.9298553466796876,-0.6569061279296875,-0.0165557861328125
-0.8391571044921875,-0.5482330322265625,-0.052947998046875
-0.8096466064453125,-0.3715057373046875,-0.01318359375
-0.740203857421875,-0.2417449951171875,0.0756072998046875
-0.6105804443359375,-0.207244873046875,0.103546142578125
-0.639007568359375,-0.2641143798828125,0.0290679931640625
-0.905914306640625,-0.362640380859375,-0.02716064453125
-1.62103271484375,-0.66595458984375,-0.050750732421875
-1.8698272705078125,-0.952911376953125,0.078125
-1.591705322265625,-0.8235321044921875,0.0260467529296875
-1.5793304443359375,-0.5054473876953125,-0.1802978515625
-2.395660400390625,-0.324066162109375,-0.132965087890625
-2.518157958984375,-0.0340728759765625,0.113861083984375
-2.184921264648437,0.0581512451171875,0.110626220703125
-1.6056365966796875,0.1428680419921875,0.0574951171875
-1.1561737060546875,0.1527099609375,-0.1016998291015625
-0.88104248046875,0.2163848876953125,-0.131744384765625
-0.466644287109375,0.247955322265625,-0.0933990478515625
-0.1850433349609375,0.2591094970703125,-0.068817138671875
0.0102386474609375,0.225372314453125,-0.0633392333984375
0.0998077392578125,0.21685791015625,-0.046295166015625
0.0433502197265625,0.195404052734375,-0.071319580078125
-0.141021728515625,0.17791748046875,-0.0101165771484375
-0.7924957275390625,0.0316009521484375,0.099609375
-1.0870208740234375,0.041778564453125,0.2931976318359375
-1.786865234375,0.1148834228515625,0.38494873046875
-2.47540283203125,-0.213775634765625,0.5871124267578125
-2.29241943359375,-0.4277191162109375,0.5587921142578125
-1.9353179931640625,-0.4084014892578125,0.2252960205078125
-1.6332244873046875,-0.547698974609375,0.2445831298828125
-1.3488922119140625,-0.7864532470703125,0.367828369140625
-0.944793701171875,-0.9547119140625,0.4030303955078125
-0.861419677734375,-0.9618988037109376,0.3688507080078125
-0.968475341796875,-0.8702850341796875,0.1829376220703125
-0.976837158203125,-0.7065887451171875,0.1173858642578125
-1.033538818359375,-0.562103271484375,0.137725830078125
-1.289520263671875,-0.43499755859375,0.0338287353515625
-1.7248687744140625,-0.41351318359375,-0.153533935546875
-2.175888061523437,-0.3989105224609375,-0.2092437744140625
-2.5073394775390625,-0.4885406494140625,-0.238189697265625
-1.9145050048828125,-0.0683746337890625,-0.183258056640625
-1.631317138671875,-0.0857391357421875,-0.3114776611328125
-1.4354400634765625,-0.0807342529296875,-0.166534423828125
-1.125030517578125,-0.0791168212890625,-0.13775634765625
-0.837738037109375,0.0216217041015625,-0.0918731689453125
-0.49969482421875,0.149871826171875,-0.085540771484375
-0.2843170166015625,0.208404541015625,-0.112091064453125
-0.1377105712890625,0.1987762451171875,-0.1073150634765625
-0.115447998046875,0.2034759521484375,-0.0693511962890625
-0.126251220703125,0.184539794921875,-0.069488525390625
-0.34027099609375,0.2207183837890625,-0.037689208984375
-0.627838134765625,0.3350677490234375,0.143463134765625
-1.160491943359375,0.2710113525390625,0.3845062255859375
-1.7725372314453125,0.02410888671875,0.5507659912109375
-2.2136993408203125,-0.1966400146484375,0.5251922607421875
-2.1494140625,-0.328369140625,0.454071044921875
-2.040130615234375,-0.496734619140625,0.376708984375
-1.6194915771484375,-0.510467529296875,0.2489166259765625
-1.275238037109375,-0.7816619873046875,0.124603271484375
-1.0340576171875,-0.9248199462890624,0.1255950927734375
-0.9658203125,-0.90960693359375,0.176849365234375
-0.9354400634765624,-0.7850189208984375,0.2241973876953125
-1.0053863525390625,-0.5835418701171875,0.3355255126953125
-1.1508331298828125,-0.3495635986328125,0.264495849609375
-1.5325469970703125,-0.3721923828125,0.396881103515625
-1.929931640625,-0.3307647705078125,0.41851806640625
-2.3900146484375,-0.3076019287109375,0.3856201171875
-1.9992523193359373,-0.19293212890625,0.2449188232421875
-1.661529541015625,-0.04730224609375,0.18377685546875
-1.4515533447265625,0.0491485595703125,0.090667724609375
-1.121124267578125,0.1198577880859375,0.083099365234375
-0.7346343994140625,0.128326416015625,0.039794921875
-0.4849395751953125,0.080413818359375,0.0035858154296875
-0.33721923828125,0.169891357421875,-0.017730712890625
-0.32244873046875,0.157928466796875,-0.1202392578125
-0.4031829833984375,0.11993408203125,-0.0902252197265625
-0.471832275390625,0.1848297119140625,-0.0635833740234375
-0.4928131103515625,0.182464599609375,-0.014862060546875
-0.714080810546875,0.2268218994140625,0.3004302978515625
-1.06591796875,0.530792236328125,0.7857513427734375
-1.6383209228515625,0.56842041015625,0.7077178955078125
-1.9574737548828125,0.5164794921875,0.801971435546875
-1.8390960693359373,0.16973876953125,0.7508697509765625
-1.788421630859375,-0.2353363037109375,0.6903839111328125
-1.6497955322265625,-0.510650634765625,0.416778564453125
-1.3289031982421875,-0.7395172119140625,0.2779541015625
-0.9782562255859376,-0.7825469970703125,0.23150634765625
-0.8247833251953125,-0.7868804931640625,0.2193450927734375
-0.9485626220703124,-0.70196533203125,0.1417388916015625
-1.2202911376953125,-0.530487060546875,0.01519775390625
-1.4043121337890625,-0.391265869140625,-0.1326446533203125
-1.7022552490234375,-0.333099365234375,-0.143798828125
-2.078216552734375,-0.3013153076171875,0.0615081787109375
-2.7056427001953125,-0.1606903076171875,0.315185546875
-2.4956512451171875,0.0281982421875,0.33026123046875
-1.9072723388671875,0.2842254638671875,0.2161102294921875
-1.37603759765625,0.1941070556640625,0.098785400390625
-0.918975830078125,0.1953887939453125,0.025970458984375
-0.5132904052734375,0.216552734375,-0.1557769775390625
-0.2793426513671875,0.282073974609375,-0.06744384765625
-0.1718292236328125,0.2423858642578125,-0.063629150390625
-0.091552734375,0.1979217529296875,-0.0793609619140625
-0.094818115234375,0.1223602294921875,-0.0697784423828125
-0.1079254150390625,0.0753936767578125,-0.0107269287109375
-0.2865142822265625,0.0865936279296875,0.014556884765625
-0.585052490234375,0.2044525146484375,0.0698089599609375
-1.087493896484375,0.2204437255859375,0.3179779052734375
-1.55426025390625,0.1875762939453125,0.640625
-2.48870849609375,-0.1518707275390625,0.686431884765625
-2.4248046875,-0.291015625,1.153594970703125
-1.88201904296875,-0.469696044921875,0.7857818603515625
-1.456298828125,-0.3397674560546875,0.4394073486328125
-0.9799652099609376,-0.4181365966796875,0.3320159912109375
-0.85992431640625,-0.4530487060546875,0.32318115234375
-0.7592926025390625,-0.4838714599609375,0.213134765625
-0.763153076171875,-0.4755096435546875,0.2073974609375
-0.8887939453125,-0.4973602294921875,0.192657470703125
-1.0192108154296875,-0.4526214599609375,0.254302978515625
-1.0394744873046875,-0.42572021484375,0.1969451904296875
-1.1088714599609375,-0.435302734375,0.17327880859375
-1.3245849609375,-0.493408203125,0.08331298828125
-1.643646240234375,-0.4968719482421875,0.085601806640625
-2.115997314453125,-0.5153350830078125,0.112701416015625
-2.4023895263671875,-0.3354644775390625,0.139801025390625
-2.015594482421875,-0.1710357666015625,0.0646514892578125
-1.960906982421875,-0.061126708984375,0.171600341796875
-1.454681396484375,-0.0214385986328125,0.1535186767578125
-0.8782196044921875,0.13446044921875,0.073638916015625
-0.457061767578125,0.173187255859375,-0.039398193359375
-0.2953033447265625,0.1771392822265625,-0.0620269775390625
-0.252105712890625,0.1773529052734375,-0.0798187255859375
-0.2284698486328125,0.1874542236328125,-0.13116455078125
-0.1856231689453125,0.248626708984375,-0.0901031494140625
-0.1619873046875,0.19195556640625,-0.0834808349609375
-0.3777313232421875,0.1821746826171875,-0.054412841796875
-0.8502197265625,0.2181396484375,0.114227294921875
-1.31927490234375,0.2703094482421875,0.2884521484375
-1.771697998046875,0.201995849609375,0.5593414306640625
-2.280975341796875,0.2431640625,0.692779541015625
-2.463623046875,-0.0883636474609375,0.7152252197265625
-1.956939697265625,-0.276336669921875,0.623779296875
-1.382598876953125,-0.2852630615234375,0.3370513916015625
-1.0261993408203125,-0.3808135986328125,0.203399658203125
-0.9323577880859376,-0.4636688232421875,0.199981689453125
-0.915618896484375,-0.577423095703125,0.1678009033203125
-0.9791259765625,-0.6326141357421875,0.1649169921875
-1.0998382568359375,-0.6095123291015625,0.2132568359375
-1.37701416015625,-0.5204315185546875,0.1771240234375
-1.584381103515625,-0.406463623046875,0.0587615966796875
-1.8737335205078125,-0.323822021484375,-0.0081329345703125
-2.089385986328125,-0.2779083251953125,0.2332916259765625
-2.051422119140625,-0.2911834716796875,0.32635498046875
-2.0772247314453125,-0.1506195068359375,0.206298828125
-1.741058349609375,-0.0223846435546875,0.1336212158203125
-1.4041595458984375,0.0787200927734375,0.074127197265625
-1.070465087890625,0.174957275390625,0.0651092529296875
-0.744903564453125,0.1988525390625,-0.018768310546875
-0.496795654296875,0.165618896484375,-0.0485382080078125
-0.2666778564453125,0.184051513671875,0.005279541015625
-0.18597412109375,0.1578216552734375,0.0591583251953125
-0.211181640625,0.17987060546875,0.0404205322265625
-0.2445831298828125,0.2855682373046875,0.0469512939453125
-0.3171539306640625,0.3636322021484375,0.1164398193359375
-0.635223388671875,0.4907379150390625,0.1385345458984375
-1.330535888671875,0.09088134765625,0.221923828125
-2.477569580078125,-0.069793701171875,0.1533203125
-2.577865600585937,-0.4716644287109375,0.0700836181640625
-2.093536376953125,-0.4252471923828125,0.1599273681640625
-1.3764495849609375,-0.45947265625,0.2371063232421875
-0.9800262451171876,-0.4581756591796875,0.0897064208984375
-0.99761962890625,-0.380889892578125,-0.2195892333984375
-1.0586700439453125,-0.4121246337890625,-0.30462646484375
-1.1903839111328125,-0.4708099365234375,-0.1201934814453125
-1.2494659423828125,-0.4081268310546875,-0.182891845703125
-1.1008148193359375,-0.2746124267578125,-0.2568206787109375
-1.0132904052734375,-0.2415313720703125,-0.1994476318359375
-1.216217041015625,-0.2401580810546875,-0.394500732421875
-1.5125732421875,-0.2679595947265625,-0.476104736328125
-1.8747100830078125,-0.3025360107421875,-0.34912109375
-2.432891845703125,-0.371551513671875,-0.33013916015625
-1.9339447021484373,-0.0777435302734375,-0.2861175537109375
-1.533905029296875,-0.101470947265625,-0.2785491943359375
-1.42877197265625,-0.1460723876953125,-0.165557861328125
-0.9646453857421876,-0.058807373046875,-0.15460205078125
-0.590911865234375,0.02496337890625,-0.1621246337890625
-0.43701171875,0.1341705322265625,-0.15423583984375
-0.344879150390625,0.35888671875,-0.093994140625
-0.25616455078125,0.381256103515625,-0.14208984375
-0.176422119140625,0.4091033935546875,-0.1404571533203125
-0.2099151611328125,0.3740997314453125,-0.104522705078125
-0.4425506591796875,0.3397674560546875,-0.0158538818359375
-0.8658905029296875,0.3606109619140625,0.266845703125
-1.6386566162109375,0.271026611328125,0.3206787109375
-2.350250244140625,0.0648956298828125,0.227386474609375
-2.51507568359375,-0.28582763671875,0.2207794189453125
-2.1802978515625,-0.5870513916015625,0.302978515625
-1.6333770751953125,-0.553314208984375,0.131011962890625
-1.180999755859375,-0.559906005859375,-0.106170654296875
-0.8960113525390625,-0.5540313720703125,-0.1193389892578125
-0.723541259765625,-0.5802154541015625,-0.1437835693359375
-0.686248779296875,-0.56634521484375,-0.1466217041015625
-0.7069244384765625,-0.5587615966796875,-0.14385986328125
-0.9587554931640624,-0.536285400390625,-0.1628265380859375
-1.32916259765625,-0.5261993408203125,-0.141265869140625
-1.6165008544921875,-0.5225067138671875,-0.1639556884765625
-2.223541259765625,-0.566650390625,-0.223480224609375
-2.642578125,-0.5198974609375,-0.1415863037109375
-1.9625396728515625,-0.1642608642578125,-0.2229461669921875
-1.8094635009765625,-0.1356048583984375,-0.2383880615234375
-1.5196990966796875,-0.02508544921875,-0.1806182861328125
-0.9929351806640624,0.10516357421875,-0.1482696533203125
-0.5805206298828125,0.189300537109375,-0.082611083984375
-0.3328094482421875,0.19378662109375,-0.08770751953125
-0.2164154052734375,0.22540283203125,-0.0596160888671875
-0.1429595947265625,0.24652099609375,-0.0123443603515625
-0.0927734375,0.297454833984375,-0.03460693359375
-0.2211151123046875,0.2371063232421875,-0.061859130859375
-0.3947906494140625,0.291412353515625,0.04473876953125
-0.7971343994140625,0.24725341796875,0.082733154296875
-1.583404541015625,0.3265380859375,0.4094696044921875
-2.14910888671875,-0.06243896484375,0.4632568359375
-2.359222412109375,-0.0248260498046875,0.64276123046875
-2.5638885498046875,-0.3794403076171875,0.2783966064453125
-2.2126922607421875,-0.381622314453125,0.199920654296875
-1.5907135009765625,-0.6610870361328125,-0.085296630859375
-1.2489776611328125,-0.756591796875,-0.156646728515625
-0.8927459716796875,-0.8011474609375,-0.1704254150390625
-0.7885284423828125,-0.7488555908203125,-0.0345306396484375
-0.7529754638671875,-0.6266326904296875,-0.0144195556640625
-0.8173828125,-0.4292144775390625,-0.1695709228515625
-1.09564208984375,-0.3932952880859375,-0.3101043701171875
-1.4920501708984375,-0.452606201171875,-0.2645721435546875
-1.905517578125,-0.5673980712890625,-0.289764404296875
-2.051910400390625,-0.4381103515625,-0.3762969970703125
-2.406524658203125,-0.307586669921875,-0.6515960693359375
-2.1479034423828125,-0.0036468505859375,-0.3629302978515625
-2.104110717773437,0.11566162109375,-0.1369781494140625
-1.5683746337890625,0.2844085693359375,-0.0413665771484375
-0.88311767578125,0.352813720703125,-0.0260772705078125
-0.38543701171875,0.296417236328125,-0.018585205078125
-0.1641998291015625,0.2415771484375,-0.0140228271484375
-0.108367919921875,0.2381134033203125,0.0044708251953125
-0.1721038818359375,0.18817138671875,-0.0063323974609375
-0.2941131591796875,0.125946044921875,-0.0102691650390625
-0.3733062744140625,0.1307525634765625,-0.0130157470703125
-0.6463470458984375,0.1234130859375,0.0354156494140625
-1.0525665283203125,0.013671875,0.1397705078125
-1.33203125,-0.165252685546875,0.3018798828125
-2.1124267578125,-0.27496337890625,0.492828369140625
-2.109130859375,-0.65277099609375,0.662628173828125
-2.0409088134765625,-0.3204345703125,0.43829345703125
-1.6499786376953125,-0.216278076171875,0.311309814453125
-1.407379150390625,-0.562347412109375,0.2647552490234375
-1.1208648681640625,-0.6963958740234375,0.12908935546875
-1.00543212890625,-0.7410430908203125,-0.034576416015625
-0.923370361328125,-0.782135009765625,-0.07666015625
-0.90289306640625,-0.6999969482421875,-0.119049072265625
-0.8441314697265625,-0.5930328369140625,-0.108367919921875
-0.865814208984375,-0.5557403564453125,-0.103607177734375
-1.068634033203125,-0.5346527099609375,-0.128021240234375
-1.2001190185546875,-0.4708099365234375,-0.164886474609375
-1.6424407958984375,-0.5828857421875,-0.1694183349609375
-1.970672607421875,-0.68096923828125,0.0026702880859375
-1.9973602294921875,-0.479217529296875,-0.007568359375
-2.14111328125,-0.40771484375,0.0012664794921875
-2.097274780273437,-0.1837005615234375,-0.0870361328125
-1.6957550048828125,0.030242919921875,-0.0897369384765625
-1.0556793212890625,0.015411376953125,-0.031524658203125
-0.6129150390625,0.0970306396484375,-0.0866546630859375
-0.3529510498046875,0.169921875,-0.150848388671875
-0.2974853515625,0.311920166015625,-0.1571502685546875
-0.173065185546875,0.4188385009765625,-0.1285400390625
-0.1057281494140625,0.3204803466796875,-0.1111297607421875
-0.211181640625,0.202880859375,-0.0342864990234375
-0.62274169921875,0.038726806640625,0.0227203369140625
-1.144866943359375,-0.1904754638671875,0.0888671875
-1.440948486328125,-0.1822509765625,0.08270263671875
-2.14813232421875,-0.2957305908203125,0.245208740234375
-2.4695587158203125,-0.637908935546875,0.6114654541015625
-1.9875030517578125,-0.6426239013671875,0.6139373779296875
-1.7279052734375,-0.7191314697265625,0.400146484375
-1.2019500732421875,-0.7449493408203125,0.4656829833984375
-0.8976287841796875,-0.7008514404296875,0.350799560546875
-0.7963409423828125,-0.576416015625,0.161285400390625
-0.7106475830078125,-0.4902496337890625,0.118988037109375
-0.7042083740234375,-0.42059326171875,0.0365447998046875
-0.684051513671875,-0.37188720703125,-0.0502777099609375
-0.570953369140625,-0.42242431640625,-0.0892333984375
-0.845306396484375,-0.55206298828125,-0.10943603515625
-1.4096527099609375,-0.6740875244140625,-0.144287109375
-1.7808074951171875,-0.9355621337890624,-0.117431640625
-1.9114532470703125,-0.7425537109375,0.11724853515625
-2.073577880859375,-0.81097412109375,-0.0782623291015625
-2.012924194335937,-0.4033050537109375,0.130615234375
-1.8240966796875,-0.159881591796875,0.0081329345703125
-1.6024322509765625,-0.040191650390625,0.0206756591796875
-1.2772674560546875,0.3657989501953125,0.1141204833984375
-0.66217041015625,0.5099639892578125,-0.0186614990234375
-0.34893798828125,0.4249114990234375,-0.0064697265625
-0.1701812744140625,0.3470306396484375,0.0855560302734375
-0.0876922607421875,0.2814788818359375,0.08404541015625
-0.198699951171875,0.207366943359375,0.1121063232421875
-0.5285797119140625,0.1472930908203125,0.1591949462890625
-0.8698272705078125,0.130462646484375,0.1038055419921875
-1.259735107421875,-0.09600830078125,0.132110595703125
-1.8813323974609373,-0.2601165771484375,0.4570770263671875
-2.3753662109375,-0.8569488525390625,0.537139892578125
-2.30682373046875,-1.10467529296875,0.7932586669921875
-1.996063232421875,-1.143798828125,0.119537353515625
-1.5253448486328125,-1.4825897216796875,-0.0057525634765625
-0.8117523193359375,-0.9565582275390624,-0.104339599609375
-0.3473052978515625,-0.4598236083984375,-0.187255859375
-0.5266876220703125,-0.5056304931640625,-0.0670928955078125
-0.85430908203125,-0.4415130615234375,-0.334991455078125
-1.4655914306640625,-0.6949462890625,-0.174896240234375
-1.94561767578125,-0.6717071533203125,-0.18701171875
-2.0277862548828125,-0.5328826904296875,-0.0750732421875
-1.878448486328125,-0.3423919677734375,0.0107574462890625
-1.6909942626953125,-0.225860595703125,0.0202484130859375
-1.55718994140625,-0.1223297119140625,0.04205322265625
-1.314453125,-0.1210479736328125,0.04010009765625
-1.0592498779296875,-0.092987060546875,0.0661468505859375
-0.774993896484375,-0.0768280029296875,0.0011444091796875
-0.3509674072265625,-0.060699462890625,3.0517578125e-05
-0.14080810546875,-0.33648681640625,-0.1142425537109375
-0.3335113525390625,-0.176116943359375,-0.02099609375
-0.1626129150390625,-0.1050872802734375,-0.021453857421875
-0.3014984130859375,-0.0535125732421875,-0.0581207275390625
-0.58251953125,0.0572509765625,0.00140380859375
-0.778045654296875,0.0369415283203125,0.1240386962890625
-0.943939208984375,-0.106719970703125,0.101959228515625
-0.906158447265625,-0.0348663330078125,-0.085540771484375
-1.2521514892578125,-0.1813507080078125,0.1055755615234375
-1.53314208984375,-0.1381378173828125,0.3955535888671875
-1.5435638427734375,-0.186767578125,0.466827392578125
-1.857666015625,-0.0899810791015625,0.6575469970703125
-2.0155792236328125,-0.37310791015625,0.65594482421875
-1.8554534912109373,-0.2298583984375,0.47491455078125
-1.2342681884765625,-0.3651885986328125,0.026641845703125
-1.0086669921875,-0.2662200927734375,-0.1460418701171875
-0.9965667724609376,-0.367889404296875,-0.2069854736328125
-0.985198974609375,-0.370391845703125,-0.140380859375
-0.972412109375,-0.444091796875,-0.145233154296875
-1.053619384765625,-0.4745025634765625,-0.0920867919921875
-1.1279754638671875,-0.460845947265625,-0.12396240234375
-1.212799072265625,-0.465179443359375,-0.1385040283203125
-1.3347930908203125,-0.466705322265625,-0.137786865234375
-1.4699554443359375,-0.522064208984375,-0.0467071533203125
-1.6532135009765625,-0.39739990234375,-0.1287689208984375
-1.740875244140625,-0.34271240234375,-0.18402099609375
-1.814422607421875,-0.2881317138671875,-0.0471343994140625
-1.5248870849609375,-0.278167724609375,-0.0510711669921875
-1.062835693359375,-0.09893798828125,-0.0995941162109375
-0.6374969482421875,0.0420989990234375,-0.0803375244140625
-0.3472442626953125,0.0228424072265625,-0.0572052001953125
-0.213470458984375,0.0118560791015625,-0.0194091796875
-0.1720123291015625,0.0345916748046875,-0.01202392578125
-0.2640838623046875,0.0660858154296875,-0.0442047119140625
-0.33489990234375,0.0766448974609375,0.0163726806640625
-0.412841796875,0.095001220703125,0.0533294677734375
-0.6104888916015625,0.153717041015625,0.0966033935546875
-0.972259521484375,0.1241607666015625,0.229583740234375
-1.272369384765625,0.13995361328125,0.2247161865234375
-2.0101470947265625,-0.0843658447265625,0.244842529296875
-2.4716796875,-0.0169677734375,0.6199951171875
-2.4542694091796875,-0.6810150146484375,0.461395263671875
-1.84515380859375,-0.6885986328125,0.548797607421875
-1.2022705078125,-0.5533905029296875,0.26483154296875
-0.961944580078125,-0.50311279296875,0.2342987060546875
-0.8202056884765625,-0.582183837890625,0.1073455810546875
-0.8321990966796875,-0.6575775146484375,-0.012054443359375
-0.7919921875,-0.5617523193359375,-0.079986572265625
-0.7579803466796875,-0.5377655029296875,-0.064208984375
-0.9444122314453124,-0.5905609130859375,-0.0486297607421875
-1.1198272705078125,-0.6747894287109375,-0.034149169921875
-1.4781646728515625,-0.7487030029296875,-0.14678955078125
-1.82342529296875,-0.786376953125,-0.2382354736328125
-2.47161865234375,-0.957366943359375,-0.1152801513671875
-2.18426513671875,-0.6358184814453125,0.30938720703125
-1.484375,-0.188995361328125,0.0007781982421875
-1.1937103271484375,0.0046234130859375,-0.02239990234375
-0.812347412109375,-0.01776123046875,-0.014251708984375
-0.534027099609375,-0.1109771728515625,0.015838623046875
-0.41583251953125,-0.11541748046875,-0.1022796630859375
-0.348541259765625,0.0135345458984375,-0.15020751953125
-0.2687530517578125,0.1441497802734375,-0.15142822265625
-0.2208099365234375,0.1240386962890625,-0.1484375
-0.268585205078125,0.1269683837890625,-0.0718536376953125
-0.3457794189453125,0.0787200927734375,0.0025177001953125
-0.5816192626953125,-0.02783203125,-0.0127105712890625
-0.964324951171875,0.1587066650390625,0.117279052734375
-1.5699310302734375,-0.0553131103515625,0.3607635498046875
-2.27764892578125,-0.11151123046875,0.78948974609375
-2.3158111572265625,-0.53887939453125,0.4961090087890625
-2.18780517578125,-0.5093231201171875,0.4427337646484375
-1.6377105712890625,-0.6472930908203125,0.331207275390625
-1.2401580810546875,-0.629241943359375,0.289276123046875
-0.9093017578125,-0.640472412109375,0.15948486328125
-0.8027801513671875,-0.53118896484375,0.0258941650390625
-0.8046112060546875,-0.4375457763671875,-0.07568359375
-0.8235626220703125,-0.3385162353515625,-0.13165283203125
-0.9515228271484376,-0.338134765625,-0.0078582763671875
-1.013275146484375,-0.430816650390625,0.0378570556640625
-1.16326904296875,-0.4959869384765625,0.0812835693359375
-1.3419189453125,-0.4883270263671875,0.0748291015625
-1.6175079345703125,-0.6101531982421875,0.134765625
-1.9011077880859373,-0.587799072265625,0.2893829345703125
-1.9558868408203125,-0.671783447265625,0.306243896484375
-1.6138763427734375,-0.474578857421875,0.142303466796875
-1.3536376953125,-0.3783111572265625,0.0683441162109375
-1.1725311279296875,-0.4937744140625,0.0044708251953125
-1.0032806396484375,-0.3289947509765625,0.04541015625
-0.7744140625,-0.1827239990234375,0.0389404296875
-0.4929046630859375,-0.0156097412109375,0.096435546875
-0.2227325439453125,-0.0575714111328125,0.086029052734375
-0.134185791015625,-0.0482635498046875,0.0742645263671875
-0.11590576171875,-0.0533599853515625,0.0560760498046875
-0.1472625732421875,-0.025787353515625,0.01605224609375
-0.287750244140625,0.0311737060546875,0.01324462890625
-0.3988189697265625,0.068695068359375,0.0840911865234375
-0.6756744384765625,0.0169830322265625,0.1745758056640625
-0.9703216552734376,-0.0065155029296875,0.350067138671875
-1.577606201171875,-0.1839447021484375,0.30621337890625
-2.4402618408203125,-0.6714324951171875,0.718475341796875
-2.371810913085937,-1.115692138671875,0.57476806640625
-2.065765380859375,-1.0798492431640625,0.12738037109375
-1.45916748046875,-0.6413421630859375,0.1556396484375
-0.9135894775390624,-0.60723876953125,0.2766876220703125
-0.7828521728515625,-0.5705413818359375,0.2026519775390625
-0.970611572265625,-0.5077362060546875,0.0903167724609375
-0.976715087890625,-0.478424072265625,-0.0480194091796875
-1.035430908203125,-0.4954833984375,-0.0587005615234375
-0.987884521484375,-0.4462738037109375,-0.0335845947265625
-0.9622802734375,-0.444580078125,0.00714111328125
-1.1928253173828125,-0.5487823486328125,0.16845703125
-1.556671142578125,-0.568328857421875,0.33843994140625
-1.819732666015625,-0.5588531494140625,0.264678955078125
-2.37274169921875,-0.5638275146484375,0.2593841552734375
-2.413482666015625,-0.56573486328125,0.40185546875
-1.7136688232421875,-0.2427825927734375,0.22039794921875
-1.4149169921875,-0.0700836181640625,-0.0203094482421875
-1.11737060546875,0.017059326171875,0.0444793701171875
-0.7733306884765625,0.0372161865234375,0.0495452880859375
-0.5052032470703125,0.168914794921875,-0.06048583984375
-0.3233795166015625,0.1525726318359375,-0.106201171875
-0.1916961669921875,0.1291961669921875,-0.0356903076171875
-0.125701904296875,0.092132568359375,-0.0037384033203125
-0.167388916015625,0.1359710693359375,0.01324462890625
-0.2675628662109375,0.144683837890625,0.049957275390625
-0.559661865234375,0.1495208740234375,0.110107421875
-1.0162811279296875,0.201263427734375,0.33172607421875
-1.5509796142578125,0.2763824462890625,0.3453369140625
-2.0636444091796875,0.32073974609375,0.7144317626953125
-2.4235992431640625,0.119720458984375,1.032318115234375
-2.1074676513671875,-0.1179351806640625,0.9625091552734376
-1.4927215576171875,-0.18133544921875,0.75537109375
-1.056884765625,-0.243865966796875,0.3951568603515625
-0.99005126953125,-0.3399200439453125,0.3509979248046875
-0.946319580078125,-0.4603118896484375,0.3739776611328125
-0.940277099609375,-0.4417724609375,0.37774658203125
-0.9626922607421876,-0.368682861328125,0.357208251953125
-1.0027008056640625,-0.26611328125,0.3934478759765625
-1.1103668212890625,-0.1981048583984375,0.4570159912109375
-1.4377593994140625,-0.1752471923828125,0.5222930908203125
-1.5756072998046875,-0.1038970947265625,0.45379638671875
-1.62060546875,-0.0746612548828125,0.391143798828125
-1.453094482421875,-0.1634063720703125,0.297393798828125
-1.260406494140625,-0.3013458251953125,0.11627197265625
-1.2357330322265625,-0.381927490234375,0.04083251953125
-1.9047698974609373,-0.56317138671875,0.0845184326171875
-1.77301025390625,-0.2183990478515625,0.342132568359375
-1.28314208984375,0.01031494140625,0.042755126953125
-1.0577545166015625,-0.0214996337890625,0.0431671142578125
-0.8005218505859375,0.0236358642578125,0.1157684326171875
-0.457275390625,0.05926513671875,0.039764404296875
-0.21905517578125,0.136627197265625,0.0243072509765625
-0.0793914794921875,0.1676788330078125,0.00189208984375
0.038818359375,0.1820068359375,0.003509521484375
-0.0369415283203125,0.17742919921875,-0.017608642578125
-0.2970123291015625,0.1971282958984375,0.0449371337890625
-0.642547607421875,0.2585296630859375,0.2411956787109375
-1.001434326171875,0.2773590087890625,0.35009765625
-1.47796630859375,0.08831787109375,0.2316131591796875
-2.237701416015625,-0.0294342041015625,0.356292724609375
-2.897064208984375,-0.5384521484375,0.4618072509765625
-2.60150146484375,-0.991241455078125,0.725494384765625
-1.67364501953125,-0.818756103515625,0.35198974609375
-1.0236663818359375,-0.6205596923828125,0.2137451171875
-0.791107177734375,-0.705352783203125,0.21881103515625
-0.78021240234375,-0.7669677734375,0.1524810791015625
-0.933563232421875,-0.71490478515625,0.0131683349609375
-1.083770751953125,-0.6487579345703125,0.017791748046875
-1.1087493896484375,-0.5881805419921875,0.1090545654296875
-1.1767730712890625,-0.5366973876953125,0.1031951904296875
-1.2005615234375,-0.39501953125,-0.1175384521484375
-1.31591796875,-0.5667266845703125,0.0216827392578125
-1.623199462890625,-0.57464599609375,-0.01910400390625
-1.854278564453125,-0.5123748779296875,-0.1290435791015625
-1.8289337158203125,-0.4615936279296875,-0.0319671630859375
-1.387481689453125,-0.2162628173828125,-0.019775390625
-1.07952880859375,-0.087188720703125,-0.222259521484375
-0.9094696044921876,-0.053253173828125,-0.2954559326171875
-0.6826934814453125,-0.0005035400390625,-0.202911376953125
-0.45318603515625,0.018585205078125,-0.1798553466796875
-0.3424224853515625,0.0516204833984375,-0.1161041259765625
-0.2967529296875,0.0694122314453125,-0.07586669921875
-0.3155670166015625,-0.0268402099609375,-0.0911712646484375
-0.456298828125,-0.1665191650390625,-0.1078338623046875
-0.6088104248046875,-0.4101715087890625,-0.3429718017578125
-0.867156982421875,-0.5955963134765625,-0.3755950927734375
-1.0066986083984375,-0.7324371337890625,-0.598907470703125
-1.133148193359375,-0.7380523681640625,-0.761627197265625
-1.174041748046875,-0.5987548828125,-0.8136138916015625
-0.9615325927734376,-0.3223724365234375,-0.6535797119140625
-0.976043701171875,0.0861968994140625,-0.346710205078125
-0.854034423828125,0.2820587158203125,-0.2690277099609375
-0.9238739013671876,0.274871826171875,-0.0741424560546875
-1.069610595703125,-0.1491546630859375,0.0548095703125
-1.1403961181640625,-0.29058837890625,-0.0653076171875
-1.3357391357421875,-0.7225494384765625,-0.182708740234375
-1.1478729248046875,-0.8938140869140625,-0.2625274658203125
-1.019378662109375,-0.8751220703125,-0.306884765625
-1.0225830078125,-0.79315185546875,-0.354766845703125
-1.09075927734375,-0.8012542724609375,-0.2770843505859375
-1.2097015380859375,-0.6267852783203125,-0.4221343994140625
-1.3067474365234375,-0.6300201416015625,-0.6726837158203125
-1.428466796875,-0.523712158203125,-0.88812255859375
-1.621917724609375,-0.4311370849609375,-1.1538238525390625
-1.63958740234375,-0.1925811767578125,-0.7569732666015625
-1.24072265625,0.1871795654296875,-0.7126007080078125
-1.0535888671875,0.1321258544921875,-0.97247314453125
-1.003875732421875,0.165130615234375,-0.548553466796875
-0.7602081298828125,0.0233917236328125,-0.216949462890625
-0.4825592041015625,0.0339813232421875,-0.1959075927734375
-0.2831573486328125,0.095184326171875,-0.2358245849609375
-0.23236083984375,0.0866241455078125,-0.255859375
-0.26361083984375,0.0746307373046875,-0.164794921875
-0.4203948974609375,0.2877197265625,-0.1322784423828125
-0.795867919921875,0.6623077392578125,-0.0820770263671875
-1.1925048828125,0.3606719970703125,-0.3379974365234375
-1.72760009765625,0.227081298828125,-0.04913330078125
-2.185211181640625,0.2469024658203125,-0.389495849609375
-1.910491943359375,-0.0912017822265625,-0.5834503173828125
-1.6917266845703125,-0.1525115966796875,-0.7243804931640625
-1.5582427978515625,-0.2684326171875,-0.5983123779296875
-1.051544189453125,-0.2593994140625,-0.809783935546875
-1.030914306640625,-0.3917388916015625,-0.475433349609375
-0.8743743896484375,-0.5899505615234375,-0.3082427978515625
-0.8278045654296875,-0.663360595703125,-0.39251708984375
-0.848846435546875,-0.49554443359375,-0.522064208984375
-0.9127655029296876,-0.3505401611328125,-0.844268798828125
-0.8973846435546875,-0.178436279296875,-1.0125579833984375
-0.9078521728515624,-0.0551910400390625,-1.1358795166015625
-0.9381866455078124,-0.0219268798828125,-1.398162841796875
-0.76385498046875,0.0091094970703125,-1.22222900390625
-0.53326416015625,0.1023712158203125,-1.1003570556640625
-0.332977294921875,0.28460693359375,-1.608001708984375
-0.073028564453125,0.0984649658203125,-1.378082275390625
-0.087188720703125,0.0413970947265625,-0.98052978515625
0.060546875,0.0076751708984375,-1.0572509765625
-0.0221099853515625,0.06396484375,-0.9118804931640624
-0.10748291015625,0.098724365234375,-0.74798583984375
-0.1811065673828125,0.050811767578125,-0.5039520263671875
-0.1476287841796875,0.1397552490234375,-0.545806884765625
-0.4301910400390625,-0.080963134765625,-0.2669219970703125
-0.416107177734375,-0.1267547607421875,-0.3119049072265625
-0.501312255859375,-0.1990509033203125,-0.18817138671875
-0.5657501220703125,-0.3834228515625,-0.35888671875
-0.68035888671875,-0.4182891845703125,-0.437408447265625
-0.8497161865234375,-0.4348297119140625,-0.894012451171875
-0.952423095703125,-0.3951873779296875,-1.1726226806640625
-1.03045654296875,-0.3766326904296875,-1.5081024169921875
-0.7376251220703125,-0.323486328125,-1.5099029541015625
-0.68511962890625,-0.270660400390625,-1.382080078125
-0.7962493896484375,-0.30389404296875,-1.05487060546875
-0.3575592041015625,-0.528411865234375,-1.1734771728515625
-0.3968505859375,-0.5675048828125,-0.8244171142578125
-0.4470672607421875,-0.61572265625,-0.8618621826171875
-0.3448486328125,-0.6170196533203125,-0.7536163330078125
-0.3051910400390625,-0.6105804443359375,-0.77642822265625
-0.4125518798828125,-0.568206787109375,-0.96234130859375
-0.29656982421875,-0.444427490234375,-0.7559661865234375
-0.23260498046875,-0.4599609375,-0.6737823486328125
-0.3619232177734375,-0.6263885498046875,-0.6402740478515625
-0.1489410400390625,-0.6303558349609375,-0.895416259765625
-0.266143798828125,-0.38885498046875,-0.8205718994140625
-0.27764892578125,-0.394866943359375,-0.6458587646484375
-0.159942626953125,-0.400726318359375,-0.5002288818359375
-0.3828887939453125,-0.184295654296875,-0.4578094482421875
-0.4289703369140625,-0.0323944091796875,-0.6577606201171875
-0.5460357666015625,0.1512451171875,-0.476470947265625
-0.927520751953125,0.1722259521484375,-0.43463134765625
-1.0420074462890625,0.043212890625,-0.3531036376953125
-1.1945037841796875,-0.09295654296875,-0.4308013916015625
-1.351654052734375,-0.250701904296875,-0.41302490234375
-1.48138427734375,-0.6166229248046875,-0.496246337890625
-1.56787109375,-0.8730010986328125,-0.4159393310546875
-1.47662353515625,-1.108245849609375,-0.764495849609375
-1.3597412109375,-1.1111907958984375,-0.808380126953125
-1.0678253173828125,-0.870513916015625,-1.003387451171875
-0.8539886474609375,-0.57354736328125,-1.1879119873046875
-0.829803466796875,-0.1920013427734375,-1.1412506103515625
-0.8114166259765625,0.0470123291015625,-1.1026458740234375
-0.7682952880859375,0.0572967529296875,-0.92376708984375
-0.81158447265625,0.2160491943359375,-0.908966064453125
-0.67510986328125,0.1714019775390625,-0.7434844970703125
-0.77764892578125,0.2061614990234375,-0.613800048828125
-0.775360107421875,0.1226043701171875,-0.446929931640625
-0.60064697265625,0.022216796875,-0.402313232421875
-0.486663818359375,-0.0576629638671875,-0.375335693359375
-0.4763336181640625,-0.0999298095703125,-0.2949676513671875
-0.4248809814453125,-0.1242828369140625,-0.2964935302734375
-0.52301025390625,-0.0778656005859375,-0.33575439453125
-0.5050506591796875,-0.1322479248046875,-0.3662109375
-0.5587310791015625,-0.1308441162109375,-0.2246246337890625
-0.2773895263671875,-0.5663909912109375,0.10980224609375
-0.837646484375,-0.2601165771484375,-0.0096893310546875
-1.02154541015625,-0.3134002685546875,-0.0589141845703125
-1.1511993408203125,-0.3411712646484375,-0.0903472900390625
-1.478485107421875,-0.46148681640625,-0.19781494140625
-1.3341827392578125,-0.734619140625,-0.2453460693359375
-1.358123779296875,-0.760894775390625,-0.3441009521484375
-1.3409881591796875,-0.867828369140625,-0.3227081298828125
-1.13763427734375,-0.8518829345703125,-0.2938690185546875
-0.964996337890625,-0.7255096435546875,-0.367340087890625
-1.0902862548828125,-0.7158203125,-0.40399169921875
-1.827972412109375,-0.753204345703125,-0.288848876953125
-2.2259063720703125,-0.8424835205078125,-0.235809326171875
-2.729339599609375,-0.6962127685546875,-0.329559326171875
-2.0098876953125,-0.161346435546875,-0.13555908203125
-1.0435028076171875,0.042999267578125,-0.0315399169921875
-0.3336181640625,0.4270172119140625,0.0842132568359375
-0.0813140869140625,0.6184234619140625,0.085113525390625
-0.06719970703125,0.745147705078125,0.345489501953125
0.277740478515625,0.530059814453125,0.285919189453125
0.2575531005859375,0.395263671875,0.2494049072265625
-0.358154296875,0.195465087890625,0.12469482421875
-2.504974365234375,-0.3024749755859375,-0.1279296875
-3.093734741210937,-0.926422119140625,0.374359130859375
-2.0151824951171875,-1.0517578125,0.63909912109375
-1.1016387939453125,-1.064300537109375,0.1892547607421875
-0.6833343505859375,-0.958953857421875,-0.1493377685546875
-0.73187255859375,-0.91131591796875,-0.0368499755859375
-0.460968017578125,-0.8135528564453125,-0.069915771484375
-0.406402587890625,-0.6431427001953125,-0.1504669189453125
-0.740142822265625,-0.6311798095703125,-0.170684814453125
-0.58660888671875,-0.7228240966796875,-0.0760345458984375
-1.40509033203125,-0.86334228515625,-0.1042022705078125
-2.5189361572265625,-1.12213134765625,0.2218475341796875
-2.2530059814453125,-0.9294891357421876,0.8623046875
-1.382415771484375,-0.4814605712890625,0.752716064453125
-0.6999359130859375,-0.0583953857421875,0.3461151123046875
-0.2640228271484375,0.2228546142578125,0.1463775634765625
-0.0814361572265625,0.1428375244140625,0.0884857177734375
-0.0578460693359375,0.2120513916015625,0.1296539306640625
-0.08819580078125,0.3302001953125,0.0827484130859375
-0.234344482421875,0.4216461181640625,0.326934814453125
-0.51025390625,0.003692626953125,0.3726959228515625
-1.9306640625,-0.0420684814453125,0.3605194091796875
-2.18756103515625,-0.2473907470703125,0.324371337890625
-1.6529693603515625,-0.392364501953125,0.1817474365234375
-1.254302978515625,-0.401947021484375,0.1493988037109375
-1.0410614013671875,-0.45318603515625,0.206512451171875
-1.0432586669921875,-0.7466888427734375,0.092376708984375
-1.2623443603515625,-0.959625244140625,-0.0879974365234375
-1.127105712890625,-1.15966796875,-0.2017669677734375
-1.203521728515625,-1.1854705810546875,0.02984619140625
-1.2779541015625,-1.05902099609375,0.55230712890625
-1.3004150390625,-0.863983154296875,0.517303466796875
-1.767364501953125,-0.461517333984375,0.661163330078125
-1.888275146484375,-0.405120849609375,0.8143463134765625
-2.0976715087890625,-0.2667388916015625,1.164825439453125
-1.621337890625,-0.15185546875,1.0358428955078125
-1.009429931640625,0.096221923828125,0.5641021728515625
-0.562835693359375,0.20068359375,0.2370147705078125
-0.1764984130859375,0.300384521484375,0.0436248779296875
0.1772003173828125,0.239959716796875,-0.1028900146484375
0.3661346435546875,0.140594482421875,-0.126068115234375
0.430633544921875,0.0339813232421875,-0.1147918701171875
0.017608642578125,0.1008453369140625,0.028350830078125
-0.5256500244140625,0.0532379150390625,0.1535491943359375
-1.72406005859375,0.0355377197265625,0.399078369140625
-2.3097686767578125,-0.39508056640625,0.3723297119140625
-2.305877685546875,-0.575653076171875,0.3101959228515625
-1.93865966796875,-0.805572509765625,0.1182098388671875
-1.2457733154296875,-0.757568359375,0.0070037841796875
-0.861114501953125,-0.7060546875,-0.086090087890625
-0.76922607421875,-0.7979736328125,-0.2342987060546875
-0.9195098876953124,-1.1822357177734375,-0.3816986083984375
-1.575592041015625,-1.7917938232421875,-0.445648193359375
-1.02056884765625,-1.3784027099609375,-0.3826904296875
-0.752899169921875,-1.1263885498046875,-0.3831329345703125
-1.11578369140625,-1.0693206787109375,-0.179046630859375
-1.560150146484375,-1.043792724609375,-0.3605194091796875
-2.03875732421875,-0.76141357421875,-0.401519775390625
-1.656951904296875,-0.6914520263671875,-0.33074951171875
-1.5240936279296875,-0.6174774169921875,-0.1751556396484375
-1.1628875732421875,-0.4414520263671875,-0.016693115234375
-0.7565155029296875,-0.14971923828125,0.0089263916015625
-0.4865264892578125,0.0836639404296875,0.04217529296875
-0.3939056396484375,0.245697021484375,0.1171875
-0.562347412109375,0.491241455078125,0.24749755859375
-0.4339447021484375,0.3996124267578125,0.2501373291015625
-0.4979095458984375,0.257843017578125,0.207122802734375
-0.6907501220703125,0.060089111328125,0.249786376953125
-1.2230224609375,-0.409332275390625,0.4329833984375
-1.5839385986328125,-0.6029510498046875,0.562652587890625
-1.900787353515625,-0.7376251220703125,0.5308074951171875
-1.7490234375,-0.7863311767578125,0.4740753173828125
-1.3646392822265625,-0.777191162109375,0.277496337890625
-0.71490478515625,-1.0718994140625,0.02911376953125
-0.5714263916015625,-1.2238616943359375,-0.1767120361328125
-0.4664459228515625,-1.41961669921875,-0.1305389404296875
-0.806427001953125,-1.4544830322265625,-0.1734771728515625
-0.8851776123046875,-1.14013671875,-0.0341644287109375
-0.730224609375,-1.0388641357421875,0.26654052734375
-0.99102783203125,-1.2087554931640625,0.576171875
-1.6719818115234375,-1.5343475341796875,0.471527099609375
-1.903045654296875,-1.3400421142578125,0.279083251953125
-1.5724029541015625,-1.1292572021484375,0.33331298828125
-1.17230224609375,-0.677947998046875,0.211639404296875
-0.666259765625,-0.2098388671875,0.0506134033203125
-0.2685089111328125,0.0196533203125,0.0305633544921875
-0.02520751953125,0.10430908203125,0.047637939453125
0.1076812744140625,0.2232666015625,0.03411865234375
0.111846923828125,0.2215576171875,0.0006256103515625
0.0132293701171875,0.2458648681640625,0.01629638671875
-0.11260986328125,0.274993896484375,0.07391357421875
-0.6302032470703125,0.4579620361328125,0.350830078125
-1.1029205322265625,0.3496551513671875,0.608612060546875
-2.305389404296875,0.094390869140625,0.758270263671875
-2.666976928710937,-0.5109405517578125,0.689666748046875
-2.16650390625,-0.801483154296875,0.6494598388671875
-1.3690032958984375,-0.92852783203125,0.62359619140625
-0.9704132080078124,-1.0743560791015625,0.6985626220703125
-0.864105224609375,-1.2086029052734375,0.5366973876953125
-1.1388092041015625,-1.1249847412109375,0.143463134765625
-1.02374267578125,-0.9912261962890624,0.020111083984375
-1.1352996826171875,-0.889739990234375,0.08477783203125
-1.34783935546875,-0.6638031005859375,0.2037353515625
-1.532562255859375,-0.72344970703125,0.22723388671875
-1.8358001708984373,-0.76824951171875,0.27728271484375
-2.274078369140625,-0.661865234375,0.1460113525390625
-2.181060791015625,-0.4520416259765625,0.23876953125
-1.8321380615234373,-0.2623748779296875,0.287384033203125
-1.1359405517578125,0.032318115234375,0.093109130859375
-0.576690673828125,0.2115936279296875,-0.04962158203125
-0.3125457763671875,0.2745208740234375,-0.032073974609375
-0.1612701416015625,0.289031982421875,0.0330352783203125
-0.0534820556640625,0.2257843017578125,0.0758209228515625
-0.010345458984375,0.1959075927734375,0.1062469482421875
-0.0259857177734375,0.123809814453125,0.08270263671875
-0.2330780029296875,0.1172332763671875,0.0074615478515625
-0.781829833984375,0.307891845703125,-0.030242919921875
-1.4742584228515625,0.1102447509765625,-0.2816925048828125
-1.9941558837890625,0.128326416015625,-0.291351318359375
-2.5090789794921875,-0.2835235595703125,0.2728271484375
-1.9099884033203125,-0.5157012939453125,0.5455780029296875
-1.308502197265625,-0.5303802490234375,0.496856689453125
-0.96478271484375,-0.5119476318359375,0.4907684326171875
-0.8984222412109375,-0.5171966552734375,0.214935302734375
-0.969146728515625,-0.652130126953125,-0.177032470703125
-1.0517730712890625,-0.7111053466796875,-0.348541259765625
-1.008453369140625,-0.7489776611328125,-0.357391357421875
-1.1156463623046875,-0.6995849609375,-0.240997314453125
-1.1533966064453125,-0.6202545166015625,-0.0619354248046875
-1.512542724609375,-0.46588134765625,0.0091400146484375
-1.8530731201171875,-0.3273162841796875,0.0527191162109375
-2.2542266845703125,-0.1443939208984375,0.3081512451171875
-1.989044189453125,0.045928955078125,0.629852294921875
-1.272979736328125,0.063995361328125,0.584686279296875
-1.00927734375,0.240386962890625,0.4996795654296875
-0.602264404296875,0.2432861328125,0.345672607421875
-0.3957672119140625,0.3719635009765625,0.2938690185546875
-0.17572021484375,0.2825164794921875,0.18621826171875
-0.1562042236328125,0.282196044921875,0.1110076904296875
-0.2872161865234375,0.131744384765625,0.0963287353515625
-0.6397552490234375,0.1175537109375,0.1982421875
-1.2370452880859375,-0.036346435546875,0.2606964111328125
-1.486602783203125,-0.11004638671875,0.37713623046875
-1.6342315673828125,-0.1704559326171875,0.363494873046875
-1.5583648681640625,-0.3015594482421875,0.3233489990234375
-1.3966217041015625,-0.4081573486328125,0.1822967529296875
-1.1461181640625,-0.440765380859375,0.059295654296875
-1.0171966552734375,-0.5336151123046875,0.08709716796875
-0.90557861328125,-0.559417724609375,0.0655670166015625
-0.8820343017578125,-0.629913330078125,0.095947265625
-0.82537841796875,-0.69793701171875,0.0894012451171875
-1.0435791015625,-0.7773284912109375,0.0825958251953125
-1.22894287109375,-0.8922882080078125,0.14971923828125
-1.5093994140625,-0.8885955810546875,0.06817626953125
-1.7444000244140625,-0.7479705810546875,0.0037384033203125
-1.3758392333984375,-0.468597412109375,-0.202972412109375
-1.2683563232421875,-0.1780548095703125,-0.3995819091796875
-1.0240936279296875,-0.0598602294921875,-0.34722900390625
-0.4470367431640625,-0.1281585693359375,-0.0123748779296875
-0.28558349609375,-0.079010009765625,-0.00567626953125
0.0358428955078125,0.0556182861328125,-0.0019683837890625
0.03326416015625,0.0540618896484375,-0.001068115234375
0.0335540771484375,0.054412841796875,-0.001739501953125
0.03680419921875,0.05377197265625,-0.0045928955078125
0.044158935546875,0.0528564453125,-0.0120086669921875
0.0528717041015625,0.0494842529296875,-0.0200958251953125
0.0611724853515625,0.04498291015625,-0.032989501953125
0.0697174072265625,0.037078857421875,-0.0441131591796875
0.076629638671875,0.025054931640625,-0.0570220947265625
0.0791015625,0.0091552734375,-0.08184814453125
2.8112030029296875,7.913604736328125,-6.893035888671875
-3.2442779541015625,-5.8758087158203125,-1.1510467529296875
-0.92767333984375,0.38739013671875,-0.329925537109375
0.0941619873046875,-0.1945648193359375,-0.151031494140625
0.1865081787109375,-0.3932647705078125,-0.639129638671875
0.4271087646484375,-0.6978759765625,-1.1883697509765625
0.1640777587890625,-0.3617095947265625,-1.2917327880859375
-0.18035888671875,-0.365386962890625,-0.7571258544921875
-0.0736541748046875,-0.380340576171875,-0.93310546875
0.0076751708984375,-0.402587890625,-0.9557342529296876
-0.0540008544921875,-0.4000091552734375,-0.92120361328125
-0.0355987548828125,-0.3839874267578125,-0.928558349609375
-0.0459442138671875,-0.40771484375,-0.9252777099609376
-0.041748046875,-0.392578125,-0.9228057861328124
-0.047088623046875,-0.4027862548828125,-0.9246063232421876
-0.026275634765625,-0.3911590576171875,-0.94586181640625
-0.041961669921875,-0.3932342529296875,-0.926666259765625
-0.0460662841796875,-0.392333984375,-0.91705322265625
-0.0450286865234375,-0.4029998779296875,-0.924530029296875
-0.042022705078125,-0.396270751953125,-0.9214935302734376
-0.0410614013671875,-0.4001007080078125,-0.9183349609375
-0.042938232421875,-0.3965301513671875,-0.919647216796875
-0.0450286865234375,-0.3993682861328125,-0.9228668212890624
-0.0412139892578125,-0.3902435302734375,-0.91741943359375
-0.0382843017578125,-0.3994293212890625,-0.92657470703125
-0.03875732421875,-0.40850830078125,-0.924896240234375
0.0048980712890625,-0.3758697509765625,-0.9127655029296876
0.0340423583984375,-0.464874267578125,-0.8560638427734375
-0.2525482177734375,-0.41314697265625,-0.897247314453125
-0.23553466796875,-0.4601593017578125,-0.69970703125
-0.1470794677734375,-0.550811767578125,-0.9460296630859376
-0.1572418212890625,-0.5029296875,-0.780303955078125
-0.2235870361328125,-0.3931121826171875,-0.7998504638671875
-0.0706329345703125,-0.6328582763671875,-0.921051025390625
-0.061309814453125,-0.7040863037109375,-1.1019134521484375
-0.048370361328125,-0.51275634765625,-1.01263427734375
0.0034027099609375,-0.294525146484375,-0.934814453125
-0.0218505859375,-0.1553192138671875,-0.916656494140625
-0.06390380859375,-0.3359222412109375,-1.0792388916015625
-0.2555084228515625,-0.17913818359375,-0.9404449462890624
-0.0549163818359375,-0.06866455078125,-0.8404998779296875
0.0372314453125,-0.0852203369140625,-1.0076904296875
0.015472412109375,-0.054962158203125,-0.9586944580078124
-0.00238037109375,-0.11737060546875,-0.9686279296875
-0.0171966552734375,-0.1600341796875,-1.0182037353515625
0.0678558349609375,-0.1408233642578125,-1.189544677734375
0.147491455078125,-0.1711273193359375,-1.005767822265625
0.0826416015625,-0.11956787109375,-0.969818115234375
0.18212890625,-0.1655731201171875,-1.010894775390625
0.22308349609375,-0.1665191650390625,-1.0467529296875
