AccelerationX,AccelerationY,AccelerationZ
0.093841552734375,-0.0970001220703125,-1.004974365234375
0.0935211181640625,-0.07098388671875,-1.01177978515625
0.086761474609375,-0.0775146484375,-0.980804443359375
0.101837158203125,-0.0790863037109375,-1.0141448974609375
0.115875244140625,-0.0984039306640625,-0.976531982421875
0.113250732421875,-0.13751220703125,-0.94940185546875
0.1255645751953125,-0.1199798583984375,-1.0249481201171875
0.1023712158203125,-0.0970458984375,-0.984161376953125
0.1064300537109375,-0.109619140625,-0.9894561767578124
0.1206207275390625,-0.1098785400390625,-1.0207061767578125
0.12652587890625,-0.133575439453125,-0.9784393310546876
0.12255859375,-0.1397247314453125,-0.98797607421875
0.1244964599609375,-0.13543701171875,-0.9972991943359376
0.1217498779296875,-0.13262939453125,-0.9770660400390624
0.1381072998046875,-0.1389312744140625,-0.9714813232421876
0.129058837890625,-0.1395111083984375,-1.0537567138671875
0.089630126953125,-0.1125030517578125,-0.9248504638671876
0.079345703125,-0.0953826904296875,-0.9666900634765624
0.104644775390625,-0.1086273193359375,-1.0576019287109375
0.086669921875,-0.1285858154296875,-0.964508056640625
0.090545654296875,-0.128753662109375,-1.004364013671875
0.0848388671875,-0.1313934326171875,-0.9853515625
0.0606231689453125,-0.130279541015625,-1.0045928955078125
0.071502685546875,-0.1343841552734375,-0.956298828125
0.0404510498046875,-0.129058837890625,-1.056915283203125
0.04315185546875,-0.140960693359375,-1.0053253173828125
-0.010223388671875,-0.0450897216796875,-1.035736083984375
-0.0226287841796875,0.013397216796875,-1.02899169921875
0.069183349609375,0.033966064453125,-1.2825927734375
-0.009124755859375,-0.119720458984375,-0.8297271728515625
-0.016448974609375,-0.0138397216796875,-0.8747711181640625
0.0245361328125,0.003814697265625,-1.1427459716796875
0.0470123291015625,-0.021881103515625,-1.0035400390625
-0.011199951171875,-0.1215057373046875,-0.9183197021484376
-0.005126953125,-0.054168701171875,-0.9781951904296876
0.0199432373046875,-0.0667266845703125,-1.0390625
0.0032501220703125,-0.093780517578125,-0.99127197265625
-0.0175628662109375,-0.0784759521484375,-1.0122833251953125
-0.0654754638671875,-0.0061187744140625,-1.0084381103515625
-0.0554046630859375,-0.038055419921875,-0.9681854248046876
-0.0499114990234375,-0.0472869873046875,-0.968353271484375
-0.013458251953125,-0.079010009765625,-1.011749267578125
-0.0205535888671875,-0.0391693115234375,-1.0078887939453125
-0.006439208984375,-0.018951416015625,-0.9703826904296876
0.0105438232421875,-0.087860107421875,-1.0308685302734375
0.0274810791015625,0.01837158203125,-1.05889892578125
-0.059906005859375,-0.027099609375,-0.935089111328125
-0.13623046875,-0.0595703125,-0.99407958984375
-0.0849151611328125,-0.0003204345703125,-1.0680694580078125
-0.0232696533203125,-0.037628173828125,-1.0259246826171875
-0.1341094970703125,-0.0625762939453125,-1.105743408203125
-0.2320556640625,-0.0364837646484375,-0.9733123779296876
-0.154205322265625,-0.155059814453125,-0.9293212890625
-0.2022552490234375,-0.0051116943359375,-0.824615478515625
-0.207000732421875,-0.09490966796875,-1.201904296875
-0.2241363525390625,0.0264739990234375,-1.054840087890625
-0.320556640625,-0.12335205078125,-0.9853363037109376
-0.280364990234375,-0.1626129150390625,-0.9503631591796876
-0.1882476806640625,-0.1450347900390625,-1.1122589111328125
-0.1781768798828125,-0.2994537353515625,-0.74334716796875
-0.2360687255859375,-0.15948486328125,-0.962310791015625
-0.2677001953125,0.048614501953125,-1.204833984375
-0.2793426513671875,0.0624847412109375,-1.107574462890625
-0.2340240478515625,-0.024383544921875,-0.837493896484375
-0.2371826171875,0.0728912353515625,-1.1068267822265625
-0.2160491943359375,0.076690673828125,-1.1119384765625
-0.2054595947265625,0.1207733154296875,-1.2042083740234375
-0.2465362548828125,0.1634979248046875,-1.1839599609375
-0.2113494873046875,0.0458221435546875,-0.628143310546875
-0.2517242431640625,0.1373291015625,-0.90155029296875
-0.0863494873046875,0.1911468505859375,-0.766387939453125
0.008758544921875,0.224700927734375,-0.8801422119140625
0.009368896484375,0.1570892333984375,-0.9156494140625
-0.0557403564453125,0.165283203125,-0.947998046875
-0.16082763671875,0.1715545654296875,-1.025848388671875
-0.1858367919921875,0.1725616455078125,-0.8330230712890625
-0.1870574951171875,0.14300537109375,-0.960357666015625
-0.2022857666015625,0.1515045166015625,-0.932647705078125
-0.177947998046875,0.1749267578125,-0.8524322509765625
-0.158172607421875,0.0839080810546875,-0.98583984375
-0.170135498046875,0.089935302734375,-1.001251220703125
-0.1885528564453125,0.1063079833984375,-1.0063934326171875
-0.226470947265625,0.1565399169921875,-1.10784912109375
-0.2566375732421875,0.16387939453125,-1.2306671142578125
-0.30517578125,0.1682586669921875,-1.38873291015625
-0.3592529296875,0.0287628173828125,-1.444793701171875
-0.3826141357421875,-0.106201171875,-1.2791595458984375
-0.4045257568359375,-0.011871337890625,-1.260711669921875
-0.381195068359375,0.1497650146484375,-1.2161407470703125
-0.37689208984375,0.2307891845703125,-1.2982635498046875
-0.3184967041015625,0.2327728271484375,-1.2732391357421875
-0.26580810546875,0.2115936279296875,-1.155609130859375
-0.226470947265625,0.2512969970703125,-1.0841064453125
-0.1947174072265625,0.27825927734375,-1.0305023193359375
-0.18878173828125,0.3056793212890625,-0.980499267578125
-0.20428466796875,0.3332977294921875,-0.877471923828125
-0.1699981689453125,0.297637939453125,-0.774871826171875
-0.1227264404296875,0.3013763427734375,-0.776519775390625
-0.125091552734375,0.3975677490234375,-0.84130859375
-0.116546630859375,0.49200439453125,-1.006500244140625
-0.0726165771484375,0.4897918701171875,-1.049163818359375
-0.036163330078125,0.354400634765625,-0.8690032958984375
0.0529327392578125,0.1585693359375,-0.786163330078125
0.0229339599609375,0.1806488037109375,-0.9638671875
-0.034149169921875,0.225311279296875,-1.1377410888671875
-0.1260833740234375,0.3310089111328125,-1.0443267822265625
-0.1656494140625,0.2523651123046875,-0.9399261474609376
-0.1500091552734375,0.2232513427734375,-0.899444580078125
-0.150146484375,0.277099609375,-0.9316864013671876
-0.15966796875,0.3338470458984375,-1.12225341796875
-0.187469482421875,0.3176422119140625,-1.2842559814453125
-0.1532745361328125,0.083587646484375,-1.333465576171875
-0.160186767578125,-0.0903472900390625,-1.4259033203125
-0.19287109375,-0.059417724609375,-1.5177459716796875
-0.2121734619140625,-0.1119537353515625,-1.5550079345703125
-0.21527099609375,-0.085296630859375,-1.43829345703125
-0.2237548828125,-0.0296630859375,-1.3242645263671875
-0.1733856201171875,-0.0045318603515625,-1.32330322265625
-0.2214202880859375,0.1533660888671875,-1.4320068359375
-0.2766571044921875,0.3000335693359375,-1.570709228515625
-0.2709808349609375,0.2856903076171875,-1.6083526611328125
-0.2059173583984375,0.2378387451171875,-1.45465087890625
-0.13714599609375,0.2786865234375,-1.23895263671875
-0.133819580078125,0.4093475341796875,-1.1553192138671875
-0.129486083984375,0.54217529296875,-1.1138916015625
-0.1174774169921875,0.5699310302734375,-1.07000732421875
-0.097930908203125,0.471893310546875,-0.9357147216796876
-0.07257080078125,0.396820068359375,-0.717498779296875
-0.057373046875,0.397796630859375,-0.6242828369140625
-0.0492095947265625,0.48583984375,-0.7243194580078125
-0.0206298828125,0.5856475830078125,-0.9733123779296876
0.010345458984375,0.4830474853515625,-0.8400421142578125
0.0780029296875,0.3547515869140625,-0.7960052490234375
0.095367431640625,0.3597412109375,-0.997528076171875
-0.0184173583984375,0.3873138427734375,-1.2944488525390625
-0.03759765625,0.3620758056640625,-1.2371978759765625
0.0123291015625,0.1888885498046875,-1.034881591796875
0.0177459716796875,0.17401123046875,-0.9743194580078124
0.0431976318359375,0.2169952392578125,-0.9944000244140624
-0.02386474609375,0.32391357421875,-1.185638427734375
-0.118011474609375,0.35577392578125,-1.366241455078125
-0.2154083251953125,0.1906585693359375,-1.4291534423828125
-0.2063446044921875,-0.063323974609375,-1.4590606689453125
-0.133026123046875,-0.0058746337890625,-1.4110565185546875
-0.0586090087890625,-0.0152130126953125,-1.41778564453125
-0.088165283203125,-0.000396728515625,-1.521026611328125
-0.1139068603515625,-0.0499267578125,-1.6570281982421875
-0.0835113525390625,-0.012420654296875,-1.5426025390625
-0.1595306396484375,0.24542236328125,-1.318572998046875
-0.200531005859375,0.412628173828125,-1.3917236328125
-0.132049560546875,0.3994598388671875,-1.399322509765625
-0.101318359375,0.33795166015625,-1.2664794921875
-0.0811920166015625,0.3257904052734375,-1.15948486328125
-0.078521728515625,0.356353759765625,-1.10845947265625
-0.126861572265625,0.4552459716796875,-1.06634521484375
-0.1450653076171875,0.5076751708984375,-0.99346923828125
-0.15283203125,0.4903411865234375,-0.8902435302734375
-0.1280059814453125,0.50201416015625,-0.7943878173828125
-0.109375,0.4180145263671875,-0.795928955078125
-0.112274169921875,0.427337646484375,-0.88153076171875
-0.0663299560546875,0.51226806640625,-0.8963623046875
0.01812744140625,0.4535980224609375,-0.69366455078125
0.0978240966796875,0.391357421875,-0.734619140625
0.0685577392578125,0.4048614501953125,-0.9657135009765624
-0.0160369873046875,0.4890289306640625,-1.1681976318359375
-0.0349578857421875,0.4511260986328125,-1.215911865234375
0.0118865966796875,0.17205810546875,-1.1759185791015625
-0.049102783203125,0.05865478515625,-1.1660614013671875
-0.096160888671875,0.15008544921875,-1.16387939453125
-0.1221160888671875,0.3229217529296875,-1.2371368408203125
-0.105865478515625,0.4008941650390625,-1.2787017822265625
-0.0233001708984375,0.2467803955078125,-1.2331085205078125
0.007598876953125,0.09283447265625,-1.2378997802734375
0.010650634765625,0.1409454345703125,-1.27203369140625
0.0384368896484375,0.055145263671875,-1.3867034912109375
-0.029541015625,-0.0163421630859375,-1.544677734375
-0.075653076171875,-0.080718994140625,-1.6241607666015625
-0.00335693359375,-0.0944976806640625,-1.48406982421875
-0.0397491455078125,0.156158447265625,-1.2664642333984375
-0.1103668212890625,0.373626708984375,-1.2707977294921875
-0.134918212890625,0.4094390869140625,-1.3072052001953125
-0.1288909912109375,0.3362274169921875,-1.262451171875
-0.0843963623046875,0.287322998046875,-1.159088134765625
-0.05645751953125,0.313629150390625,-1.0926055908203125
-0.0577850341796875,0.3457794189453125,-1.1978912353515625
-0.10137939453125,0.3775634765625,-1.3437042236328125
-0.1357879638671875,0.49169921875,-1.3369293212890625
-0.1275482177734375,0.558258056640625,-1.136138916015625
-0.1255340576171875,0.627532958984375,-1.0460662841796875
-0.137786865234375,0.7122955322265625,-0.9965667724609376
-0.1364898681640625,0.5930023193359375,-0.59051513671875
-0.053192138671875,0.3926544189453125,-0.389739990234375
-0.027984619140625,0.349639892578125,-0.54742431640625
-0.0607147216796875,0.4209747314453125,-0.896728515625
0.0059356689453125,0.396148681640625,-0.9701690673828124
0.0018463134765625,0.300018310546875,-0.9717864990234376
0.009368896484375,0.271514892578125,-1.07379150390625
0.0432586669921875,0.2661895751953125,-1.1395111083984375
-0.0245208740234375,0.3539276123046875,-1.2802734375
-0.1166229248046875,0.4319000244140625,-1.4273529052734375
-0.0742034912109375,0.1798095703125,-1.4111785888671875
-0.0993804931640625,0.0105133056640625,-1.4053192138671875
-0.1837005615234375,0.123565673828125,-1.499114990234375
-0.119232177734375,0.103485107421875,-1.511444091796875
-0.09918212890625,0.11285400390625,-1.5535430908203125
-0.08843994140625,0.0516510009765625,-1.442901611328125
-0.079803466796875,0.06024169921875,-1.463287353515625
-0.152130126953125,0.229248046875,-1.3620147705078125
-0.2173614501953125,0.410369873046875,-1.426666259765625
-0.1863861083984375,0.375091552734375,-1.341033935546875
-0.137054443359375,0.3440399169921875,-1.1541595458984375
-0.0841217041015625,0.3549041748046875,-1.0106201171875
-0.051025390625,0.30169677734375,-1.1183013916015625
-0.07489013671875,0.355224609375,-1.19061279296875
-0.1283721923828125,0.4525299072265625,-1.13507080078125
-0.1341705322265625,0.4598236083984375,-0.929046630859375
-0.119354248046875,0.51513671875,-0.78814697265625
-0.14019775390625,0.5463714599609375,-0.784637451171875
-0.1924591064453125,0.586761474609375,-0.9999847412109376
-0.10302734375,0.44647216796875,-0.9109649658203124
0.01715087890625,0.3401947021484375,-0.704193115234375
0.1759796142578125,0.3413848876953125,-0.76641845703125
0.290008544921875,0.23931884765625,-1.214691162109375
0.237396240234375,0.133087158203125,-1.322052001953125
0.137420654296875,0.127838134765625,-0.972259521484375
0.0777435302734375,0.16094970703125,-0.8668060302734375
0.0620574951171875,0.246612548828125,-0.957122802734375
0.0211334228515625,0.31512451171875,-1.0800323486328125
0.061676025390625,0.334197998046875,-1.2670135498046875
0.182586669921875,0.1445770263671875,-1.5026397705078125
0.338531494140625,-0.2432098388671875,-1.5695037841796875
0.41754150390625,-0.14398193359375,-1.5826568603515625
0.5032196044921875,0.0672760009765625,-1.5338287353515625
0.4452972412109375,0.13470458984375,-1.4141387939453125
0.3300628662109375,0.0777587890625,-1.1819305419921875
0.320770263671875,0.0060882568359375,-0.977264404296875
0.3062744140625,0.01123046875,-1.0382080078125
0.2502899169921875,0.1494598388671875,-1.315032958984375
0.234039306640625,0.24224853515625,-1.37823486328125
0.175506591796875,0.248565673828125,-1.2957916259765625
0.1414642333984375,0.2769927978515625,-1.120819091796875
0.1294097900390625,0.3028564453125,-1.065826416015625
0.0717010498046875,0.3241119384765625,-1.124786376953125
0.0705718994140625,0.3561248779296875,-1.06689453125
0.0493927001953125,0.3572540283203125,-0.978607177734375
-0.0615386962890625,0.44342041015625,-1.0110015869140625
-0.043243408203125,0.44305419921875,-1.1052093505859375
0.009552001953125,0.5928497314453125,-1.250274658203125
-0.0031890869140625,0.5789337158203125,-1.0820770263671875
0.003631591796875,0.3824005126953125,-0.7588043212890625
0.1059112548828125,0.3105926513671875,-0.4221649169921875
0.1020965576171875,0.38494873046875,-0.633575439453125
0.144561767578125,0.415130615234375,-0.97186279296875
0.179107666015625,0.3382720947265625,-0.9577178955078124
0.124786376953125,0.19622802734375,-1.041839599609375
0.0711517333984375,0.22296142578125,-1.05804443359375
0.0259857177734375,0.357269287109375,-1.0029449462890625
-0.0186920166015625,0.4113311767578125,-1.239044189453125
-0.059173583984375,0.3551025390625,-1.4820556640625
0.047698974609375,0.16876220703125,-1.464752197265625
0.2154693603515625,0.0606842041015625,-1.41485595703125
0.3006439208984375,0.0797576904296875,-1.3281402587890625
0.2719268798828125,0.1927947998046875,-1.5125732421875
0.22900390625,0.1309356689453125,-1.524078369140625
0.203125,-0.127044677734375,-1.3579864501953125
0.1392974853515625,-0.002899169921875,-1.19921875
0.066375732421875,0.2504730224609375,-1.12298583984375
0.0428466796875,0.3267669677734375,-1.2425994873046875
0.04656982421875,0.249176025390625,-1.2276763916015625
0.04718017578125,0.257232666015625,-1.1328582763671875
0.05462646484375,0.3397979736328125,-1.0776214599609375
0.0133514404296875,0.4673614501953125,-1.1936492919921875
-0.0076751708984375,0.4575958251953125,-1.1666412353515625
-0.023223876953125,0.3974151611328125,-1.02215576171875
-0.019927978515625,0.37078857421875,-0.856903076171875
-0.016021728515625,0.4626007080078125,-0.8310394287109375
0.00787353515625,0.5516204833984375,-0.98486328125
0.007843017578125,0.6535797119140625,-1.139404296875
-0.0061798095703125,0.5090484619140625,-0.931671142578125
0.046722412109375,0.33575439453125,-0.655303955078125
0.0892181396484375,0.3436737060546875,-0.7471466064453125
0.111572265625,0.2840576171875,-0.949462890625
0.0765533447265625,0.282958984375,-1.008056640625
0.03790283203125,0.2388458251953125,-0.9610595703125
0.0344085693359375,0.2186126708984375,-0.882904052734375
0.0168914794921875,0.2823638916015625,-0.914215087890625
-0.01220703125,0.387664794921875,-1.053070068359375
0.0219879150390625,0.367828369140625,-1.1513671875
0.107086181640625,0.1417999267578125,-1.23870849609375
0.0602569580078125,-0.02947998046875,-1.432861328125
-0.022613525390625,0.00762939453125,-1.698150634765625
0.00640869140625,0.169036865234375,-1.67401123046875
0.1255340576171875,0.1709442138671875,-1.38482666015625
0.1402587890625,0.044952392578125,-1.3874664306640625
0.0762481689453125,0.114654541015625,-1.2665557861328125
0.019775390625,0.3083038330078125,-1.2131195068359375
0.0400848388671875,0.320037841796875,-1.2827606201171875
0.088226318359375,0.23797607421875,-1.230712890625
0.08642578125,0.2596282958984375,-1.0553741455078125
0.0853424072265625,0.2678375244140625,-1.029083251953125
0.0250701904296875,0.3197021484375,-1.0608367919921875
-0.0294647216796875,0.392364501953125,-1.0716400146484375
-0.030853271484375,0.3974609375,-0.9989166259765624
-0.033782958984375,0.39697265625,-0.95849609375
-0.0162811279296875,0.4977569580078125,-0.8601837158203125
-0.015380859375,0.551361083984375,-0.9119873046875
-0.0032958984375,0.6486968994140625,-1.0837554931640625
0.009552001953125,0.6222686767578125,-0.965667724609375
0.0471343994140625,0.4641876220703125,-0.6731109619140625
0.108734130859375,0.422393798828125,-0.565185546875
0.097381591796875,0.420074462890625,-0.8901824951171875
0.120880126953125,0.408355712890625,-1.1107025146484375
0.147247314453125,0.3431854248046875,-1.0776519775390625
0.1309661865234375,0.1695709228515625,-1.06304931640625
0.088836669921875,0.21527099609375,-1.0308837890625
0.04986572265625,0.370361328125,-1.0598297119140625
0.008026123046875,0.479034423828125,-1.2663116455078125
0.055450439453125,0.43536376953125,-1.226409912109375
0.1594696044921875,0.281494140625,-1.2348480224609375
0.2613372802734375,0.224639892578125,-1.2642364501953125
0.3288421630859375,0.3023223876953125,-1.345703125
0.3028564453125,0.3129425048828125,-1.5561981201171875
0.3029937744140625,0.06463623046875,-1.487884521484375
0.2793121337890625,-0.085235595703125,-1.347869873046875
0.16766357421875,0.170654296875,-1.1922454833984375
0.1121826171875,0.3260345458984375,-1.173736572265625
0.06536865234375,0.313629150390625,-1.12335205078125
0.01513671875,0.3052215576171875,-1.0511322021484375
0.0487823486328125,0.3375701904296875,-1.00408935546875
0.1131439208984375,0.3421173095703125,-0.9314727783203124
0.0530242919921875,0.391998291015625,-1.0670166015625
0.0127410888671875,0.4222259521484375,-1.0832977294921875
0.019195556640625,0.3940277099609375,-1.0431976318359375
-0.0045928955078125,0.406280517578125,-1.0258026123046875
-0.036041259765625,0.56365966796875,-1.0096588134765625
-0.055633544921875,0.5663299560546875,-1.0637969970703125
-0.0067596435546875,0.6699981689453125,-1.1841583251953125
0.0152740478515625,0.5134429931640625,-0.9274139404296876
0.109405517578125,0.3971405029296875,-0.69598388671875
0.171661376953125,0.383941650390625,-0.7047119140625
0.1541900634765625,0.3612213134765625,-0.8873443603515625
0.0803680419921875,0.3364105224609375,-0.9113922119140624
0.0447235107421875,0.2818145751953125,-0.8329620361328125
0.076202392578125,0.21331787109375,-0.7474822998046875
0.0162200927734375,0.2626495361328125,-0.8563995361328125
-0.0327911376953125,0.400177001953125,-1.028350830078125
-0.06524658203125,0.5269622802734375,-1.21099853515625
-0.01593017578125,0.41766357421875,-1.3055572509765625
0.0982208251953125,0.2093048095703125,-1.3604583740234375
0.253448486328125,0.19635009765625,-1.360107421875
0.3612213134765625,0.287933349609375,-1.279327392578125
0.3173828125,0.3380279541015625,-1.4815826416015625
0.2467498779296875,0.21990966796875,-1.407012939453125
0.22637939453125,0.0311737060546875,-1.2457733154296875
0.1922607421875,0.0875091552734375,-1.185302734375
0.124267578125,0.2283782958984375,-1.166168212890625
0.085205078125,0.2624053955078125,-1.15948486328125
0.0709381103515625,0.230926513671875,-1.0756988525390625
0.0700836181640625,0.2520294189453125,-1.06494140625
0.1026763916015625,0.3404998779296875,-1.1273345947265625
0.1463775634765625,0.3589019775390625,-1.1865081787109375
0.09088134765625,0.38714599609375,-1.2333831787109375
0.0551605224609375,0.40374755859375,-1.1219482421875
0.04248046875,0.428314208984375,-0.966339111328125
-0.00067138671875,0.5234832763671875,-0.88800048828125
-0.035736083984375,0.6298065185546875,-0.8118133544921875
0.0181121826171875,0.636932373046875,-0.8328857421875
0.0695953369140625,0.5935516357421875,-0.8726654052734375
0.1103057861328125,0.4808197021484375,-0.7232208251953125
0.1508026123046875,0.3719635009765625,-0.7081298828125
0.0811004638671875,0.389373779296875,-0.905303955078125
0.0306854248046875,0.4611358642578125,-1.09210205078125
0.0019378662109375,0.38946533203125,-1.15240478515625
-0.0220489501953125,0.21954345703125,-1.105072021484375
-0.023590087890625,0.211151123046875,-1.00946044921875
-0.0147705078125,0.2706451416015625,-0.97930908203125
-0.05450439453125,0.366424560546875,-1.1200408935546875
-0.0579681396484375,0.4503326416015625,-1.181671142578125
-0.0153350830078125,0.3057403564453125,-1.1924591064453125
0.0450439453125,0.1847076416015625,-1.17730712890625
0.09454345703125,0.254730224609375,-1.206207275390625
0.15643310546875,0.277435302734375,-1.28387451171875
0.1862335205078125,0.2545623779296875,-1.4569854736328125
0.1884918212890625,0.1403045654296875,-1.4996337890625
0.2401580810546875,-0.1100921630859375,-1.3302154541015625
0.312408447265625,-0.07049560546875,-1.0251617431640625
0.22491455078125,0.1512298583984375,-1.0485992431640625
0.1705474853515625,0.317108154296875,-1.2848358154296875
0.0891265869140625,0.43780517578125,-1.4851531982421875
0.0661163330078125,0.428070068359375,-1.602996826171875
0.091583251953125,0.4873046875,-1.483673095703125
0.0664520263671875,0.6027984619140625,-1.358642578125
0.015777587890625,0.6692962646484375,-1.191192626953125
0.01422119140625,0.61761474609375,-0.9132537841796876
0.032196044921875,0.506683349609375,-0.70867919921875
0.0523834228515625,0.4653778076171875,-0.5620574951171875
0.07415771484375,0.49609375,-0.5492095947265625
0.102325439453125,0.4558563232421875,-0.617340087890625
0.1511688232421875,0.4800262451171875,-0.7412109375
0.149200439453125,0.41754150390625,-0.766510009765625
0.0715484619140625,0.4239349365234375,-0.946258544921875
0.0254974365234375,0.5528106689453125,-1.1449737548828125
-0.0098114013671875,0.517913818359375,-1.34930419921875
-0.1050262451171875,0.380096435546875,-1.3479766845703125
-0.1396484375,0.2430267333984375,-1.1586456298828125
-0.08978271484375,0.2278900146484375,-0.994476318359375
-0.0919189453125,0.3227081298828125,-1.033843994140625
-0.1142730712890625,0.43536376953125,-1.0748138427734375
-0.101470947265625,0.4806671142578125,-1.1208038330078125
-0.07196044921875,0.3406982421875,-1.1920928955078125
-0.052459716796875,0.1799774169921875,-1.189910888671875
-0.036376953125,0.1893463134765625,-1.2436370849609375
0.0372772216796875,0.21014404296875,-1.3956298828125
0.0944671630859375,0.2076568603515625,-1.5576019287109375
0.1396942138671875,0.009918212890625,-1.5105743408203125
0.218841552734375,-0.07781982421875,-1.2409820556640625
0.268829345703125,0.161407470703125,-1.027740478515625
0.26409912109375,0.299774169921875,-1.1514129638671875
0.2216949462890625,0.30169677734375,-1.36590576171875
0.140228271484375,0.3740234375,-1.4013671875
0.1389007568359375,0.464141845703125,-1.3651123046875
0.1395721435546875,0.5251922607421875,-1.322052001953125
0.0921478271484375,0.596771240234375,-1.2626495361328125
0.064727783203125,0.562225341796875,-1.1000213623046875
0.06719970703125,0.4753875732421875,-0.8472900390625
0.0682373046875,0.415496826171875,-0.6564483642578125
0.06134033203125,0.4152679443359375,-0.5281982421875
0.0716552734375,0.4411468505859375,-0.52569580078125
0.1144256591796875,0.49139404296875,-0.5761871337890625
0.1160736083984375,0.5513153076171875,-0.8096923828125
0.1027069091796875,0.4687652587890625,-0.9420318603515624
0.088470458984375,0.4262237548828125,-1.03179931640625
0.0295562744140625,0.4199371337890625,-1.16705322265625
-0.077423095703125,0.4379730224609375,-1.29998779296875
-0.1531524658203125,0.4251556396484375,-1.2848663330078125
-0.1305694580078125,0.3594818115234375,-1.062347412109375
-0.083740234375,0.34295654296875,-0.909454345703125
-0.04119873046875,0.3851776123046875,-0.8726348876953125
-0.019378662109375,0.4524993896484375,-0.86981201171875
-0.05902099609375,0.5645751953125,-1.0010223388671875
-0.073638916015625,0.490936279296875,-1.1088104248046875
-0.05657958984375,0.3413238525390625,-1.2549591064453125
-0.049468994140625,0.2554473876953125,-1.46820068359375
-0.000274658203125,0.2374267578125,-1.7005157470703125
0.0778961181640625,0.233245849609375,-1.794769287109375
0.1553955078125,0.092010498046875,-1.52874755859375
0.26287841796875,-0.0665130615234375,-1.11590576171875
0.2803497314453125,0.1124725341796875,-0.902740478515625
0.2059326171875,0.3429107666015625,-1.0269927978515625
0.1236114501953125,0.506744384765625,-1.3494720458984375
0.13385009765625,0.5248870849609375,-1.5047760009765625
0.134979248046875,0.5286102294921875,-1.479736328125
0.1016387939453125,0.607757568359375,-1.399017333984375
0.0578155517578125,0.6499786376953125,-1.2285614013671875
0.0353546142578125,0.6271209716796875,-1.00927734375
-0.008209228515625,0.54888916015625,-0.8104095458984375
-0.0132904052734375,0.44696044921875,-0.5963592529296875
0.0072479248046875,0.441802978515625,-0.474273681640625
0.0304718017578125,0.502593994140625,-0.522003173828125
0.1087493896484375,0.5054473876953125,-0.655181884765625
0.1565704345703125,0.49005126953125,-0.808837890625
0.1397552490234375,0.4863433837890625,-0.8880462646484375
0.09454345703125,0.53302001953125,-0.9041290283203124
0.0122528076171875,0.610992431640625,-1.106781005859375
-0.0863037109375,0.6389923095703125,-1.3344573974609375
-0.198394775390625,0.532135009765625,-1.42022705078125
-0.166717529296875,0.268218994140625,-1.2888031005859375
-0.0945587158203125,0.18634033203125,-1.113250732421875
-0.0658111572265625,0.3423919677734375,-1.013031005859375
-0.0888671875,0.5218963623046875,-1.080078125
-0.1203460693359375,0.617034912109375,-1.1207733154296875
-0.0943603515625,0.426483154296875,-1.154449462890625
-0.0573883056640625,0.1646728515625,-1.1593017578125
0.0181427001953125,0.191497802734375,-1.24609375
0.09820556640625,0.238433837890625,-1.3833465576171875
0.1192779541015625,0.0886077880859375,-1.5598602294921875
0.1463775634765625,-0.0023651123046875,-1.548492431640625
0.172515869140625,0.1529998779296875,-1.2886962890625
0.127532958984375,0.2247772216796875,-1.218536376953125
0.1002044677734375,0.2664642333984375,-1.250152587890625
0.0780029296875,0.324310302734375,-1.180908203125
0.0248565673828125,0.440948486328125,-1.2164764404296875
0.0839691162109375,0.495758056640625,-1.2684783935546875
0.0817718505859375,0.51983642578125,-1.36627197265625
0.0662841796875,0.5239715576171875,-1.3529815673828125
0.0388641357421875,0.499969482421875,-1.217559814453125
0.0196990966796875,0.487060546875,-0.9987335205078124
-0.012359619140625,0.54217529296875,-0.823089599609375
-0.029327392578125,0.629241943359375,-0.763458251953125
-0.0016021728515625,0.570220947265625,-0.7538604736328125
0.0870819091796875,0.5576934814453125,-0.786407470703125
0.1224822998046875,0.466583251953125,-0.677642822265625
0.18670654296875,0.3865203857421875,-0.660247802734375
0.132049560546875,0.416778564453125,-0.8124847412109375
0.0694580078125,0.5225982666015625,-0.9504241943359376
0.04766845703125,0.4712982177734375,-0.994140625
0.004486083984375,0.3353271484375,-1.01776123046875
-0.033660888671875,0.3118896484375,-1.044281005859375
-0.0792388916015625,0.3721923828125,-1.1305084228515625
-0.1305084228515625,0.4916229248046875,-1.3140411376953125
-0.1107330322265625,0.518035888671875,-1.37054443359375
-0.0688323974609375,0.335906982421875,-1.3763580322265625
0.0109405517578125,0.1760711669921875,-1.1988525390625
0.0535430908203125,0.2383575439453125,-1.1419677734375
0.016510009765625,0.113372802734375,-1.3902130126953125
-0.1207122802734375,0.0784454345703125,-1.7593231201171875
-0.1799774169921875,0.112030029296875,-1.6932220458984375
-0.0753936767578125,0.157623291015625,-1.3585205078125
0.080596923828125,0.1910400390625,-1.15545654296875
0.0821685791015625,0.2265167236328125,-1.2892303466796875
-0.048553466796875,0.4090423583984375,-1.5421905517578125
-0.0671844482421875,0.460357666015625,-1.4504852294921875
-0.078521728515625,0.530792236328125,-1.351959228515625
-0.073944091796875,0.647186279296875,-1.28204345703125
-0.0820159912109375,0.6594085693359375,-1.1560821533203125
-0.1086578369140625,0.6291046142578125,-1.0167694091796875
-0.106353759765625,0.57452392578125,-0.852325439453125
-0.0189666748046875,0.4799346923828125,-0.5570831298828125
0.006927490234375,0.4616546630859375,-0.5916595458984375
0.0290679931640625,0.4887237548828125,-0.6468048095703125
0.0631103515625,0.5592803955078125,-0.7004547119140625
0.10174560546875,0.5489501953125,-0.827301025390625
0.0992279052734375,0.5063323974609375,-0.8192596435546875
0.0275115966796875,0.5233001708984375,-0.8575439453125
-0.0175628662109375,0.631988525390625,-1.06744384765625
-0.1032562255859375,0.6203765869140625,-1.348297119140625
-0.156036376953125,0.403839111328125,-1.4003448486328125
-0.2149505615234375,0.2425384521484375,-1.28570556640625
-0.1844329833984375,0.25933837890625,-1.2281494140625
-0.1560516357421875,0.3748626708984375,-1.1095733642578125
-0.176116943359375,0.537994384765625,-1.110260009765625
-0.2025146484375,0.4740142822265625,-1.0852508544921875
-0.1517791748046875,0.232574462890625,-1.0665435791015625
-0.126007080078125,0.133087158203125,-1.1101531982421875
-0.1490325927734375,0.2049560546875,-1.2683563232421875
-0.190460205078125,0.184173583984375,-1.4442138671875
-0.223419189453125,-0.00067138671875,-1.58404541015625
-0.2270050048828125,0.002685546875,-1.515411376953125
-0.0714111328125,0.0988616943359375,-1.2422943115234375
-0.1007080078125,0.228424072265625,-1.2900848388671875
-0.13555908203125,0.3127593994140625,-1.443206787109375
-0.1292572021484375,0.3499908447265625,-1.397918701171875
-0.120513916015625,0.41717529296875,-1.2464599609375
-0.1400146484375,0.484954833984375,-1.2068939208984375
-0.1550445556640625,0.54766845703125,-1.12750244140625
-0.127838134765625,0.555023193359375,-1.0779266357421875
-0.112548828125,0.4723052978515625,-1.0508575439453125
-0.100494384765625,0.3672943115234375,-0.994171142578125
-0.0738525390625,0.374969482421875,-0.8397369384765625
-0.0941925048828125,0.4196624755859375,-0.7613983154296875
-0.074615478515625,0.49188232421875,-0.9580841064453124
-0.0624847412109375,0.5194091796875,-0.98992919921875
-0.037353515625,0.4586181640625,-0.7210540771484375
0.0138702392578125,0.3360137939453125,-0.5743255615234375
0.0083465576171875,0.3748626708984375,-0.6940765380859375
-0.041259765625,0.446746826171875,-0.994415283203125
-0.06219482421875,0.4363861083984375,-1.1536102294921875
-0.0858001708984375,0.342010498046875,-1.1847381591796875
-0.0596466064453125,0.2813262939453125,-1.2244415283203125
-0.046234130859375,0.2702178955078125,-1.24676513671875
-0.086273193359375,0.3373870849609375,-1.3487091064453125
-0.1014556884765625,0.35113525390625,-1.364715576171875
-0.0740814208984375,0.2079925537109375,-1.2948150634765625
-0.028717041015625,0.1219940185546875,-1.1860809326171875
0.00994873046875,0.187408447265625,-1.2506256103515625
0.081451416015625,0.068328857421875,-1.3244781494140625
0.1062774658203125,0.00067138671875,-1.49078369140625
0.1010894775390625,-0.0027618408203125,-1.4279327392578125
0.047882080078125,0.0430755615234375,-1.3800811767578125
-0.0101318359375,0.1215667724609375,-1.272705078125
-0.08001708984375,0.308868408203125,-1.2657928466796875
-0.09429931640625,0.3819122314453125,-1.42926025390625
-0.0404205322265625,0.2863922119140625,-1.4673614501953125
-0.037933349609375,0.3111114501953125,-1.3792572021484375
-0.04974365234375,0.4518585205078125,-1.3132171630859375
-0.0847015380859375,0.532501220703125,-1.275848388671875
-0.1209564208984375,0.5586395263671875,-1.1888427734375
-0.1279754638671875,0.5218658447265625,-1.0059814453125
-0.0962371826171875,0.4425201416015625,-0.7865142822265625
-0.04815673828125,0.4262542724609375,-0.570281982421875
-0.0084991455078125,0.491790771484375,-0.511810302734375
-0.0347137451171875,0.6003875732421875,-0.6239471435546875
0.03680419921875,0.6273651123046875,-0.7255859375
0.0479736328125,0.47314453125,-0.8690032958984375
0.1089324951171875,0.390289306640625,-0.9189605712890624
0.0763397216796875,0.505584716796875,-0.9674072265625
0.03717041015625,0.5959320068359375,-1.1904449462890625
-0.027923583984375,0.5997772216796875,-1.3817138671875
-0.034027099609375,0.3470306396484375,-1.3672332763671875
-0.0100555419921875,0.211334228515625,-1.2305450439453125
-0.01116943359375,0.315032958984375,-1.105194091796875
-0.01953125,0.453887939453125,-1.11962890625
-0.047515869140625,0.513458251953125,-1.15228271484375
-0.008453369140625,0.334808349609375,-1.2824554443359375
0.1318511962890625,0.08770751953125,-1.2950439453125
0.179290771484375,0.150360107421875,-1.29705810546875
0.27252197265625,0.190673828125,-1.234710693359375
0.307281494140625,0.1190643310546875,-1.441650390625
0.3004913330078125,0.058685302734375,-1.528167724609375
0.2988128662109375,0.0461578369140625,-1.506500244140625
0.1622314453125,0.30462646484375,-1.4145660400390625
0.0308074951171875,0.5184326171875,-1.3385009765625
-0.0186920166015625,0.6064453125,-1.3279571533203125
-0.0327301025390625,0.55084228515625,-1.2125244140625
0.0138397216796875,0.478546142578125,-1.1500091552734375
0.0641937255859375,0.417022705078125,-1.2129974365234375
0.009735107421875,0.41290283203125,-1.4083709716796875
-0.046112060546875,0.48602294921875,-1.3817901611328125
-0.048431396484375,0.5240020751953125,-1.1768341064453125
-0.0753021240234375,0.5497589111328125,-0.9384765625
-0.107330322265625,0.6373291015625,-0.7786865234375
-0.1347198486328125,0.71063232421875,-0.645172119140625
-0.1343231201171875,0.7160186767578125,-0.7635040283203125
-0.150604248046875,0.615447998046875,-0.7286376953125
-0.042724609375,0.4869537353515625,-0.482086181640625
0.2413482666015625,0.396728515625,-0.4216156005859375
0.2830352783203125,0.4664764404296875,-0.803985595703125
0.150115966796875,0.5430145263671875,-1.3390350341796875
0.0107574462890625,0.5383758544921875,-1.396209716796875
-0.0315704345703125,0.3405609130859375,-1.3199920654296875
-0.0291290283203125,0.21746826171875,-1.26544189453125
-0.00469970703125,0.3741455078125,-1.21759033203125
0.0456390380859375,0.4894561767578125,-1.1402587890625
0.0365753173828125,0.4512939453125,-1.145538330078125
0.051788330078125,0.322265625,-1.131500244140625
0.0836944580078125,0.1736907958984375,-1.211456298828125
0.0732879638671875,0.2165374755859375,-1.40673828125
0.0461273193359375,0.2542572021484375,-1.3849334716796875
0.0465087890625,0.333251953125,-1.4343414306640625
0.0654144287109375,0.3480224609375,-1.3128662109375
0.06549072265625,0.303863525390625,-1.3750152587890625
0.186187744140625,0.1001434326171875,-1.100860595703125
0.116607666015625,0.2202606201171875,-1.05718994140625
0.0465545654296875,0.4147186279296875,-1.106231689453125
0.0141754150390625,0.489776611328125,-1.1523284912109375
0.00140380859375,0.412353515625,-1.215423583984375
-0.003509521484375,0.3783721923828125,-1.2664031982421875
-0.0059051513671875,0.41741943359375,-1.3298797607421875
-0.019775390625,0.5152587890625,-1.338592529296875
-0.071563720703125,0.556427001953125,-1.2806243896484375
-0.1090545654296875,0.5929412841796875,-1.05487060546875
-0.2016754150390625,0.7308349609375,-0.7548370361328125
-0.242523193359375,0.73162841796875,-0.701080322265625
-0.1453094482421875,0.6485137939453125,-0.683258056640625
0.015960693359375,0.63751220703125,-0.6610107421875
0.1122589111328125,0.49969482421875,-0.5129547119140625
0.208099365234375,0.3663177490234375,-0.63116455078125
0.0680084228515625,0.4121246337890625,-0.881011962890625
0.02984619140625,0.569427490234375,-0.93267822265625
0.0068817138671875,0.6751708984375,-0.9992828369140624
-0.102630615234375,0.71893310546875,-1.13909912109375
-0.14837646484375,0.71240234375,-1.2678985595703125
-0.05804443359375,0.526092529296875,-1.3774261474609375
-0.0637054443359375,0.3792266845703125,-1.5499420166015625
0.014068603515625,0.343414306640625,-1.448089599609375
0.2067413330078125,0.208984375,-1.219970703125
0.3437347412109375,0.0899200439453125,-1.1259613037109375
0.3233184814453125,0.229095458984375,-1.197723388671875
0.2371673583984375,0.277435302734375,-1.245361328125
0.1634063720703125,0.251556396484375,-1.3545074462890625
0.1949462890625,0.297607421875,-1.27886962890625
0.1494293212890625,0.4656524658203125,-1.410797119140625
0.07147216796875,0.5096588134765625,-1.4503173828125
-0.041259765625,0.647186279296875,-1.5279388427734375
-0.154296875,0.7541351318359375,-1.575531005859375
-0.1626129150390625,0.7059173583984375,-1.381744384765625
-0.1922607421875,0.6495513916015625,-1.2734527587890625
-0.175262451171875,0.6619415283203125,-1.133331298828125
-0.09490966796875,0.64691162109375,-0.9570465087890624
-0.09283447265625,0.5956878662109375,-0.9279327392578124
-0.09918212890625,0.5704193115234375,-0.817413330078125
-0.073486328125,0.5226287841796875,-0.611572265625
-0.068328857421875,0.578765869140625,-0.4817352294921875
-0.067596435546875,0.614288330078125,-0.3800811767578125
-0.0767669677734375,0.7076568603515625,-0.6064605712890625
-0.06463623046875,0.7862091064453125,-0.7213592529296875
-0.0120697021484375,0.70458984375,-0.785736083984375
0.02178955078125,0.616729736328125,-0.97222900390625
-0.0262908935546875,0.675567626953125,-1.2488250732421875
-0.0741424560546875,0.6053619384765625,-1.4544677734375
-0.189666748046875,0.4505462646484375,-1.6108856201171875
-0.206024169921875,0.3869171142578125,-1.4855804443359375
-0.1167449951171875,0.489288330078125,-1.1958160400390625
-0.0810089111328125,0.5926971435546875,-1.0011444091796875
-0.075042724609375,0.59796142578125,-0.891326904296875
-0.1085968017578125,0.5841522216796875,-0.986480712890625
-0.0614471435546875,0.4141693115234375,-0.9910430908203124
-0.05633544921875,0.3546295166015625,-1.1305084228515625
-0.060211181640625,0.4038238525390625,-1.30340576171875
0.012786865234375,0.329620361328125,-1.3106536865234375
0.0320587158203125,0.3711395263671875,-1.3984832763671875
0.044342041015625,0.413787841796875,-1.3626708984375
0.11083984375,0.3364410400390625,-1.2101593017578125
0.03997802734375,0.3467254638671875,-1.08367919921875
-0.05780029296875,0.53509521484375,-1.082733154296875
-0.101654052734375,0.7363433837890625,-1.1020660400390625
-0.173675537109375,0.8303375244140625,-1.1523895263671875
-0.221405029296875,0.6380462646484375,-1.1132354736328125
-0.1926116943359375,0.4492645263671875,-1.172943115234375
-0.2091064453125,0.3527984619140625,-1.3622894287109375
-0.3135986328125,0.1775665283203125,-0.964691162109375
-0.2522430419921875,-0.14605712890625,-1.0515289306640625
-0.0742645263671875,-0.235565185546875,-1.0565948486328125
0.6372528076171875,0.2516632080078125,-0.1766204833984375
0.405609130859375,0.2964630126953125,0.14501953125
0.2666015625,0.2942047119140625,0.105682373046875
0.2160491943359375,0.3283843994140625,0.106475830078125
0.1832733154296875,0.3414459228515625,0.0879669189453125
0.1616363525390625,0.34039306640625,0.0608367919921875
0.160400390625,0.3285369873046875,0.040283203125
0.174713134765625,0.3140716552734375,0.026824951171875
0.206085205078125,0.2945556640625,0.0101470947265625
0.2532196044921875,0.2672271728515625,0.0015869140625
0.3000335693359375,0.2159271240234375,0.00042724609375
0.326995849609375,0.1368408203125,0.006011962890625
0.329193115234375,0.0425567626953125,0.0643310546875
4.5273284912109375,4.022018432617188,0.0910797119140625
0.152008056640625,-0.2512969970703125,-0.010467529296875
0.3687591552734375,-0.3894805908203125,0.0921478271484375
0.2509765625,-0.3619842529296875,0.07159423828125
0.283721923828125,-0.3595733642578125,0.08056640625
0.4539794921875,-0.3396453857421875,0.0810546875
0.766998291015625,-0.2205963134765625,0.0318603515625
3.2177276611328125,-0.0285797119140625,-3.6257171630859375
-3.1674957275390625,-4.646331787109375,0.942596435546875
-0.2286224365234375,-0.12542724609375,-0.5166168212890625
-0.335357666015625,-0.205291748046875,-0.0818634033203125
-0.001495361328125,0.083740234375,-1.8374176025390625
0.1000213623046875,0.0468902587890625,-0.656402587890625
0.048919677734375,0.0199127197265625,-1.1765594482421875
0.0379180908203125,-0.007781982421875,-0.9698486328125
0.0335540771484375,0.0045013427734375,-0.9736328125
0.0359039306640625,0.0130157470703125,-0.9914093017578124
0.0390472412109375,0.01361083984375,-1.001373291015625
0.041015625,0.0121917724609375,-1.0056610107421875
0.0421295166015625,0.01226806640625,-1.0069732666015625
0.0422515869140625,0.0118408203125,-1.0074920654296875
0.04132080078125,0.0127410888671875,-1.0064239501953125
0.0416259765625,0.01177978515625,-1.0066986083984375
0.04156494140625,0.012298583984375,-1.0061798095703125
0.0419769287109375,0.011810302734375,-1.005523681640625
0.0416412353515625,0.011993408203125,-1.00555419921875
0.04144287109375,0.0125579833984375,-1.006011962890625
0.0408172607421875,0.012908935546875,-1.00592041015625
0.041961669921875,0.011962890625,-1.0063323974609375
0.0411376953125,0.0120849609375,-1.006744384765625
0.0415496826171875,0.011993408203125,-1.005340576171875
0.0406494140625,0.0124664306640625,-1.006011962890625
0.0413818359375,0.011993408203125,-1.0064697265625
0.040802001953125,0.0124969482421875,-1.0059051513671875
0.0399627685546875,0.0127716064453125,-1.007415771484375
0.040496826171875,0.01202392578125,-1.005706787109375
0.0405120849609375,0.0120697021484375,-1.006622314453125
0.0403594970703125,0.0116729736328125,-1.0076446533203125
0.0405426025390625,0.0122833251953125,-1.0059967041015625
0.040679931640625,0.0125885009765625,-1.0063629150390625
0.0406036376953125,0.0123138427734375,-1.007232666015625
0.040496826171875,0.0124969482421875,-1.0062103271484375
0.0410308837890625,0.012054443359375,-1.0063018798828125
0.04248046875,0.01171875,-1.006927490234375
0.04364013671875,0.0132904052734375,-1.0055389404296875
0.0397491455078125,0.01495361328125,-1.008148193359375
0.0396575927734375,0.0120086669921875,-1.0081329345703125
0.03936767578125,0.0115203857421875,-1.006683349609375
0.0397491455078125,0.012176513671875,-1.005859375
0.0406494140625,0.0125885009765625,-1.0066070556640625
0.03973388671875,0.0122528076171875,-1.0058441162109375
0.0395965576171875,0.0113525390625,-1.006103515625
0.0394439697265625,0.012237548828125,-1.0062713623046875
0.0394134521484375,0.012115478515625,-1.005889892578125
0.04083251953125,0.0124969482421875,-1.006439208984375
0.03961181640625,0.0115509033203125,-1.0076141357421875
0.0399627685546875,0.0120391845703125,-1.00677490234375
0.03955078125,0.0126190185546875,-1.0056610107421875
0.0396270751953125,0.0123748779296875,-1.006591796875
0.0383453369140625,0.01220703125,-1.0073699951171875
0.0389862060546875,0.011627197265625,-1.0067291259765625
0.0393218994140625,0.0119781494140625,-1.0062103271484375
0.0388946533203125,0.0127410888671875,-1.0078887939453125
0.039642333984375,0.0120849609375,-1.0072479248046875
0.039215087890625,0.012481689453125,-1.0069427490234375
0.0393218994140625,0.012481689453125,-1.00677490234375
0.03997802734375,0.01123046875,-1.00592041015625
0.03936767578125,0.0123291015625,-1.0068511962890625
0.0391082763671875,0.0129241943359375,-1.0059661865234375
0.0387420654296875,0.0150299072265625,-1.004302978515625
0.039581298828125,0.0109100341796875,-1.007110595703125
0.039398193359375,0.01116943359375,-1.0072021484375
0.041168212890625,0.0115203857421875,-1.007110595703125
0.0397796630859375,0.011871337890625,-1.0059356689453125
0.03802490234375,0.012054443359375,-1.0066986083984375
0.03857421875,0.0123748779296875,-1.006988525390625
0.0389556884765625,0.0125274658203125,-1.00592041015625
0.0389556884765625,0.011199951171875,-1.0063018798828125
0.0390472412109375,0.0117950439453125,-1.00579833984375
0.038818359375,0.012420654296875,-1.006256103515625
0.039276123046875,0.011627197265625,-1.0063018798828125
0.0391693115234375,0.0113677978515625,-1.0067596435546875
0.0384368896484375,0.010986328125,-1.0064849853515625
0.0392608642578125,0.0127716064453125,-1.0057373046875
0.0391693115234375,0.0116424560546875,-1.0069122314453125
0.038299560546875,0.0116424560546875,-1.00665283203125
0.0380859375,0.0119171142578125,-1.0065460205078125
0.0388641357421875,0.0113067626953125,-1.0062255859375
0.039520263671875,0.0113525390625,-1.0066986083984375
0.03826904296875,0.01141357421875,-1.00732421875
0.038299560546875,0.0111541748046875,-1.0071868896484375
0.039093017578125,0.01214599609375,-1.00714111328125
0.0386199951171875,0.0118255615234375,-1.00689697265625
0.039276123046875,0.01116943359375,-1.00640869140625
0.0386505126953125,0.0116424560546875,-1.0069732666015625
0.0388641357421875,0.0117340087890625,-1.0066680908203125
0.0388336181640625,0.009979248046875,-1.0060577392578125
0.0391693115234375,0.0119781494140625,-1.006317138671875
0.039398193359375,0.0110321044921875,-1.006134033203125
0.03887939453125,0.0112457275390625,-1.006591796875
0.038604736328125,0.0103912353515625,-1.006072998046875
0.0385894775390625,0.011260986328125,-1.005950927734375
0.038238525390625,0.011566162109375,-1.0060272216796875
0.0382232666015625,0.0122222900390625,-1.00531005859375
0.038238525390625,0.0107879638671875,-1.0054931640625
0.038726806640625,0.01177978515625,-1.0065155029296875
0.0388031005859375,0.0121612548828125,-1.0067291259765625
0.037872314453125,0.0116119384765625,-1.0070648193359375
0.0378875732421875,0.0119171142578125,-1.0055084228515625
0.0381011962890625,0.012054443359375,-1.0068511962890625
0.038970947265625,0.01165771484375,-1.0068511962890625
0.0382080078125,0.01190185546875,-1.00653076171875
0.03863525390625,0.0113677978515625,-1.0059356689453125
0.0380401611328125,0.0117034912109375,-1.0057220458984375
0.0383758544921875,0.0118255615234375,-1.0067596435546875
0.0384368896484375,0.011810302734375,-1.007110595703125
0.0376739501953125,0.0116424560546875,-1.006744384765625
0.0381011962890625,0.0115966796875,-1.007080078125
0.0390777587890625,0.011474609375,-1.0067291259765625
0.038909912109375,0.011993408203125,-1.006591796875
0.038116455078125,0.012451171875,-1.005035400390625
0.0396270751953125,0.0115509033203125,-1.0050506591796875
0.0384674072265625,0.01226806640625,-1.005859375
0.0382232666015625,0.011474609375,-1.006195068359375
0.0379791259765625,0.011322021484375,-1.0066680908203125
0.038421630859375,0.0123138427734375,-1.0063934326171875
0.03875732421875,0.01177978515625,-1.006866455078125
0.03826904296875,0.011077880859375,-1.007080078125
0.0379791259765625,0.0115966796875,-1.0065155029296875
0.0379791259765625,0.0116424560546875,-1.00567626953125
0.037994384765625,0.0119781494140625,-1.0057830810546875
0.0374603271484375,0.0115203857421875,-1.00640869140625
0.037811279296875,0.0118865966796875,-1.0066070556640625
0.038116455078125,0.0116119384765625,-1.006744384765625
0.0384063720703125,0.0113525390625,-1.0062103271484375
0.0382537841796875,0.0111541748046875,-1.00634765625
0.0375213623046875,0.0107269287109375,-1.0076446533203125
0.038299560546875,0.01092529296875,-1.0070037841796875
0.0379791259765625,0.0115966796875,-1.0056915283203125
0.0380096435546875,0.011566162109375,-1.0072784423828125
0.0379180908203125,0.0103912353515625,-1.0070648193359375
0.0373687744140625,0.0120391845703125,-1.006011962890625
0.0380401611328125,0.011322021484375,-1.0065155029296875
0.037384033203125,0.01104736328125,-1.00628662109375
0.038421630859375,0.0121612548828125,-1.0067596435546875
0.037567138671875,0.0111083984375,-1.0063629150390625
0.0371551513671875,0.0110321044921875,-1.006378173828125
0.0383758544921875,0.011016845703125,-1.0071868896484375
0.0389404296875,0.0113983154296875,-1.0063934326171875
0.0375518798828125,0.0121307373046875,-1.006103515625
0.0380859375,0.0113372802734375,-1.0064544677734375
0.0379638671875,0.010986328125,-1.006103515625
0.037994384765625,0.010223388671875,-1.0068359375
0.0378875732421875,0.0118255615234375,-1.0071868896484375
0.0381011962890625,0.01031494140625,-1.0061492919921875
0.038238525390625,0.0113983154296875,-1.006591796875
0.0381622314453125,0.01104736328125,-1.00640869140625
0.03765869140625,0.0115203857421875,-1.0062408447265625
0.0380859375,0.011383056640625,-1.0059967041015625
0.0374603271484375,0.0117645263671875,-1.0062713623046875
0.0369110107421875,0.0118408203125,-1.0066375732421875
0.037261962890625,0.01129150390625,-1.0062103271484375
0.037689208984375,0.0122222900390625,-1.006988525390625
0.037933349609375,0.012115478515625,-1.0074005126953125
0.037933349609375,0.0113067626953125,-1.0068206787109375
0.038299560546875,0.01141357421875,-1.007049560546875
0.03790283203125,0.01171875,-1.0068511962890625
0.037933349609375,0.011505126953125,-1.006561279296875
0.038055419921875,0.0112152099609375,-1.0060577392578125
0.038116455078125,0.0118408203125,-1.006622314453125
0.0388031005859375,0.0119171142578125,-1.0070037841796875
0.0380706787109375,0.010986328125,-1.005706787109375
0.037445068359375,0.01171875,-1.005889892578125
0.037689208984375,0.0118408203125,-1.0066680908203125
0.0382080078125,0.0113677978515625,-1.006622314453125
0.037841796875,0.0115509033203125,-1.006134033203125
0.037322998046875,0.0113525390625,-1.00628662109375
0.037872314453125,0.0113525390625,-1.006195068359375
0.0370330810546875,0.011810302734375,-1.005859375
0.037384033203125,0.010986328125,-1.0053253173828125
0.036865234375,0.0124053955078125,-1.0066986083984375
0.037322998046875,0.0113067626953125,-1.0071563720703125
0.0379180908203125,0.011322021484375,-1.0069732666015625
0.0374603271484375,0.0119476318359375,-1.007476806640625
0.0377655029296875,0.0115966796875,-1.0065155029296875
0.0378570556640625,0.0111541748046875,-1.0068359375
0.03692626953125,0.0113677978515625,-1.00604248046875
0.037445068359375,0.0113983154296875,-1.0068359375
0.03814697265625,0.01202392578125,-1.005340576171875
0.037506103515625,0.0115814208984375,-1.007080078125
0.037322998046875,0.011749267578125,-1.0061492919921875
0.037139892578125,0.011688232421875,-1.0062713623046875
0.0366973876953125,0.0110321044921875,-1.005950927734375
0.037261962890625,0.0116424560546875,-1.0059814453125
0.0385284423828125,0.0113525390625,-1.00555419921875
0.0374908447265625,0.011199951171875,-1.00634765625
0.0379180908203125,0.0108184814453125,-1.0052642822265625
0.037811279296875,0.01129150390625,-1.0067596435546875
0.037384033203125,0.0111236572265625,-1.0067138671875
0.0367279052734375,0.010528564453125,-1.006256103515625
0.0373992919921875,0.010528564453125,-1.007110595703125
0.03704833984375,0.01153564453125,-1.0064544677734375
0.037567138671875,0.0121917724609375,-1.006317138671875
0.0369720458984375,0.0104827880859375,-1.006134033203125
0.03759765625,0.0119171142578125,-1.0057830810546875
0.0369720458984375,0.0120391845703125,-1.006866455078125
0.037933349609375,0.0115203857421875,-1.006591796875
0.03704833984375,0.0116424560546875,-1.0067138671875
0.037506103515625,0.01190185546875,-1.0069732666015625
0.03765869140625,0.0113067626953125,-1.006378173828125
0.0374908447265625,0.011016845703125,-1.0067291259765625
0.0371856689453125,0.0106048583984375,-1.006103515625
0.037506103515625,0.011688232421875,-1.0062408447265625
0.037689208984375,0.0113677978515625,-1.0066680908203125
0.03753662109375,0.0114288330078125,-1.00701904296875
0.0372772216796875,0.010711669921875,-1.007080078125
0.035797119140625,0.0107879638671875,-1.006866455078125
0.0370635986328125,0.0109100341796875,-1.0062713623046875
0.03729248046875,0.0111236572265625,-1.0059967041015625
0.0367431640625,0.011444091796875,-1.0059814453125
0.0365753173828125,0.0115509033203125,-1.007171630859375
0.0368499755859375,0.0113067626953125,-1.0057525634765625
0.036712646484375,0.0105438232421875,-1.006317138671875
0.0381011962890625,0.010833740234375,-1.006378173828125
0.0369415283203125,0.0103607177734375,-1.006195068359375
0.037384033203125,0.0116729736328125,-1.006591796875
0.0363922119140625,0.0105743408203125,-1.006500244140625
0.0363922119140625,0.0112457275390625,-1.006103515625
0.0370025634765625,0.010833740234375,-1.0060272216796875
0.0376434326171875,0.011383056640625,-1.0062103271484375
0.0369110107421875,0.0112152099609375,-1.006072998046875
0.03594970703125,0.0114898681640625,-1.0059051513671875
0.037506103515625,0.0121307373046875,-1.00689697265625
0.036163330078125,0.01123046875,-1.0067596435546875
0.0367889404296875,0.0114898681640625,-1.0059051513671875
0.03765869140625,0.010986328125,-1.00628662109375
0.0371246337890625,0.0109710693359375,-1.005462646484375
0.0367584228515625,0.0121307373046875,-1.0060272216796875
0.037933349609375,0.011016845703125,-1.006805419921875
0.036163330078125,0.0113983154296875,-1.0061187744140625
0.03753662109375,0.01190185546875,-1.0071868896484375
0.037353515625,0.0117034912109375,-1.0051727294921875
0.0370941162109375,0.010345458984375,-1.005828857421875
0.03765869140625,0.0109405517578125,-1.0053558349609375
0.037322998046875,0.0115814208984375,-1.0062408447265625
0.0371246337890625,0.0115203857421875,-1.006988525390625
0.0372161865234375,0.0108489990234375,-1.0072021484375
0.036895751953125,0.0116424560546875,-1.0071258544921875
0.037017822265625,0.0121002197265625,-1.006988525390625
0.0363616943359375,0.0106658935546875,-1.006195068359375
0.0371551513671875,0.0109405517578125,-1.0055999755859375
0.036956787109375,0.0113067626953125,-1.0060882568359375
0.037109375,0.0106964111328125,-1.0064849853515625
0.0361175537109375,0.011505126953125,-1.006134033203125
0.0372772216796875,0.01141357421875,-1.006439208984375
0.036773681640625,0.0110931396484375,-1.006439208984375
0.03717041015625,0.0120391845703125,-1.006256103515625
0.0368499755859375,0.011505126953125,-1.005615234375
0.036834716796875,0.0109405517578125,-1.0055389404296875
0.03680419921875,0.0112762451171875,-1.005828857421875
0.036468505859375,0.0115966796875,-1.0060272216796875
0.0363311767578125,0.0114593505859375,-1.0050201416015625
0.0369110107421875,0.0115966796875,-1.007415771484375
0.036468505859375,0.0100555419921875,-1.006561279296875
0.0366973876953125,0.0117340087890625,-1.0076904296875
0.03973388671875,0.009063720703125,-1.0069122314453125
0.03363037109375,0.0100555419921875,-1.00537109375
0.027130126953125,0.0067291259765625,-1.0088653564453125
0.0406036376953125,0.0117950439453125,-1.03411865234375
-0.00714111328125,-0.0536346435546875,-0.9769744873046876
-0.02545166015625,-0.0149688720703125,-1.0016632080078125
0.0492401123046875,0.0239715576171875,-1.006561279296875
-0.0061798095703125,0.0277252197265625,-0.9545135498046876
0.022186279296875,-0.0102691650390625,-0.9737548828125
-0.015380859375,-0.025238037109375,-0.9600067138671876
-0.0053863525390625,-0.0151214599609375,-0.9860382080078124
0.0231475830078125,0.0074615478515625,-1.016815185546875
-0.0005950927734375,-0.0106964111328125,-1.007965087890625
-0.0067901611328125,-0.0091552734375,-1.018096923828125
-0.0042266845703125,-0.0084991455078125,-1.00714111328125
-0.0072021484375,-0.007720947265625,-1.0163116455078125
0.0021209716796875,-0.01031494140625,-1.00726318359375
0.0008697509765625,-0.0070343017578125,-1.0043792724609375
0.00079345703125,-0.0098724365234375,-1.007476806640625
0.0128631591796875,-0.0088653564453125,-1.0091705322265625
0.0074615478515625,-0.00848388671875,-1.0073699951171875
0.00885009765625,-0.0047607421875,-1.0082244873046875
0.0059661865234375,-0.0078125,-1.0068206787109375
0.007080078125,-0.0064544677734375,-1.0055999755859375
0.0060577392578125,-0.0089263916015625,-1.0069427490234375
0.006927490234375,-0.0088043212890625,-1.006195068359375
0.0059661865234375,-0.00738525390625,-1.0079193115234375
0.0087127685546875,-0.0095977783203125,-1.0079345703125
0.0059814453125,-0.00701904296875,-1.0029449462890625
0.0055389404296875,-0.0059051513671875,-1.0036468505859375
0.0098876953125,-0.006378173828125,-1.00872802734375
0.0035400390625,-0.0192413330078125,-1.03887939453125
0.0031890869140625,-0.006103515625,-1.0152130126953125
0.0073699951171875,-0.01287841796875,-1.0098114013671875
0.01141357421875,-0.003570556640625,-1.00262451171875
