AccelerationX,AccelerationY,AccelerationZ
0.01324462890625,-0.3702850341796875,-0.9558258056640624
0.0655975341796875,-0.373046875,-0.964324951171875
0.0627288818359375,-0.353424072265625,-0.8708343505859375
0.2328948974609375,-0.392333984375,-0.911346435546875
0.279144287109375,-0.393768310546875,-0.7860870361328125
0.302459716796875,-0.3868255615234375,-0.808563232421875
0.3143310546875,-0.3956451416015625,-0.8369903564453125
0.3069610595703125,-0.361328125,-0.8860321044921875
0.272308349609375,-0.4031219482421875,-0.8128662109375
0.184326171875,-0.396820068359375,-0.962493896484375
0.065399169921875,-0.3584747314453125,-0.9100799560546876
-0.0316314697265625,-0.366119384765625,-0.975311279296875
-0.073455810546875,-0.410125732421875,-0.9508056640625
0.0047454833984375,-0.4443817138671875,-0.921875
0.0833282470703125,-0.577728271484375,-0.8958892822265625
0.0643463134765625,-0.814727783203125,-0.9551239013671876
-0.0965423583984375,-0.384979248046875,-0.8996124267578125
-0.0440826416015625,-0.4509124755859375,-0.907806396484375
-0.093963623046875,-0.371826171875,-0.7876129150390625
-0.0731201171875,-0.36798095703125,-0.645538330078125
-0.2164306640625,-0.2335052490234375,-0.565093994140625
-0.465484619140625,0.058380126953125,-0.493804931640625
-0.5164947509765625,0.1175384521484375,-0.5597991943359375
-0.6083221435546875,0.1340484619140625,-0.1014862060546875
-0.7458038330078125,0.0747222900390625,0.08453369140625
-0.993499755859375,-0.117095947265625,0.3305816650390625
-1.3918914794921875,-0.3421630859375,0.5396270751953125
-1.9714508056640625,-0.826324462890625,0.6139984130859375
-1.955352783203125,-1.040313720703125,0.850128173828125
-1.6907806396484375,-1.1031951904296875,0.541168212890625
-1.321533203125,-0.9991302490234376,0.3699798583984375
-0.902679443359375,-0.928955078125,0.0130157470703125
-0.6345672607421875,-0.8929595947265625,-0.024139404296875
-0.5094451904296875,-0.766082763671875,0.015960693359375
-0.34820556640625,-0.618377685546875,0.038177490234375
-0.3635711669921875,-0.4314117431640625,-0.01300048828125
-0.3924560546875,-0.347747802734375,0.1294708251953125
-0.720458984375,-0.5467071533203125,-0.0634002685546875
-1.4654083251953125,-0.962188720703125,0.2103118896484375
-2.2172088623046875,-1.5543212890625,0.06494140625
-2.745635986328125,-1.5702362060546875,0.1806182861328125
-2.80242919921875,-1.299896240234375,0.3832244873046875
-1.4947052001953125,-0.5451812744140625,0.2628021240234375
-0.4817047119140625,-0.016815185546875,0.054046630859375
-0.128173828125,0.3131561279296875,-0.0247955322265625
-0.2049407958984375,0.617645263671875,-0.1957855224609375
-0.2975921630859375,0.7801513671875,-0.1953582763671875
-0.018707275390625,0.5500030517578125,-0.1602630615234375
0.09100341796875,0.4399566650390625,0.092010498046875
0.1042938232421875,0.440185546875,0.0012359619140625
-0.58563232421875,0.6346282958984375,0.25628662109375
-1.926055908203125,0.2938995361328125,0.6563873291015625
-3.710205078125,-0.853179931640625,1.5568389892578125
-3.962356567382813,-1.38800048828125,1.316864013671875
-1.5206146240234375,-1.5338134765625,0.183563232421875
-1.1399078369140625,-1.2763671875,-0.001220703125
-0.6089324951171875,-1.0111541748046875,0.00604248046875
-0.4174957275390625,-0.798828125,-0.157470703125
-0.366455078125,-0.6382598876953125,0.45050048828125
-0.0043792724609375,-0.458526611328125,0.1573333740234375
-0.88665771484375,0.5737457275390625,1.4061431884765625
-0.1512298583984375,-0.777923583984375,0.566131591796875
-2.0146942138671875,0.4318084716796875,0.4179534912109375
-0.84063720703125,-0.9217681884765624,0.7340850830078125
-1.103179931640625,-0.7859954833984375,0.25390625
-1.4289093017578125,-0.9279327392578124,0.576141357421875
-1.3508758544921875,-0.98175048828125,0.9311370849609376
-0.907379150390625,-0.80987548828125,0.183685302734375
-0.737396240234375,-0.5352783203125,0.226837158203125
-0.2975921630859375,-0.0180511474609375,0.0731964111328125
0.0034332275390625,0.2912139892578125,0.06365966796875
0.2110137939453125,0.3147735595703125,-0.0236358642578125
-0.105133056640625,0.271881103515625,-0.1258392333984375
-0.6844940185546875,0.2039642333984375,0.1716461181640625
-1.3692474365234375,0.119110107421875,0.433624267578125
-1.83453369140625,-0.13641357421875,0.6361541748046875
-1.8512420654296875,-0.5610504150390625,1.0410308837890625
-1.7140350341796875,-0.797332763671875,0.9380035400390624
-1.6521148681640625,-1.0024261474609375,0.786224365234375
-1.05023193359375,-1.0272979736328125,0.58465576171875
-0.4102783203125,-1.0036468505859375,0.21875
-0.32403564453125,-0.9977569580078124,-0.019744873046875
-0.4109039306640625,-0.9461517333984376,0.01397705078125
-0.352508544921875,-0.8082427978515625,0.08685302734375
-0.8331756591796875,-0.9005889892578125,0.041473388671875
-1.76239013671875,-1.2222747802734375,0.036895751953125
-2.3236846923828125,-1.814208984375,-0.6308135986328125
-3.003173828125,-1.6212005615234375,-0.9612274169921876
-2.092132568359375,-0.8093719482421875,-1.025909423828125
-0.989715576171875,-0.130462646484375,-0.4387359619140625
-0.2724456787109375,0.4420928955078125,-0.18988037109375
-0.0063018798828125,0.63922119140625,-0.069549560546875
-0.148345947265625,0.8641204833984375,-0.0626220703125
-0.0699310302734375,0.7763214111328125,0.0559844970703125
-0.0572967529296875,0.7024383544921875,0.2332000732421875
-0.2497406005859375,0.5588531494140625,0.3687896728515625
-1.456756591796875,0.414215087890625,0.4652099609375
-3.251083374023437,-0.3158721923828125,0.8780670166015625
-3.110321044921875,-0.9691162109375,0.721527099609375
-2.295074462890625,-1.0712738037109375,0.2960205078125
-1.6439971923828125,-1.1372222900390625,0.1609344482421875
-0.7254180908203125,-1.00360107421875,-0.2339324951171875
-0.6856231689453125,-0.96746826171875,-0.065704345703125
-0.1208953857421875,-0.9480438232421876,-0.0461578369140625
0.320526123046875,-0.7569580078125,-0.1251220703125
0.291351318359375,-0.5346527099609375,0.08929443359375
-0.1429290771484375,-0.502349853515625,-0.008026123046875
-1.903472900390625,-1.0576629638671875,-0.047119140625
-3.447723388671875,-1.0371551513671875,0.1268768310546875
-3.2512359619140625,-0.8873443603515625,0.5570526123046875
-2.2135467529296875,-0.5611724853515625,0.65155029296875
-1.5643157958984375,-0.0939178466796875,0.235382080078125
-0.81951904296875,0.08184814453125,0.3466644287109375
-0.5440826416015625,0.35382080078125,0.4076080322265625
-0.3254241943359375,0.7197418212890625,0.1598052978515625
0.0809783935546875,0.63189697265625,-0.040740966796875
0.0222320556640625,0.68084716796875,-0.0513916015625
-0.0026702880859375,0.576446533203125,0.053375244140625
-0.4690704345703125,0.333709716796875,0.155242919921875
-1.3989715576171875,-0.2299041748046875,0.09051513671875
-1.94573974609375,-0.74127197265625,0.3739471435546875
-1.929412841796875,-1.2082977294921875,0.1887054443359375
-2.157684326171875,-1.436981201171875,0.590606689453125
-1.622650146484375,-1.2838134765625,0.5190887451171875
-1.162689208984375,-0.932220458984375,0.3302764892578125
-0.6820526123046875,-0.8726348876953125,0.181304931640625
-0.44512939453125,-0.7696380615234375,0.15496826171875
-0.3099212646484375,-0.825042724609375,0.170074462890625
-0.166656494140625,-0.8156280517578125,0.1241607666015625
-0.44000244140625,-0.7442779541015625,0.0346527099609375
-0.909210205078125,-0.873748779296875,0.1793060302734375
-1.5932159423828125,-1.05853271484375,0.250732421875
-2.1901092529296875,-1.25213623046875,0.3847503662109375
-2.452865600585937,-1.0987548828125,0.2476043701171875
-1.875823974609375,-0.7531890869140625,0.3852996826171875
-1.2521209716796875,-0.3807525634765625,0.4116058349609375
-0.7901458740234375,0.1010894775390625,0.2401885986328125
-0.3379974365234375,0.38629150390625,0.2023773193359375
-0.1327362060546875,0.53485107421875,0.150604248046875
-0.039215087890625,0.5941619873046875,0.0597991943359375
0.016387939453125,0.5370941162109375,0.04541015625
-0.1282501220703125,0.3571319580078125,0.240478515625
-1.1958770751953125,-0.0851593017578125,0.16693115234375
-2.0124664306640625,-0.4549713134765625,0.24700927734375
-1.6162872314453125,-0.7875213623046875,0.2388458251953125
-1.8441009521484373,-0.9059600830078124,0.3877410888671875
-1.7885894775390625,-0.97283935546875,0.2774505615234375
-1.7287750244140625,-0.9919281005859376,0.2386932373046875
-1.1760101318359375,-1.039825439453125,0.290679931640625
-0.5866851806640625,-0.9073638916015624,0.10894775390625
-0.284027099609375,-0.7694244384765625,-0.17340087890625
-0.2183380126953125,-0.6462554931640625,-0.117584228515625
-0.2913360595703125,-0.6932373046875,0.0933380126953125
-0.773681640625,-0.850830078125,0.1418609619140625
-1.8363189697265625,-1.2153472900390625,-0.1876220703125
-2.6848907470703125,-1.273651123046875,0.1002044677734375
-2.4521484375,-1.0489349365234375,-0.0388641357421875
-2.214385986328125,-0.7794189453125,-0.0674896240234375
-1.693267822265625,-0.334320068359375,0.0304107666015625
-0.9792633056640624,0.1412200927734375,0.10577392578125
-0.263519287109375,0.44818115234375,0.0792999267578125
0.0729827880859375,0.4556884765625,-0.042877197265625
0.047821044921875,0.4951324462890625,-0.050018310546875
-0.0289459228515625,0.49444580078125,-0.02197265625
0.21392822265625,0.164154052734375,0.111114501953125
0.10113525390625,-0.1295318603515625,0.2850494384765625
-0.6782989501953125,-0.67864990234375,-0.119171142578125
-2.6009674072265625,-0.5654754638671875,-0.2301025390625
-2.051864624023437,-1.1094207763671875,0.420379638671875
-1.57073974609375,-0.8788299560546875,0.31866455078125
-0.65997314453125,-0.6376190185546875,0.6367645263671875
-0.1513519287109375,-0.8585205078125,0.3209228515625
-0.35968017578125,-0.8014984130859375,0.090606689453125
-0.4430694580078125,-0.8446807861328125,-0.0076751708984375
-0.591522216796875,-0.775634765625,-0.045074462890625
-1.0444488525390625,-0.996673583984375,0.0593109130859375
-1.651611328125,-1.28863525390625,-0.3938140869140625
-2.36114501953125,-1.594879150390625,-0.0979461669921875
-2.5727691650390625,-1.460906982421875,0.1285858154296875
-2.048553466796875,-1.0588531494140625,0.013580322265625
-1.6053009033203125,-0.5774078369140625,0.0863037109375
-0.934967041015625,-0.25091552734375,0.082763671875
-0.4015350341796875,0.1099853515625,0.0416717529296875
0.01983642578125,0.30792236328125,-0.1320037841796875
0.124725341796875,0.433319091796875,-0.2122955322265625
0.11395263671875,0.4600067138671875,-0.080322265625
0.087493896484375,0.356201171875,-0.0513153076171875
-0.2238616943359375,0.2556610107421875,0.0334625244140625
-1.068572998046875,-0.08404541015625,-0.0512542724609375
-2.4379119873046875,-0.5234527587890625,0.2328643798828125
-2.181365966796875,-0.921844482421875,0.1965789794921875
-1.8309478759765625,-0.7481842041015625,0.191741943359375
-1.3134613037109375,-0.8310546875,0.295166015625
-1.06744384765625,-0.877197265625,0.3767852783203125
-0.83746337890625,-0.9692535400390624,0.253143310546875
-0.6845703125,-1.005401611328125,0.233184814453125
-0.4581756591796875,-1.0316925048828125,0.155120849609375
-0.490997314453125,-0.902862548828125,-0.00262451171875
-0.5530548095703125,-0.8934478759765625,0.001983642578125
-1.2589263916015625,-1.1551666259765625,0.0301361083984375
-2.195419311523437,-1.357391357421875,-0.3322906494140625
-3.0731353759765625,-1.21710205078125,-0.2355194091796875
-2.821395874023437,-0.788970947265625,-0.4468994140625
-1.4237213134765625,-0.1944732666015625,0.2629547119140625
-0.22723388671875,0.229461669921875,-0.0132904052734375
0.2581024169921875,0.6358795166015625,-0.1506805419921875
0.47222900390625,0.5967254638671875,-0.1695098876953125
-0.04376220703125,0.6949920654296875,-0.0276947021484375
-0.2338409423828125,0.5382537841796875,0.0965118408203125
-0.1058349609375,0.330108642578125,0.191925048828125
-0.507720947265625,0.366912841796875,0.43017578125
-1.737640380859375,-0.09814453125,0.850799560546875
-3.0994110107421875,-0.7623138427734375,1.2698516845703125
-2.7845001220703125,-0.7015380859375,-0.108856201171875
-1.69281005859375,-0.9090423583984376,0.0240325927734375
-1.237030029296875,-0.8724212646484375,0.281951904296875
-0.71636962890625,-0.650115966796875,-0.0981292724609375
-0.626129150390625,-0.6637420654296875,-0.2266845703125
-0.64599609375,-0.846099853515625,-0.031982421875
-0.2440948486328125,-0.78271484375,-0.0412139892578125
-0.44842529296875,-0.7437896728515625,0.19488525390625
-0.90081787109375,-0.5667877197265625,0.3197174072265625
-1.6043548583984375,-0.7732086181640625,0.105743408203125
-2.4984588623046875,-0.9314727783203124,0.5777740478515625
-2.90032958984375,-0.8902130126953125,0.0489349365234375
-2.5819091796875,-0.7081298828125,0.44158935546875
-1.3806610107421875,-0.08758544921875,0.1701202392578125
-0.3191986083984375,0.2123260498046875,-0.0335235595703125
-0.005645751953125,0.54876708984375,0.127655029296875
0.248992919921875,0.597625732421875,-0.1449737548828125
0.306243896484375,0.46136474609375,-0.0525970458984375
0.2003173828125,0.3528594970703125,0.082366943359375
0.044403076171875,0.17510986328125,0.2328643798828125
-0.52911376953125,0.048675537109375,0.54833984375
-1.4223175048828125,-0.0946197509765625,0.623443603515625
-2.390975952148437,-0.10498046875,0.724578857421875
-2.1629638671875,-0.3877105712890625,0.8218994140625
-2.521942138671875,-0.3548736572265625,0.6540985107421875
-2.427642822265625,-0.7182159423828125,0.774658203125
-1.781524658203125,-1.0157928466796875,0.4503173828125
-1.041534423828125,-1.193145751953125,0.160003662109375
-0.38934326171875,-1.2315521240234375,0.077362060546875
0.0739288330078125,-1.015045166015625,-0.051605224609375
0.1447906494140625,-0.768768310546875,-0.154327392578125
-0.0027008056640625,-0.501251220703125,-0.0157470703125
-0.3498992919921875,-0.5106048583984375,0.049560546875
-0.6512298583984375,-0.63836669921875,-0.3140869140625
-2.4453277587890625,-0.80609130859375,-0.7175445556640625
-3.2866363525390625,-1.0242919921875,-0.44207763671875
-3.20233154296875,-0.7582855224609375,-0.4133453369140625
-1.7870635986328125,-0.3032073974609375,0.1507110595703125
-0.708282470703125,-0.0690460205078125,-0.046478271484375
-0.3347625732421875,0.196258544921875,-0.0410614013671875
-0.0772705078125,0.3843536376953125,0.0628509521484375
0.1349639892578125,0.4003143310546875,0.0843658447265625
0.187835693359375,0.3411407470703125,0.11529541015625
0.136688232421875,0.2834014892578125,0.172760009765625
0.00714111328125,0.259918212890625,0.172454833984375
-0.498687744140625,0.2658233642578125,0.3061981201171875
-1.578338623046875,0.02947998046875,0.0950469970703125
-3.05511474609375,-0.4025421142578125,0.733154296875
-2.785507202148437,-1.0125885009765625,0.4339141845703125
-2.0444488525390625,-1.00018310546875,0.3823394775390625
-1.2839813232421875,-1.0327301025390625,0.4243011474609375
-0.73175048828125,-0.9083251953125,0.0982208251953125
-0.4891204833984375,-0.8025054931640625,-0.083740234375
-0.2583465576171875,-0.7909393310546875,-0.092620849609375
-0.2869720458984375,-0.6992340087890625,-0.0762786865234375
-0.3200836181640625,-0.62469482421875,-0.102783203125
-0.6420135498046875,-0.779998779296875,-0.17059326171875
-1.458404541015625,-1.09716796875,-0.283966064453125
-3.19635009765625,-1.3687286376953125,-0.7093505859375
-3.33026123046875,-1.001922607421875,-0.8232269287109375
-2.5172882080078125,-0.4857177734375,-0.5087890625
-1.622650146484375,0.0532379150390625,-0.38623046875
-0.643951416015625,0.359039306640625,-0.440887451171875
-0.350830078125,0.309173583984375,-0.0069732666015625
-0.080535888671875,0.27490234375,0.02166748046875
0.0408782958984375,0.2193603515625,-0.04815673828125
-0.0306243896484375,0.20343017578125,-0.045867919921875
-0.0533447265625,0.207061767578125,-0.0570526123046875
-0.0643310546875,0.157012939453125,0.00213623046875
-0.104766845703125,0.003021240234375,0.027069091796875
-1.2037506103515625,-0.2661285400390625,-0.489166259765625
-2.0174713134765625,-0.41827392578125,-0.4402923583984375
-1.64141845703125,-0.7958831787109375,-0.4739227294921875
-1.8911590576171875,-0.959197998046875,0.287994384765625
-1.589599609375,-0.843719482421875,-0.2242584228515625
-1.1030426025390625,-0.8321685791015625,-0.4534149169921875
-0.7057952880859375,-0.885498046875,0.0234832763671875
-0.37884521484375,-1.07769775390625,-0.002227783203125
-0.452239990234375,-1.00335693359375,-0.1468963623046875
-0.32861328125,-0.88671875,-0.121307373046875
-0.644775390625,-0.8846282958984375,-0.429443359375
-1.3791961669921875,-0.9851531982421876,-0.6314239501953125
-2.490966796875,-1.1951141357421875,-0.723114013671875
-2.8690338134765625,-1.080108642578125,-0.666839599609375
-2.4034881591796875,-0.7002105712890625,-0.5515899658203125
-1.6912078857421875,-0.38897705078125,-0.2683563232421875
-0.9612274169921876,-0.186431884765625,-0.02813720703125
-0.5859375,0.0938262939453125,0.123046875
-0.3175506591796875,0.24798583984375,0.0068206787109375
-0.05926513671875,0.352081298828125,0.0183563232421875
0.0760955810546875,0.2927703857421875,0.0276031494140625
-0.09857177734375,0.2614898681640625,-0.01287841796875
-0.3426666259765625,0.2115020751953125,0.07086181640625
-0.3951568603515625,0.0068817138671875,0.3173370361328125
-1.206512451171875,-0.29052734375,0.0612640380859375
-2.0929412841796875,-0.4055328369140625,0.15618896484375
-1.788604736328125,-0.6927947998046875,0.0347900390625
-1.5550689697265625,-0.8074188232421875,0.17169189453125
-1.5949249267578125,-0.910736083984375,0.1104736328125
-1.401458740234375,-1.068939208984375,0.023345947265625
-1.07196044921875,-1.1482696533203125,0.51910400390625
-0.5289459228515625,-0.985687255859375,0.0972900390625
-0.170562744140625,-0.655548095703125,-0.3813323974609375
-0.0850982666015625,-0.51910400390625,-0.269317626953125
-0.3179473876953125,-0.550140380859375,-0.04339599609375
-0.526763916015625,-0.715728759765625,-0.07342529296875
-1.0988616943359375,-1.14794921875,-0.3598480224609375
-1.930694580078125,-1.6424102783203125,-0.6571044921875
-3.3201446533203125,-1.2149810791015625,-0.849517822265625
-1.9913482666015625,-0.903533935546875,-0.1988677978515625
-1.27545166015625,-0.4572296142578125,0.110565185546875
-0.55914306640625,0.0492401123046875,-0.10693359375
-0.0514984130859375,0.3729095458984375,-0.1051177978515625
0.052398681640625,0.48040771484375,-0.104949951171875
0.0525360107421875,0.5753173828125,-0.163421630859375
0.1850433349609375,0.5185546875,-0.2772674560546875
0.039398193359375,0.406646728515625,-0.115020751953125
-0.7784271240234375,0.1239013671875,0.01055908203125
-2.279525756835937,-0.338104248046875,-0.0026397705078125
-2.317779541015625,-0.9961700439453124,0.2645416259765625
-2.02935791015625,-0.82843017578125,0.7840728759765625
-1.4364013671875,-0.9051055908203124,0.892303466796875
-1.369903564453125,-0.658447265625,0.721954345703125
-1.1412506103515625,-0.6084136962890625,0.3473052978515625
-1.216033935546875,-0.6339111328125,0.4556427001953125
-0.64947509765625,-0.922760009765625,0.5504608154296875
-0.267303466796875,-1.02069091796875,0.5422821044921875
-0.036041259765625,-0.936859130859375,0.3337249755859375
-0.283935546875,-0.761444091796875,0.0097503662109375
-0.7171173095703125,-0.6932525634765625,-0.0963287353515625
-1.1093292236328125,-0.878509521484375,-0.290771484375
-1.9775848388671875,-1.1400604248046875,-0.36065673828125
-2.9812469482421875,-1.3419952392578125,-0.5252227783203125
-2.86328125,-1.133148193359375,-0.151153564453125
-1.6840057373046875,-0.587554931640625,0.0811004638671875
-0.7010498046875,-0.1752777099609375,-0.1136322021484375
-0.2789459228515625,0.0210113525390625,-0.1082000732421875
-0.19659423828125,0.119232177734375,-0.125518798828125
-0.2452392578125,0.27215576171875,-0.2474365234375
-0.2253570556640625,0.3394317626953125,-0.073883056640625
-0.037384033203125,0.3495025634765625,0.0906982421875
-0.06256103515625,0.3592987060546875,0.1774139404296875
-0.325958251953125,0.261199951171875,0.1793975830078125
-0.83160400390625,0.0267181396484375,0.2868194580078125
-2.431640625,-0.46575927734375,0.5313720703125
-2.5491485595703125,-0.7931671142578125,1.193817138671875
-2.07421875,-0.9018402099609376,0.265869140625
-1.9763031005859373,-0.9446258544921876,0.3098907470703125
-1.522369384765625,-0.9394378662109376,0.162384033203125
-0.8624725341796875,-0.8967437744140625,0.0427398681640625
-0.5226898193359375,-0.769378662109375,-0.0695648193359375
-0.35821533203125,-0.649871826171875,-0.13409423828125
-0.085418701171875,-0.6085968017578125,-0.126220703125
-0.21697998046875,-0.5918426513671875,-0.13275146484375
-0.4977874755859375,-0.706817626953125,0.125579833984375
-0.847808837890625,-0.9241485595703124,0.01019287109375
-2.271484375,-1.099395751953125,-0.17938232421875
-2.5652008056640625,-1.0859832763671875,-0.1840057373046875
-2.742172241210937,-0.815185546875,-0.5803985595703125
-2.585433959960937,-0.56591796875,-0.3248443603515625
-1.8040008544921875,-0.3071136474609375,-0.15093994140625
-0.9284210205078124,-0.135772705078125,-0.033050537109375
-0.242767333984375,-0.030426025390625,0.0031890869140625
0.0129547119140625,0.0065155029296875,-0.0623016357421875
-0.0833587646484375,0.256805419921875,-0.23626708984375
-0.201629638671875,0.4692535400390625,-0.2024688720703125
-0.0780487060546875,0.407989501953125,-0.02630615234375
0.096343994140625,0.3109588623046875,0.010467529296875
0.1129913330078125,0.1490478515625,-0.0108795166015625
-0.3166351318359375,0.144134521484375,0.0724029541015625
-1.1782989501953125,0.2970733642578125,0.167816162109375
-2.465301513671875,-0.005218505859375,0.2150726318359375
-2.8406219482421875,-0.4088287353515625,0.2452545166015625
-2.80706787109375,-0.899169921875,0.473388671875
-2.0987091064453125,-1.1809234619140625,0.48016357421875
-1.2459716796875,-1.1992034912109375,-0.040191650390625
-0.8338623046875,-1.0893402099609375,-0.5868072509765625
-0.387420654296875,-0.846649169921875,-0.3990936279296875
-0.220245361328125,-0.680572509765625,-0.316131591796875
-0.264373779296875,-0.4675445556640625,-0.1147003173828125
-0.26971435546875,-0.392547607421875,-0.136810302734375
-0.7095794677734375,-0.6229095458984375,-0.19970703125
-2.2245635986328125,-1.2880706787109375,-0.0122528076171875
-3.556137084960937,-1.8198394775390625,0.1199493408203125
-2.784698486328125,-0.987396240234375,0.103240966796875
-1.272674560546875,-0.46453857421875,0.130767822265625
-0.7076568603515625,-0.0137176513671875,-0.2158050537109375
-0.2858734130859375,0.320037841796875,-0.168548583984375
-0.0182952880859375,0.3568572998046875,-0.26165771484375
0.0330352783203125,0.4863433837890625,-0.116668701171875
0.138519287109375,0.423919677734375,-0.06695556640625
0.0806732177734375,0.3292999267578125,-0.015960693359375
-0.260009765625,0.359527587890625,0.0808868408203125
-0.87347412109375,0.1417694091796875,0.077545166015625
-2.16839599609375,-0.23516845703125,0.2838134765625
-2.5382843017578125,-0.8538360595703125,0.23724365234375
-2.514617919921875,-1.0556793212890625,0.6356201171875
-1.7236480712890625,-1.2228240966796875,0.7206878662109375
-1.1233062744140625,-1.0978851318359375,0.4579010009765625
-0.51263427734375,-1.0132904052734375,0.0721282958984375
-0.41571044921875,-0.967529296875,-0.2799224853515625
-0.295623779296875,-0.906341552734375,-0.266754150390625
-0.240142822265625,-0.7332305908203125,-0.1032562255859375
-0.56219482421875,-0.739837646484375,-0.0053863525390625
-1.517791748046875,-1.0496978759765625,-0.0124969482421875
-2.2576904296875,-1.0955810546875,-0.1862030029296875
-2.7355499267578125,-1.1054229736328125,-0.0068359375
-2.9177398681640625,-0.77130126953125,0.058563232421875
-1.954833984375,-0.305908203125,0.007171630859375
-0.973541259765625,0.04278564453125,-0.108978271484375
-0.4210052490234375,0.3753204345703125,-0.146240234375
-0.0807647705078125,0.4314422607421875,-0.171417236328125
0.0068817138671875,0.4516448974609375,-0.0521697998046875
0.12359619140625,0.4685516357421875,-0.02276611328125
0.1513671875,0.371795654296875,-0.019256591796875
-0.2474517822265625,0.25469970703125,0.1141510009765625
-1.0465850830078125,0.148529052734375,0.2749481201171875
-2.0821533203125,-0.5105438232421875,0.0684814453125
-2.3704071044921875,-0.7862396240234375,0.211669921875
-2.0734100341796875,-0.9846649169921876,0.154510498046875
-1.585418701171875,-1.010833740234375,0.3243865966796875
-0.94927978515625,-0.9632110595703124,0.2877044677734375
-0.6480865478515625,-0.8371124267578125,0.26702880859375
-0.36181640625,-0.7813873291015625,-0.2487640380859375
-0.3177947998046875,-0.7219696044921875,-0.2407684326171875
-0.253173828125,-0.64984130859375,-0.0763702392578125
-0.402618408203125,-0.6389617919921875,-0.049713134765625
-1.002655029296875,-0.8074951171875,-0.4132080078125
-1.9735565185546875,-1.1775970458984375,-0.47113037109375
-2.9238433837890625,-1.3381805419921875,-0.48663330078125
-2.7434539794921875,-1.0781707763671875,-0.144561767578125
-2.3743438720703125,-0.767181396484375,-0.1421051025390625
-1.613739013671875,-0.2155609130859375,-0.1036376953125
-0.73223876953125,0.150115966796875,-0.053375244140625
-0.1835174560546875,0.336883544921875,-0.0778045654296875
-0.0329437255859375,0.3496551513671875,-0.24554443359375
-0.0413360595703125,0.3910980224609375,-0.14599609375
-0.0083770751953125,0.4497222900390625,-0.0106048583984375
0.0066680908203125,0.3950347900390625,0.083953857421875
-0.0850372314453125,0.2586212158203125,0.2169036865234375
-0.4637298583984375,-0.0423583984375,0.2412872314453125
-1.808258056640625,-0.2954254150390625,-0.0704498291015625
-2.2646026611328125,-0.5053558349609375,-0.0749969482421875
-1.9367523193359373,-0.7817535400390625,-0.1653289794921875
-2.1069488525390625,-0.63995361328125,-0.2156982421875
-1.8228302001953125,-0.7322235107421875,-0.1263427734375
-1.2771759033203125,-0.709259033203125,0.04144287109375
-0.9005126953125,-0.8023681640625,-0.259063720703125
-0.871917724609375,-0.96038818359375,-0.30242919921875
-0.6944122314453125,-0.883331298828125,-0.19891357421875
-0.2952880859375,-0.689910888671875,-0.147430419921875
-0.10980224609375,-0.574462890625,-0.133575439453125
0.0410919189453125,-0.4798126220703125,-0.222930908203125
-0.209747314453125,-0.5093231201171875,-0.2378082275390625
-1.6885223388671875,-0.7447967529296875,-0.3435821533203125
-2.3729400634765625,-1.1557769775390625,-0.387542724609375
-3.1360626220703125,-1.094573974609375,-0.620269775390625
-2.4767608642578125,-0.7806549072265625,-0.370635986328125
-2.089950561523437,-0.567413330078125,-0.13885498046875
-1.3462371826171875,-0.261810302734375,-0.133392333984375
-0.8309326171875,0.0694732666015625,0.0235443115234375
-0.261322021484375,0.3422088623046875,0.0495147705078125
-0.080078125,0.46966552734375,-0.0189056396484375
-0.07110595703125,0.531585693359375,0.0040740966796875
-0.0450897216796875,0.540557861328125,0.1401824951171875
0.146392822265625,0.3085174560546875,0.246246337890625
-0.1974639892578125,0.143402099609375,0.3441314697265625
-1.1281585693359375,-0.2451629638671875,0.043670654296875
-2.0526123046875,-0.4922332763671875,0.1839752197265625
-1.850830078125,-0.6422882080078125,0.0534210205078125
-2.074920654296875,-0.4167327880859375,0.0555267333984375
-1.72308349609375,-0.7031402587890625,0.319091796875
-1.506439208984375,-0.7327728271484375,0.1401214599609375
-1.5438385009765625,-0.8760528564453125,0.2404022216796875
-0.9592742919921876,-0.9442901611328124,0.0527801513671875
-0.55596923828125,-0.7173309326171875,-0.0187835693359375
-0.3101043701171875,-0.535614013671875,0.091644287109375
-0.3820648193359375,-0.51910400390625,0.1027374267578125
-0.5363922119140625,-0.55487060546875,-0.0943450927734375
-1.3979949951171875,-0.9445648193359376,-0.5277252197265625
-2.192657470703125,-1.073883056640625,-0.2757720947265625
-1.80413818359375,-0.82244873046875,-0.50457763671875
-1.9532470703125,-0.8490142822265625,-0.4535369873046875
-2.360626220703125,-1.1123199462890625,-0.3225555419921875
-2.015838623046875,-0.865814208984375,-0.1479339599609375
-1.259246826171875,-0.473388671875,-0.1017303466796875
-0.7374114990234375,-0.24822998046875,-0.0188446044921875
-0.372802734375,-0.0432281494140625,-0.071441650390625
-0.22833251953125,0.278900146484375,-0.0829925537109375
-0.183319091796875,0.544708251953125,-0.166046142578125
-0.0947723388671875,0.5825958251953125,-0.2474212646484375
-0.1765594482421875,0.5655364990234375,-0.1078338623046875
-0.1968231201171875,0.4978485107421875,0.1991729736328125
-0.4501190185546875,0.0811614990234375,0.0607757568359375
-1.8116607666015625,-0.1458587646484375,0.1029510498046875
-1.7987823486328125,-0.5674591064453125,0.2747650146484375
-2.157440185546875,-0.765106201171875,0.6589202880859375
-2.2352294921875,-0.81005859375,0.3970184326171875
-2.05438232421875,-0.91845703125,0.2353363037109375
-1.8503265380859373,-1.02447509765625,0.2627410888671875
-1.3304443359375,-1.1703948974609375,0.0986175537109375
-0.8271636962890625,-1.0796661376953125,-0.0355224609375
-0.11151123046875,-0.9593658447265624,0.0692138671875
-0.03399658203125,-1.01080322265625,-0.181060791015625
-0.04132080078125,-0.924163818359375,-0.2043609619140625
-0.314361572265625,-0.9317169189453124,-0.1843719482421875
-1.0526885986328125,-0.7343902587890625,-0.4767303466796875
-1.8479766845703125,-0.509246826171875,-1.0097198486328125
-3.5865020751953125,-0.873565673828125,-1.0223846435546875
-2.8231201171875,-0.567230224609375,-0.7626190185546875
-2.186004638671875,-0.14080810546875,-0.751129150390625
-1.509124755859375,-0.079315185546875,-0.3258209228515625
-0.942718505859375,-0.0442962646484375,-0.217254638671875
-0.54278564453125,0.041961669921875,-0.279998779296875
-0.26983642578125,0.0526885986328125,-0.1181182861328125
-0.0996856689453125,-0.1092071533203125,0.029205322265625
-0.1402130126953125,-0.01055908203125,-0.0791015625
-0.192596435546875,0.1598663330078125,-0.1015472412109375
-0.0332183837890625,0.23150634765625,-0.080657958984375
-0.0747833251953125,0.34210205078125,0.0377349853515625
-0.167449951171875,0.2756805419921875,0.0190887451171875
-0.5197296142578125,0.208251953125,-0.08648681640625
-2.011749267578125,0.1858978271484375,-0.1826171875
-2.4334259033203125,-0.33404541015625,0.1878814697265625
-2.865341186523437,-0.6836700439453125,0.220855712890625
-2.388336181640625,-0.956146240234375,0.18634033203125
-1.430938720703125,-1.0873565673828125,0.039154052734375
-0.97607421875,-1.1596527099609375,0.0716094970703125
-0.8905792236328125,-1.0344390869140625,0.018310546875
-0.738494873046875,-1.0395660400390625,-0.22723388671875
-0.5359344482421875,-0.88226318359375,-0.0715484619140625
-0.60675048828125,-0.797454833984375,0.0848541259765625
-1.377716064453125,-0.7584075927734375,-0.2352752685546875
-2.7597808837890625,-1.0638885498046875,-0.4229583740234375
-3.435699462890625,-0.6175079345703125,-0.7976226806640625
-3.3712158203125,-0.2655792236328125,-0.53973388671875
-2.4675445556640625,0.1534881591796875,-0.3795928955078125
-1.189453125,0.5045166015625,-0.3509368896484375
-0.3347625732421875,0.5933837890625,-0.2654571533203125
0.0168609619140625,0.667327880859375,-0.1354827880859375
0.06256103515625,0.5770111083984375,-0.2508697509765625
-0.027069091796875,0.600921630859375,-0.1910552978515625
0.041015625,0.51129150390625,-0.0892791748046875
0.040008544921875,0.489227294921875,0.037261962890625
-0.2057342529296875,0.360107421875,0.1321563720703125
-1.5000152587890625,0.2472991943359375,0.0721435546875
-2.479217529296875,-0.069061279296875,0.4535980224609375
-2.6491851806640625,-0.5548553466796875,-0.002838134765625
-2.321868896484375,-0.80914306640625,0.5141143798828125
-1.7262725830078125,-0.9239654541015624,0.5897216796875
-1.275482177734375,-0.89300537109375,0.12225341796875
-0.8748779296875,-0.8855743408203125,-0.03472900390625
-0.5478668212890625,-0.84844970703125,0.0567169189453125
-0.4929046630859375,-0.8025360107421875,0.05120849609375
-0.619171142578125,-0.833160400390625,-0.0093841552734375
-1.22119140625,-0.675750732421875,-0.5072174072265625
-2.0144805908203125,-0.6327972412109375,-0.2337799072265625
-2.48944091796875,-0.728240966796875,-0.305999755859375
-2.806549072265625,-0.75067138671875,0.0068359375
-2.632568359375,-0.5225677490234375,0.1042938232421875
-1.7905426025390625,-0.1810150146484375,-0.0235748291015625
-0.9844970703125,0.215118408203125,-0.2343292236328125
-0.4169464111328125,0.48626708984375,-0.2086639404296875
-0.071807861328125,0.59808349609375,-0.1127777099609375
0.032928466796875,0.5735931396484375,-0.126251220703125
-0.0310211181640625,0.51861572265625,-0.0728607177734375
-0.1765594482421875,0.5770263671875,0.1019439697265625
-0.2320098876953125,0.5093231201171875,0.273895263671875
-0.9197845458984376,0.3863067626953125,0.2355804443359375
-1.9398345947265625,0.3384552001953125,0.6063385009765625
-2.53607177734375,-0.0923004150390625,0.4920501708984375
-2.6384735107421875,-0.2818603515625,0.7660064697265625
-2.13604736328125,-0.5813140869140625,0.4396820068359375
-1.8219146728515625,-0.9467620849609376,0.6363983154296875
-0.9893646240234376,-1.0696258544921875,0.3564300537109375
-0.4490966796875,-1.2016143798828125,0.1454315185546875
-0.211029052734375,-1.046478271484375,0.187774658203125
-0.216217041015625,-0.93023681640625,0.137969970703125
-0.4432830810546875,-0.8080596923828125,0.047637939453125
-0.9515380859375,-0.888397216796875,-0.1618804931640625
-1.901885986328125,-0.938323974609375,-0.1793060302734375
-2.202133178710937,-1.0316619873046875,-0.2743682861328125
-2.3487091064453125,-0.8104095458984375,-0.5225067138671875
-2.26513671875,-0.6605682373046875,-0.4971923828125
-1.73626708984375,-0.2735443115234375,-0.1518707275390625
-0.965667724609375,-0.0598907470703125,-0.2592315673828125
-0.609283447265625,0.0202484130859375,-0.187408447265625
-0.4330902099609375,0.1477203369140625,-0.0523529052734375
-0.19146728515625,0.221435546875,0.010711669921875
-0.2289886474609375,0.3187408447265625,-0.0795135498046875
-0.276123046875,0.273529052734375,-0.09234619140625
-0.3324737548828125,0.2465362548828125,-0.0012359619140625
-0.3065338134765625,0.2702178955078125,0.03216552734375
-0.5984954833984375,0.3375091552734375,0.2544708251953125
-1.053497314453125,0.2095947265625,0.202056884765625
-2.04376220703125,0.2089385986328125,0.00970458984375
-2.255462646484375,-0.2108154296875,-0.0325164794921875
-2.4605255126953125,-0.4638519287109375,-0.060028076171875
-2.089340209960937,-0.829833984375,0.040008544921875
-1.808807373046875,-0.970947265625,0.1395721435546875
-1.409515380859375,-1.041473388671875,0.0847015380859375
-0.93975830078125,-0.9219512939453124,-0.0264434814453125
-0.846832275390625,-0.7368927001953125,0.008087158203125
-0.600616455078125,-0.64202880859375,0.079986572265625
-0.6024169921875,-0.715911865234375,0.06646728515625
-0.7008514404296875,-0.5989227294921875,-0.111480712890625
-0.7719573974609375,-0.494964599609375,-0.32879638671875
-1.17193603515625,-0.509307861328125,-0.7963104248046875
-1.242218017578125,-0.5721588134765625,-0.9251861572265624
-1.65350341796875,-0.53729248046875,-1.3364715576171875
-1.2786865234375,-0.343109130859375,-0.8446807861328125
-0.6392974853515625,-0.1996612548828125,-0.717559814453125
-0.53912353515625,-0.17498779296875,-0.588592529296875
-0.5081329345703125,-0.214019775390625,-0.3689117431640625
-0.4604034423828125,-0.12030029296875,-0.199005126953125
-0.42474365234375,-0.042877197265625,-0.1053314208984375
-0.25555419921875,0.11907958984375,-0.1517333984375
-0.391448974609375,0.2494354248046875,0.0022430419921875
-0.2923126220703125,0.174041748046875,0.10028076171875
-0.6785430908203125,0.1709747314453125,0.077880859375
-0.9210052490234376,0.0106048583984375,0.1536712646484375
-1.81536865234375,-0.20794677734375,-0.0888519287109375
-2.483673095703125,-0.417449951171875,0.059112548828125
-2.363525390625,-0.7025299072265625,0.0653839111328125
-1.996002197265625,-0.63360595703125,0.224151611328125
-1.455413818359375,-0.601165771484375,-0.14654541015625
-0.956268310546875,-0.6078643798828125,-0.1045379638671875
-0.655303955078125,-0.611175537109375,-0.067047119140625
-0.5308837890625,-0.5952606201171875,-0.1307525634765625
-0.3961334228515625,-0.5109710693359375,-0.0543212890625
-0.3332061767578125,-0.535369873046875,-0.0618896484375
-0.5052947998046875,-0.530792236328125,-0.0869293212890625
-1.0164337158203125,-0.66693115234375,-0.5664215087890625
-2.7479400634765625,-0.5608978271484375,-0.9088287353515624
-2.83660888671875,-0.22528076171875,-0.863128662109375
-2.4411773681640625,-0.347747802734375,-0.3893890380859375
-1.774200439453125,-0.088531494140625,-0.1513214111328125
-1.154083251953125,0.054534912109375,-0.2188568115234375
-0.9376220703125,0.14471435546875,-0.1268310546875
-0.8186798095703125,0.2451171875,-0.0812530517578125
-0.6802520751953125,0.3089599609375,0.0067138671875
-0.49737548828125,0.308319091796875,0.08062744140625
-0.3048553466796875,0.2602691650390625,0.0729827880859375
-0.1181640625,0.24578857421875,0.0673675537109375
-0.029144287109375,0.217193603515625,0.1219482421875
-0.009033203125,0.1953582763671875,0.150726318359375
-0.32611083984375,0.2845306396484375,0.0081329345703125
-0.7627716064453125,0.304931640625,0.0724945068359375
-1.481170654296875,-0.0925750732421875,0.1556243896484375
-2.4256134033203125,-0.4423828125,0.360198974609375
-2.9077606201171875,-0.7633514404296875,0.51239013671875
-2.4173736572265625,-0.8097381591796875,0.31689453125
-1.8918304443359373,-0.692962646484375,0.2810821533203125
-1.627532958984375,-0.68634033203125,0.2202606201171875
-1.2893829345703125,-0.6436614990234375,0.0958404541015625
-0.8819122314453125,-0.59674072265625,-0.1182403564453125
-0.64251708984375,-0.530609130859375,-0.198760986328125
-0.3065643310546875,-0.45391845703125,-0.1309356689453125
-0.1196441650390625,-0.39532470703125,-0.202423095703125
-0.068115234375,-0.3194732666015625,-0.1887969970703125
-0.0584564208984375,-0.2554168701171875,-0.2549591064453125
-0.6457366943359375,-0.33282470703125,-0.156829833984375
-2.182403564453125,-1.2350616455078125,0.1293182373046875
-3.348129272460937,-1.5006866455078125,0.7786712646484375
-2.7771759033203125,-1.1580352783203125,0.199615478515625
-2.1442108154296875,-0.927459716796875,0.1956787109375
-1.2407379150390625,-0.455535888671875,0.0229644775390625
-0.4925689697265625,-0.0487060546875,-0.049957275390625
-0.216339111328125,0.2414703369140625,-0.0435791015625
-0.095428466796875,0.44976806640625,-0.101898193359375
-0.0097808837890625,0.4654083251953125,-0.1145782470703125
0.04840087890625,0.5290069580078125,-0.0406646728515625
0.1216583251953125,0.5120697021484375,-0.0557708740234375
-0.1456756591796875,0.455322265625,0.0014190673828125
-1.042144775390625,0.2350921630859375,0.1076812744140625
-1.7911376953125,0.0849456787109375,0.5019989013671875
-2.8419342041015625,-0.374725341796875,-0.365570068359375
-2.722015380859375,-0.961273193359375,0.2830963134765625
-2.52740478515625,-1.0464324951171875,0.0307464599609375
-1.3084259033203125,-1.027679443359375,-0.545166015625
-0.7089996337890625,-0.8942108154296875,-0.3154754638671875
-0.2063140869140625,-0.813201904296875,-0.1831207275390625
0.0485382080078125,-0.7553253173828125,-0.1801300048828125
-0.1839447021484375,-0.755645751953125,-0.4141998291015625
-0.60162353515625,-0.8356170654296875,-0.48297119140625
-1.8031005859375,-1.1804351806640625,-1.05059814453125
-3.697830200195313,-1.7475433349609375,-1.1713409423828125
-3.9868011474609375,-0.9759063720703124,-1.10546875
-2.51275634765625,0.046356201171875,-0.7311859130859375
-1.033203125,0.5730438232421875,-0.1262054443359375
-0.33782958984375,0.8420257568359375,-0.1325531005859375
-0.1768341064453125,0.834136962890625,-0.0760955810546875
0.021575927734375,0.857666015625,-0.0487823486328125
0.126312255859375,0.7366943359375,-0.0983734130859375
0.029266357421875,0.6927490234375,0.06292724609375
0.0321197509765625,0.562774658203125,0.1861572265625
-0.489837646484375,0.342864990234375,0.3599395751953125
-2.986068725585937,-0.0295562744140625,0.44012451171875
-3.382659912109375,-0.84576416015625,0.5424957275390625
-2.8075103759765625,-0.8594512939453125,0.380126953125
-1.4028167724609375,-0.953704833984375,0.1859283447265625
-0.7088165283203125,-0.7089996337890625,0.335906982421875
-0.34991455078125,-0.9248504638671876,0.0953369140625
-0.8160858154296875,-1.0613555908203125,-0.338043212890625
-0.399932861328125,-1.0135498046875,-0.3585052490234375
-0.3651580810546875,-0.824371337890625,-0.06439208984375
-0.726104736328125,-0.7986297607421875,-0.0640869140625
-1.580841064453125,-1.0172271728515625,-0.275665283203125
-2.81903076171875,-1.1115570068359375,-0.2773590087890625
-3.6600189208984375,-0.8832855224609375,-0.5425872802734375
-2.984725952148437,-0.5102386474609375,-0.226470947265625
-2.0868072509765625,-0.144317626953125,-0.012451171875
-1.2453155517578125,0.1260528564453125,0.035491943359375
-0.9244842529296876,0.26300048828125,0.0579986572265625
-0.57476806640625,0.4536895751953125,0.088043212890625
-0.1469879150390625,0.5366973876953125,0.0
0.0283355712890625,0.5021209716796875,0.007415771484375
0.090057373046875,0.39715576171875,0.0495452880859375
0.08184814453125,0.3058013916015625,0.0497894287109375
-0.09814453125,0.2867889404296875,0.1256561279296875
-0.3759307861328125,-0.0004119873046875,0.108306884765625
-1.7501373291015625,-0.265838623046875,0.1494293212890625
-3.203094482421875,-0.688232421875,0.2332000732421875
-2.4576568603515625,-1.27734375,0.8233184814453125
-1.542388916015625,-1.3240203857421875,0.5042266845703125
-1.22662353515625,-1.1058502197265625,-0.07733154296875
-0.597320556640625,-0.8799591064453125,-0.275726318359375
-0.2147216796875,-0.7825164794921875,-0.2692413330078125
-0.2505950927734375,-0.7389678955078125,-0.1568145751953125
-0.2855072021484375,-0.6535797119140625,-0.184967041015625
-0.5481109619140625,-0.6680755615234375,0.000335693359375
-1.177154541015625,-0.8819580078125,-0.15423583984375
-2.504852294921875,-1.0460205078125,-0.1055450439453125
-2.7592010498046875,-1.06146240234375,0.0115966796875
-2.1638946533203125,-0.7284393310546875,0.1788177490234375
-2.01409912109375,-0.7985992431640625,0.132110595703125
-1.827239990234375,-0.47735595703125,0.0077362060546875
-1.08709716796875,-0.187347412109375,-0.0187530517578125
-0.54010009765625,0.0123748779296875,-0.1183624267578125
-0.0696868896484375,0.2617645263671875,-0.073028564453125
0.1410369873046875,0.233184814453125,-0.11456298828125
-0.095703125,0.3504180908203125,-0.0977325439453125
-0.1440277099609375,0.37615966796875,-0.0081634521484375
-0.0758819580078125,0.3140106201171875,0.0953216552734375
-0.2362060546875,0.2558441162109375,0.393646240234375
-0.53277587890625,-0.08306884765625,0.6381378173828125
-2.022445678710937,-0.816070556640625,0.147003173828125
-3.0944061279296875,-0.72265625,0.734710693359375
-2.0594482421875,-1.1764678955078125,0.1176910400390625
-1.544158935546875,-0.8075103759765625,0.165557861328125
-1.2770538330078125,-0.5878143310546875,0.0794830322265625
-0.6090545654296875,-0.751556396484375,0.23394775390625
-0.1175079345703125,-0.6107940673828125,0.1482391357421875
-0.0279693603515625,-0.40679931640625,-0.0244140625
-0.086761474609375,-0.3240203857421875,-0.0136871337890625
-0.592376708984375,-0.503082275390625,0.0821075439453125
-1.0803985595703125,-0.669525146484375,0.19451904296875
-2.39288330078125,-1.0373992919921875,-0.173858642578125
-3.456451416015625,-1.0471649169921875,-0.1130218505859375
-3.5259552001953125,-0.7386016845703125,0.043304443359375
-2.0125885009765625,-0.2544708251953125,0.1248016357421875
-0.891387939453125,-0.060760498046875,0.0031280517578125
-0.274566650390625,0.086700439453125,0.0606842041015625
-0.008514404296875,0.3444366455078125,0.0213623046875
0.0353240966796875,0.51788330078125,-0.0795440673828125
0.0213470458984375,0.59088134765625,-0.046417236328125
0.189361572265625,0.4860382080078125,0.0796661376953125
0.1821136474609375,0.4081878662109375,0.1184844970703125
-0.26983642578125,0.2940521240234375,0.2300262451171875
-0.958526611328125,0.0523834228515625,0.3944854736328125
-2.222625732421875,-0.38641357421875,0.1704254150390625
-2.9654998779296875,-0.5111846923828125,-0.3646697998046875
-2.2176513671875,-0.771240234375,0.160919189453125
-1.8807220458984373,-0.8935394287109375,0.359222412109375
-1.24566650390625,-0.6378631591796875,-0.3318328857421875
-0.5793609619140625,-0.6682586669921875,-0.4345550537109375
-0.2630462646484375,-0.5285797119140625,-0.4022064208984375
-0.3688507080078125,-0.509552001953125,-0.2677764892578125
-0.4258575439453125,-0.9974822998046876,0.0769195556640625
-0.7126312255859375,-0.743438720703125,-0.0095977783203125
-0.8155517578125,-0.8305206298828125,-0.1182861328125
-2.10455322265625,-1.1027374267578125,0.4365081787109375
-3.2700958251953125,-0.8707427978515625,0.5099029541015625
-3.2140045166015625,-0.2540283203125,0.5424652099609375
-2.166534423828125,0.045257568359375,0.46356201171875
-1.0167236328125,0.167266845703125,0.393280029296875
-0.418212890625,0.216156005859375,0.14532470703125
-0.2832489013671875,0.2449188232421875,0.0771636962890625
-0.250244140625,0.3490447998046875,0.00115966796875
-0.1972808837890625,0.39990234375,-0.090240478515625
-0.135528564453125,0.4216156005859375,-0.164825439453125
-0.150146484375,0.4055938720703125,-0.15057373046875
-0.3006439208984375,0.3547515869140625,-0.1548919677734375
-0.873077392578125,0.221160888671875,-0.2038726806640625
-1.614715576171875,-0.1699676513671875,-0.1169281005859375
-2.2068328857421875,-0.433837890625,-0.30096435546875
-2.4979248046875,-0.5541229248046875,-0.2388916015625
-2.53338623046875,-1.0388641357421875,-0.1195526123046875
-2.3213348388671875,-0.784637451171875,-0.165252685546875
-1.4792938232421875,-0.6233673095703125,-0.6479034423828125
-0.9241790771484376,-0.6047821044921875,-0.6326751708984375
-0.5225677490234375,-0.651275634765625,-0.48370361328125
-0.433807373046875,-0.5333099365234375,-0.461456298828125
-0.306793212890625,-0.53912353515625,-0.4232940673828125
-0.32305908203125,-0.58453369140625,-0.3635101318359375
-0.7188262939453125,-0.673553466796875,-0.3011474609375
-1.3950653076171875,-0.8918304443359375,-0.20379638671875
-1.1939849853515625,-1.098968505859375,0.1277923583984375
-1.427398681640625,-1.39044189453125,-0.134613037109375
-2.0836944580078125,-1.7524261474609375,0.1510162353515625
-2.03326416015625,-1.3882598876953125,0.34075927734375
-1.393829345703125,-0.868316650390625,0.18707275390625
-0.9265594482421876,-0.406219482421875,0.1821746826171875
-0.49578857421875,-0.0489044189453125,0.1451873779296875
-0.22021484375,0.3430328369140625,0.036895751953125
-0.024505615234375,0.6198272705078125,-0.089385986328125
0.0402069091796875,0.74884033203125,-0.1125335693359375
-0.12908935546875,0.6216278076171875,0.0370635986328125
-0.563995361328125,0.3345794677734375,0.133819580078125
-1.3227996826171875,-0.44146728515625,-0.0084381103515625
-1.923614501953125,-0.9591064453125,0.164642333984375
-1.73748779296875,-1.2374114990234375,-0.0221099853515625
-1.703857421875,-1.2447509765625,-0.17291259765625
-1.4070281982421875,-1.171051025390625,-0.0966949462890625
-0.8946075439453125,-0.86822509765625,-0.143646240234375
-0.69708251953125,-0.65850830078125,-0.2784271240234375
-0.5915069580078125,-0.7255096435546875,-0.452972412109375
-0.4728240966796875,-0.676483154296875,-0.2813262939453125
-0.1628875732421875,-0.7012786865234375,-0.224639892578125
-0.2980194091796875,-0.7108917236328125,-0.1839141845703125
-0.915740966796875,-1.0285186767578125,-0.09246826171875
-2.30517578125,-1.4876861572265625,-0.3760986328125
-2.8332977294921875,-1.343475341796875,-0.0262451171875
-2.213775634765625,-0.93865966796875,0.012298583984375
-2.1106719970703125,-0.65966796875,0.0196075439453125
-1.3577880859375,-0.1546783447265625,0.1029205322265625
-0.513763427734375,0.0475311279296875,0.0909423828125
0.0111846923828125,0.0628662109375,0.03656005859375
0.1595306396484375,0.1609344482421875,-0.048614501953125
-0.159576416015625,0.390594482421875,-0.1410980224609375
-0.2919769287109375,0.5778045654296875,-0.0731964111328125
-0.0794677734375,0.4387664794921875,0.069915771484375
-0.2203369140625,0.3567047119140625,0.1735076904296875
-0.980194091796875,0.1694793701171875,0.1654052734375
-2.1364288330078125,-0.5281524658203125,-0.048614501953125
-2.5933380126953125,-1.0089569091796875,0.0430450439453125
-2.300933837890625,-1.0404510498046875,0.3062744140625
-1.7138214111328125,-1.163055419921875,0.2077789306640625
-1.4194793701171875,-1.053314208984375,0.0559234619140625
-1.1054534912109375,-0.8388519287109375,0.0062713623046875
-0.6567230224609375,-0.78173828125,0.1451263427734375
-0.11273193359375,-0.657806396484375,0.1072235107421875
0.1763153076171875,-0.4989776611328125,-0.09088134765625
0.20697021484375,-0.4244537353515625,-0.1646728515625
-0.120361328125,-0.54949951171875,-0.2289581298828125
-0.5026702880859375,-0.708343505859375,-0.2799072265625
-0.9376983642578124,-1.5174713134765625,-1.3163909912109375
-3.390243530273437,-1.0988311767578125,-1.5220489501953125
-2.782943725585937,-1.035125732421875,-0.32757568359375
-1.867156982421875,-0.5305023193359375,-0.4326629638671875
-1.04107666015625,-0.12957763671875,-0.34716796875
-0.57220458984375,-0.0730133056640625,-0.2581329345703125
-0.4037628173828125,0.1396026611328125,-0.1054840087890625
-0.228607177734375,0.277191162109375,-0.11944580078125
-0.0526885986328125,0.53985595703125,0.0623016357421875
0.1700897216796875,0.5233154296875,0.0678253173828125
0.053619384765625,0.5326385498046875,0.11993408203125
-0.704315185546875,0.640228271484375,-0.0346832275390625
-2.176986694335937,0.3163909912109375,0.072174072265625
-2.8166656494140625,-0.337677001953125,0.3102569580078125
-2.417724609375,-0.7088165283203125,0.148162841796875
-2.1833038330078125,-0.8425140380859375,0.1627044677734375
-1.5676116943359375,-0.9121551513671876,0.1033782958984375
-1.2286376953125,-1.0007781982421875,0.0726318359375
-0.6718292236328125,-1.00457763671875,0.2111358642578125
-0.3332672119140625,-0.9493865966796876,0.0243377685546875
-0.234161376953125,-0.8623504638671875,-0.0003509521484375
-0.2674713134765625,-0.845458984375,-0.1304473876953125
-0.59002685546875,-0.8653411865234375,-0.3136444091796875
-1.0522308349609375,-0.766845703125,-0.551605224609375
-2.5264129638671875,-1.303009033203125,-0.99951171875
-3.461776733398437,-1.260528564453125,-0.4771270751953125
-3.014877319335937,-0.8487091064453125,-0.45220947265625
-2.1209716796875,-0.430328369140625,-0.233612060546875
-1.3472442626953125,-0.0410919189453125,-0.2147674560546875
-0.801483154296875,0.2051239013671875,-0.3078155517578125
-0.451934814453125,0.57940673828125,-0.1746978759765625
-0.087310791015625,0.52178955078125,-0.2854156494140625
-0.13775634765625,0.4822235107421875,-0.1800537109375
-0.154266357421875,0.4339599609375,-0.054901123046875
-0.1372222900390625,0.38909912109375,0.0377960205078125
-0.201812744140625,0.4346466064453125,0.1541748046875
-0.6260223388671875,0.3948974609375,0.3709259033203125
-2.3556671142578125,-0.3144378662109375,0.610626220703125
-3.243865966796875,-0.6780853271484375,0.902313232421875
-2.56536865234375,-1.354217529296875,0.4396514892578125
-1.8358306884765625,-1.3031158447265625,0.546905517578125
-1.0614471435546875,-0.9387664794921876,0.2932586669921875
-0.4875946044921875,-0.81915283203125,0.186370849609375
-0.33184814453125,-0.8321533203125,0.14654541015625
-0.41998291015625,-0.76373291015625,0.10235595703125
-0.526397705078125,-0.62701416015625,-0.03363037109375
-0.5887603759765625,-0.634002685546875,-0.0955352783203125
-1.208953857421875,-0.8995361328125,-0.119354248046875
-2.28912353515625,-1.3144683837890625,-0.4392242431640625
-3.560897827148437,-1.2485198974609375,-0.3459930419921875
-2.77215576171875,-0.478485107421875,-0.323822021484375
-1.7246551513671875,0.1655731201171875,0.0298309326171875
-0.6882171630859375,0.5207366943359375,-0.0216064453125
-0.2580108642578125,0.7352142333984375,-0.1231536865234375
-0.0413055419921875,0.8787841796875,-0.1631011962890625
0.0746002197265625,0.7393646240234375,-0.051513671875
0.1018218994140625,0.5778656005859375,0.135162353515625
-0.1485748291015625,0.551727294921875,0.27142333984375
-0.775909423828125,0.3292083740234375,0.7350921630859375
-1.479034423828125,-0.163543701171875,0.883636474609375
-2.5540313720703125,-0.3538818359375,1.2797698974609375
-2.7139129638671875,-0.9599609375,0.8353729248046875
-1.9256591796875,-0.9624481201171876,0.66986083984375
-1.0499267578125,-0.7964935302734375,0.57366943359375
-0.536865234375,-0.76275634765625,0.323883056640625
-0.3504180908203125,-0.695770263671875,0.0722808837890625
-0.3959503173828125,-0.7352752685546875,0.0681915283203125
-0.2834930419921875,-0.6726837158203125,0.0695037841796875
-0.5005035400390625,-0.658172607421875,0.0015411376953125
-0.6331939697265625,-0.84637451171875,0.068878173828125
-1.2757568359375,-0.919647216796875,-0.216766357421875
-2.268661499023437,-0.881591796875,-0.854644775390625
-2.468658447265625,-0.9957122802734376,-0.5603485107421875
-3.048553466796875,-0.732574462890625,-0.57476806640625
-2.442230224609375,-0.35882568359375,-0.1900482177734375
-1.3572998046875,0.0562286376953125,0.04437255859375
-0.615020751953125,0.3710174560546875,0.11444091796875
-0.149169921875,0.4949798583984375,0.273040771484375
0.1483612060546875,0.4399871826171875,0.156585693359375
0.047637939453125,0.3865509033203125,0.083343505859375
-0.1131134033203125,0.309844970703125,0.1383514404296875
-0.342559814453125,0.2318115234375,0.194549560546875
-0.8683319091796875,0.159912109375,0.4526214599609375
-1.8690948486328125,0.0405426025390625,0.5646820068359375
-2.23101806640625,-0.29376220703125,0.4610748291015625
-2.2081298828125,-0.5214385986328125,0.0569000244140625
-2.4306182861328125,-1.0368194580078125,-0.044921875
-1.949920654296875,-1.151397705078125,-0.1359710693359375
-1.162689208984375,-1.034820556640625,-0.4131011962890625
-0.787872314453125,-1.029327392578125,-0.478302001953125
-0.4852294921875,-0.96868896484375,-0.13079833984375
-0.2339630126953125,-0.7100830078125,-0.230712890625
-0.2912139892578125,-0.729461669921875,-0.1029205322265625
-0.41912841796875,-0.6868133544921875,-0.227813720703125
-0.79901123046875,-0.7108306884765625,-0.248077392578125
-1.4267578125,-0.7788238525390625,-0.591552734375
-2.404525756835937,-0.8925628662109375,-1.0323028564453125
-2.25091552734375,-0.5533599853515625,-1.1226654052734375
-1.5208587646484375,-0.231719970703125,-0.8816986083984375
-0.749267578125,-0.260009765625,-0.41461181640625
-0.43927001953125,-0.2639007568359375,-0.4206695556640625
-0.39910888671875,-0.075897216796875,-0.21710205078125
-0.1820831298828125,0.085418701171875,0.0175628662109375
-0.148162841796875,0.225738525390625,0.1298675537109375
-0.2144317626953125,0.2557220458984375,0.0436553955078125
-0.2370452880859375,0.13897705078125,0.145660400390625
-0.549957275390625,0.1410675048828125,0.109130859375
-1.060821533203125,0.132354736328125,-0.347320556640625
-1.682281494140625,0.2652435302734375,-0.5117340087890625
-2.109649658203125,-0.1654510498046875,-0.556884765625
-2.103485107421875,-0.339569091796875,-0.822601318359375
-2.0554656982421875,-0.7722625732421875,-0.60736083984375
-1.603515625,-0.870208740234375,-0.602386474609375
-0.8402862548828125,-1.061065673828125,-0.5737457275390625
-0.29058837890625,-1.176361083984375,-0.5314178466796875
-0.0336761474609375,-1.1057891845703125,-0.3200531005859375
-0.0403289794921875,-0.7931671142578125,-0.125762939453125
-0.30657958984375,-0.62762451171875,-0.160247802734375
-0.8037872314453125,-0.6173248291015625,-0.0738372802734375
-2.3750152587890625,-0.9007568359375,-0.235015869140625
-2.799911499023437,-1.1360321044921875,0.353912353515625
-3.022811889648437,-0.815399169921875,-0.06683349609375
-2.8029022216796875,-0.5568695068359375,0.1403045654296875
-1.60455322265625,-0.1226806640625,0.2060394287109375
-0.614898681640625,0.2275848388671875,-0.0609893798828125
-0.1732330322265625,0.6890869140625,-0.0126495361328125
0.2332611083984375,0.556365966796875,-0.065093994140625
0.1349945068359375,0.67047119140625,-0.171722412109375
0.072052001953125,0.658294677734375,0.02655029296875
-0.0827484130859375,0.3586273193359375,0.3020477294921875
-1.2521820068359375,0.0575714111328125,0.2785491943359375
-2.040130615234375,-0.467559814453125,0.1368865966796875
-2.303329467773437,-0.756866455078125,0.4037322998046875
-1.8869476318359373,-1.1062469482421875,0.5889739990234375
-1.6081695556640625,-0.9811248779296876,0.2915496826171875
-0.77301025390625,-1.038909912109375,0.1313629150390625
-0.557464599609375,-1.188812255859375,0.234130859375
-0.6450347900390625,-1.0442352294921875,0.17437744140625
-0.61590576171875,-0.931671142578125,0.28656005859375
-0.81610107421875,-0.6237945556640625,0.1871185302734375
-1.7072906494140625,-0.700592041015625,0.122528076171875
-1.7662353515625,-0.7519989013671875,0.055206298828125
-1.988861083984375,-0.857086181640625,0.023773193359375
-1.584075927734375,-0.6181182861328125,0.3287506103515625
-0.3208160400390625,-0.2640380859375,0.0760345458984375
0.2103118896484375,-0.0400390625,-0.1805419921875
0.411956787109375,0.2098388671875,-0.057769775390625
0.3244171142578125,0.3534393310546875,-0.1305389404296875
-0.1699066162109375,0.5670318603515625,-0.0195465087890625
-0.4188995361328125,0.55621337890625,0.1581878662109375
-0.4114532470703125,0.386688232421875,0.153228759765625
-0.88616943359375,0.61505126953125,0.2642364501953125
-1.8195037841796875,0.3146820068359375,-0.109527587890625
-3.214813232421875,0.3990020751953125,-0.382232666015625
-2.7070465087890625,-0.2700042724609375,0.13970947265625
-2.0032958984375,-0.31121826171875,0.1257171630859375
-1.7432403564453125,-0.3672027587890625,-0.4632110595703125
-1.4154510498046875,-0.603851318359375,-0.5731048583984375
-1.2113189697265625,-0.7102813720703125,-0.346923828125
-0.70806884765625,-0.7467193603515625,-0.2760162353515625
-0.2739715576171875,-0.6802520751953125,-0.356414794921875
-0.1945953369140625,-0.588470458984375,-0.0114593505859375
-0.350189208984375,-0.610809326171875,0.103485107421875
-1.033599853515625,-0.46044921875,0.2491455078125
-2.339508056640625,-0.3893585205078125,0.4697265625
-1.99462890625,-0.569366455078125,0.605316162109375
-2.3216705322265625,-0.6490020751953125,0.41473388671875
-2.696441650390625,-0.8376922607421875,0.40972900390625
-1.9390869140625,-0.5394134521484375,0.1785430908203125
-0.9486083984375,-0.14593505859375,-0.072662353515625
-0.1887054443359375,0.14825439453125,-0.1283416748046875
0.0963897705078125,0.3656005859375,-0.13433837890625
0.011444091796875,0.8280487060546875,-0.1322479248046875
0.2823028564453125,0.7134246826171875,-0.0177764892578125
0.2033233642578125,0.4006195068359375,0.29473876953125
-0.61444091796875,0.093353271484375,0.3618316650390625
-1.73193359375,0.1220245361328125,-0.141815185546875
-2.2404937744140625,0.2104034423828125,-0.488525390625
-1.5298004150390625,0.07177734375,-0.0600738525390625
-1.5459747314453125,0.0476837158203125,0.0472869873046875
-1.963714599609375,-0.04742431640625,-0.3237152099609375
-2.151885986328125,-0.680816650390625,-0.571044921875
-2.1368408203125,-0.9990386962890624,-0.7580718994140625
-1.5933074951171875,-1.4167633056640625,-0.3990478515625
-1.25640869140625,-1.1579742431640625,-0.132537841796875
-0.3228302001953125,-0.7825469970703125,-0.126953125
0.1605072021484375,-0.606170654296875,-0.209228515625
0.1139373779296875,-0.663818359375,-0.0069122314453125
-0.7044525146484375,-0.7323455810546875,-0.178314208984375
-1.84423828125,-0.9793548583984376,-0.56890869140625
-3.5340576171875,-1.363128662109375,-0.77447509765625
-3.56341552734375,-0.855010986328125,-0.2428131103515625
-2.10699462890625,-0.19891357421875,0.0102081298828125
-1.3101043701171875,0.2705078125,-0.073089599609375
-0.8290252685546875,0.663482666015625,0.2436065673828125
-0.1266326904296875,0.9041748046875,0.2586669921875
0.0617523193359375,0.876434326171875,-0.0337982177734375
0.13665771484375,0.7640380859375,-0.116058349609375
0.1098785400390625,0.387847900390625,0.008880615234375
-0.616851806640625,0.105865478515625,0.3730010986328125
-1.57342529296875,-0.1021728515625,0.2101287841796875
-2.072540283203125,-0.3886566162109375,0.758758544921875
-1.7842864990234375,-0.599700927734375,0.50177001953125
-1.687225341796875,-0.43756103515625,0.227264404296875
-1.5373077392578125,-0.5135955810546875,0.11138916015625
-1.158782958984375,-0.5404052734375,0.2835693359375
-0.8585662841796875,-0.53839111328125,0.2093505859375
-0.6349334716796875,-0.4485321044921875,0.191375732421875
-0.4863433837890625,-0.772064208984375,-0.1446075439453125
-0.8043212890625,-0.7735443115234375,-0.185333251953125
-1.2123260498046875,-0.9224090576171876,-0.3950347900390625
-2.0620574951171875,-0.9354400634765624,-0.5864715576171875
-2.70660400390625,-0.7200164794921875,-0.5510101318359375
-2.1998443603515625,-0.44451904296875,-0.2834625244140625
-1.75103759765625,-0.2339935302734375,-0.286529541015625
-1.29254150390625,-0.1509857177734375,-0.307403564453125
-0.8340606689453125,-0.08709716796875,-0.2686767578125
-0.5283355712890625,-0.02728271484375,-0.250823974609375
-0.364166259765625,0.142486572265625,-0.2207489013671875
-0.3343353271484375,0.373046875,-0.1580810546875
-0.258087158203125,0.4874267578125,-0.0221405029296875
-0.1481781005859375,0.615570068359375,0.15155029296875
-0.1080169677734375,0.56793212890625,0.2144012451171875
-0.8942413330078125,0.4113311767578125,0.34332275390625
-2.16534423828125,0.153076171875,0.4208984375
-2.44000244140625,-0.3271636962890625,0.4762115478515625
-2.18865966796875,-0.694610595703125,0.5841522216796875
-1.5321197509765625,-0.7164459228515625,0.38616943359375
-0.9133453369140624,-0.73175048828125,-0.114166259765625
-0.9610137939453124,-0.8934783935546875,0.01055908203125
-0.831634521484375,-0.773712158203125,0.2221221923828125
-0.4197235107421875,-0.74273681640625,-0.135986328125
-0.567138671875,-0.5859375,-0.229095458984375
-0.80322265625,-0.52911376953125,-0.5286865234375
-2.0821075439453125,-0.8498077392578125,-0.446563720703125
-2.856781005859375,-0.738006591796875,-0.0595245361328125
-2.6480712890625,-0.577423095703125,0.1921234130859375
-2.1790313720703125,-0.3147430419921875,0.4171295166015625
-1.3641510009765625,-0.0409393310546875,0.1693572998046875
-0.7506256103515625,0.085845947265625,0.0673980712890625
-0.4639739990234375,0.30853271484375,0.0774993896484375
-0.2028045654296875,0.5250396728515625,-0.00732421875
-0.1025390625,0.5268707275390625,-0.0716094970703125
-0.0749053955078125,0.75518798828125,0.0976715087890625
0.0134429931640625,0.6393890380859375,0.114044189453125
-0.4269561767578125,0.6512908935546875,0.231689453125
-1.458221435546875,0.205902099609375,0.11016845703125
-2.665618896484375,-0.2411346435546875,0.272979736328125
-2.423187255859375,-0.7566986083984375,0.3209228515625
-1.896209716796875,-0.768524169921875,0.1215057373046875
-1.27691650390625,-0.7641143798828125,0.1558074951171875
-0.9499969482421876,-0.5446929931640625,-0.0372314453125
-0.8655548095703125,-0.5131988525390625,-0.1148223876953125
-0.5636444091796875,-0.430511474609375,-0.3588104248046875
-0.7507171630859375,-0.5594940185546875,-0.388946533203125
-0.9651947021484376,-0.622344970703125,-0.02294921875
-0.581085205078125,-0.532196044921875,0.106201171875
-1.1049957275390625,-0.52587890625,0.115142822265625
-1.179595947265625,-0.4213714599609375,0.287811279296875
-1.471221923828125,-0.4388885498046875,0.5130767822265625
-1.6759796142578125,-0.36370849609375,0.7447357177734375
-1.2574310302734375,-0.6159515380859375,0.4891357421875
-1.39453125,-0.730072021484375,0.348785400390625
-1.5181732177734375,-0.863616943359375,0.3640594482421875
-1.290618896484375,-0.4792327880859375,0.3442535400390625
-1.0576324462890625,-0.1789703369140625,0.2861175537109375
-0.8933258056640625,0.149627685546875,0.2650604248046875
-0.93914794921875,0.3348541259765625,0.2330474853515625
-1.009185791015625,0.8039093017578125,0.4395904541015625
-0.9656982421875,1.0594635009765625,0.4098968505859375
-0.6749267578125,0.3166351318359375,0.1161956787109375
-0.794281005859375,0.1246337890625,0.243377685546875
-0.9007110595703125,-0.2013092041015625,0.249969482421875
-1.1009063720703125,-0.4745635986328125,0.5840606689453125
-0.639556884765625,-0.7328643798828125,0.544921875
-0.9647064208984376,-0.9585723876953124,0.28338623046875
-1.0700531005859375,-0.9460906982421876,0.0322113037109375
-0.9316864013671876,-0.9730224609375,-0.1707305908203125
-1.2165985107421875,-0.779296875,-0.6205902099609375
-1.5217437744140625,-0.597869873046875,-0.88458251953125
-1.3848114013671875,-0.599761962890625,-0.5004730224609375
-1.2109375,-0.521209716796875,-0.3958892822265625
-0.8970489501953125,-0.320892333984375,-0.286285400390625
-0.4728240966796875,-0.0156402587890625,-0.2311859130859375
0.019805908203125,0.010467529296875,-0.0061492919921875
0.027557373046875,0.0146026611328125,-0.0021514892578125
0.0271148681640625,0.013092041015625,-0.0043182373046875
0.02935791015625,0.0098419189453125,-0.0064849853515625
0.03387451171875,0.00714111328125,-0.014434814453125
0.040557861328125,-4.57763671875e-05,-0.0290374755859375
0.0453338623046875,-0.00653076171875,-0.0485992431640625
0.0473480224609375,-0.0114593505859375,-0.0535125732421875
0.04962158203125,-0.0147705078125,-0.0660400390625
0.0827789306640625,-0.095855712890625,-1.88134765625
-4.0338897705078125,0.3934478759765625,-4.302001953125
-0.324005126953125,0.0302581787109375,-1.0855865478515625
0.2144012451171875,-0.2318878173828125,-0.3585357666015625
0.1474761962890625,-0.216644287109375,-0.7818756103515625
-0.10052490234375,-0.3509368896484375,-0.829864501953125
0.2252349853515625,-0.59832763671875,-0.894622802734375
0.062774658203125,-0.3095703125,-0.9857177734375
-0.1151275634765625,-0.2746734619140625,-0.92730712890625
-0.020263671875,-0.3103485107421875,-0.9629669189453124
0.009063720703125,-0.3420867919921875,-0.9461822509765624
-0.0389556884765625,-0.307830810546875,-0.953216552734375
-0.0005950927734375,-0.318603515625,-0.951507568359375
-0.023712158203125,-0.32147216796875,-0.9565277099609376
-0.014984130859375,-0.3178558349609375,-0.952392578125
-0.0214385986328125,-0.3307952880859375,-0.9334716796875
-0.0263671875,-0.3307342529296875,-0.9434661865234376
-0.0153961181640625,-0.3154144287109375,-0.957244873046875
-0.01959228515625,-0.3204498291015625,-0.947967529296875
-0.0148162841796875,-0.3222503662109375,-0.9514617919921876
-0.0171051025390625,-0.3189239501953125,-0.956146240234375
-0.0166168212890625,-0.32000732421875,-0.9537200927734376
-0.016357421875,-0.3163299560546875,-0.953887939453125
-0.0177001953125,-0.323394775390625,-0.9514923095703124
-0.0170440673828125,-0.3179779052734375,-0.9534912109375
-0.0174713134765625,-0.3196868896484375,-0.9521942138671876
-0.018402099609375,-0.3203277587890625,-0.9536285400390624
-0.01666259765625,-0.3182830810546875,-0.95220947265625
-0.0178680419921875,-0.3202667236328125,-0.952545166015625
-0.016204833984375,-0.3180999755859375,-0.9535064697265624
-0.0169525146484375,-0.3198394775390625,-0.9527435302734376
-0.016998291015625,-0.318603515625,-0.9521026611328124
-0.01690673828125,-0.3200836181640625,-0.9527435302734376
-0.0174560546875,-0.319732666015625,-0.95281982421875
-0.016326904296875,-0.3189849853515625,-0.953155517578125
-0.0171051025390625,-0.319427490234375,-0.952362060546875
-0.0176239013671875,-0.3190765380859375,-0.9537811279296876
-0.0168609619140625,-0.3197784423828125,-0.953582763671875
-0.0177459716796875,-0.3189849853515625,-0.9531097412109376
-0.0131683349609375,-0.3101959228515625,-0.940643310546875
-0.0365753173828125,-0.333404541015625,-1.02752685546875
