AccelerationX,AccelerationY,AccelerationZ
-0.3258514404296875,0.6735992431640625,-0.613861083984375
-0.506103515625,0.625640869140625,-0.5416717529296875
-0.5227203369140625,0.6864471435546875,-0.577606201171875
-0.4781494140625,0.6907196044921875,-0.4508514404296875
-0.438385009765625,0.7198028564453125,-0.4907073974609375
-0.3758087158203125,0.7898406982421875,-0.46832275390625
-0.3437042236328125,0.789337158203125,-0.3661651611328125
-0.40631103515625,0.7975921630859375,-0.408447265625
-0.4618377685546875,0.8279266357421875,-0.2604522705078125
-0.4722747802734375,0.818115234375,-0.2573089599609375
-0.54156494140625,0.82562255859375,-0.226715087890625
-0.5211639404296875,0.8099212646484375,-0.14788818359375
-0.4827880859375,0.857147216796875,-0.210418701171875
-0.5289306640625,0.8821258544921875,-0.1613006591796875
-0.4911651611328125,0.8628387451171875,-0.072174072265625
-0.474700927734375,0.84234619140625,-0.0208587646484375
-0.4517974853515625,0.8155517578125,0.0934600830078125
-0.3638763427734375,0.8104248046875,-0.008819580078125
-0.3882904052734375,0.8982696533203125,-0.0079345703125
-0.4706573486328125,0.88134765625,0.167327880859375
-0.4931640625,0.9112091064453124,0.0710906982421875
-0.519989013671875,0.896881103515625,0.0669403076171875
-0.58038330078125,0.819183349609375,0.128875732421875
-0.5899658203125,0.7771759033203125,0.2087554931640625
-0.5849456787109375,0.826263427734375,0.1618804931640625
-0.7390594482421875,0.7803802490234375,0.025360107421875
-0.8024139404296875,0.7698974609375,0.138214111328125
-0.702056884765625,0.782958984375,0.011993408203125
-0.8072357177734375,0.793548583984375,-0.1810150146484375
-0.8741912841796875,0.77752685546875,-0.1221923828125
-0.78216552734375,0.7564239501953125,-0.019195556640625
-0.74774169921875,0.7353363037109375,-0.0750274658203125
-0.780181884765625,0.738037109375,-0.1257171630859375
-0.79827880859375,0.844512939453125,-0.154815673828125
-0.8421173095703125,0.935821533203125,-0.16119384765625
-0.751861572265625,0.7578887939453125,-0.2672576904296875
-0.711944580078125,0.7046356201171875,-0.2155609130859375
-0.725738525390625,0.8997802734375,-0.1552886962890625
-0.65032958984375,0.907806396484375,-0.1402587890625
-0.5616302490234375,0.7599639892578125,-0.0757293701171875
-0.491851806640625,0.6983642578125,-0.0587615966796875
-0.437591552734375,0.7052001953125,-0.039825439453125
-0.3791351318359375,0.6681671142578125,0.048828125
-0.357452392578125,0.681549072265625,0.080841064453125
-0.4300384521484375,0.7516021728515625,0.0298614501953125
-0.4395599365234375,0.8947601318359375,0.0762939453125
-0.51605224609375,0.947235107421875,0.18157958984375
-0.6118927001953125,0.970550537109375,0.0825653076171875
-0.638092041015625,1.0111236572265625,0.0294952392578125
-0.6839752197265625,1.090423583984375,-0.03289794921875
-0.760162353515625,1.04022216796875,0.0104827880859375
-0.7089691162109375,0.7466583251953125,0.0984344482421875
-0.756805419921875,0.7115936279296875,0.064422607421875
-0.794677734375,0.7186431884765625,0.043243408203125
-0.6827545166015625,0.6602783203125,0.180877685546875
-0.66583251953125,0.623626708984375,0.0819854736328125
-0.6159820556640625,0.6243896484375,-0.00732421875
-0.62164306640625,0.639434814453125,0.087493896484375
-0.604095458984375,0.633209228515625,0.0983123779296875
-0.7434539794921875,0.6606903076171875,0.14697265625
-0.832244873046875,0.8175506591796875,0.0792388916015625
-0.820953369140625,0.9120635986328124,-0.02667236328125
-0.8248291015625,0.90350341796875,-0.0360107421875
-0.8185272216796875,0.935821533203125,0.0243988037109375
-0.7799072265625,1.09490966796875,-0.0272979736328125
-0.658935546875,0.973968505859375,-0.088531494140625
-0.656585693359375,0.742919921875,-0.056884765625
-0.6768798828125,0.851409912109375,0.011871337890625
-0.6204376220703125,0.9763031005859376,-0.046539306640625
-0.4844207763671875,0.754638671875,-0.0449981689453125
-0.5351409912109375,0.6423492431640625,0.0108795166015625
-0.5121307373046875,0.6595458984375,0.0245208740234375
-0.4393463134765625,0.6443023681640625,0.0520782470703125
-0.4340057373046875,0.6275177001953125,0.099151611328125
-0.4679412841796875,0.6949005126953125,0.0941162109375
-0.5076751708984375,0.76861572265625,0.034423828125
-0.57293701171875,0.796905517578125,0.0186920166015625
-0.6068878173828125,0.803070068359375,0.0396728515625
-0.734466552734375,0.9893646240234376,0.0745086669921875
-0.662139892578125,0.9272918701171876,-0.025848388671875
-0.641082763671875,0.6639862060546875,-0.11517333984375
-0.71685791015625,0.7422332763671875,-0.03076171875
-0.7725830078125,0.9163818359375,0.00628662109375
-0.84124755859375,0.8303375244140625,-0.0230865478515625
-0.851806640625,0.6849822998046875,-0.07672119140625
-0.8021697998046875,0.6598052978515625,-0.1237335205078125
-0.708282470703125,0.68994140625,-0.05999755859375
-0.655517578125,0.676025390625,-0.0438995361328125
-0.6534576416015625,0.6962890625,-0.0451507568359375
-0.7238922119140625,0.7518768310546875,-0.0460662841796875
-0.81976318359375,0.8262786865234375,-0.0343017578125
-0.8437347412109375,0.8874664306640625,-0.0912322998046875
-0.79864501953125,0.8883514404296875,-0.1634979248046875
-0.8037567138671875,1.03607177734375,-0.102691650390625
-0.7862701416015625,1.104522705078125,-0.150482177734375
-0.65283203125,0.881805419921875,-0.2253570556640625
-0.62750244140625,0.8991851806640625,-0.156005859375
-0.5326080322265625,1.0172882080078125,-0.1217498779296875
-0.3531494140625,0.876983642578125,-0.1072235107421875
-0.33770751953125,0.687255859375,-0.050140380859375
-0.4176483154296875,0.648406982421875,-0.102752685546875
-0.4615631103515625,0.684844970703125,-0.1238861083984375
-0.4891204833984375,0.7336578369140625,-0.0402374267578125
-0.4850311279296875,0.7875518798828125,0.04840087890625
-0.5257720947265625,0.8413238525390625,0.0194854736328125
-0.5341033935546875,0.9058990478515624,0.010833740234375
-0.489044189453125,0.8722381591796875,-0.0150146484375
-0.6104736328125,0.86181640625,-0.0194091796875
-0.617095947265625,0.9620361328125,0.1024017333984375
-0.4962310791015625,0.8870391845703125,0.0200958251953125
-0.6017303466796875,0.8275604248046875,-0.103424072265625
-0.73114013671875,0.8962554931640625,-0.06768798828125
-0.809906005859375,0.894927978515625,0.008544921875
-0.796234130859375,0.728759765625,-0.0321197509765625
-0.7792205810546875,0.6613616943359375,-0.0550537109375
-0.707366943359375,0.667144775390625,-0.06329345703125
-0.622039794921875,0.658233642578125,-0.0096893310546875
-0.593597412109375,0.670684814453125,-0.02410888671875
-0.6519317626953125,0.7740020751953125,-0.06048583984375
-0.7552490234375,0.9349212646484376,-0.075347900390625
-0.8154144287109375,0.954345703125,-0.0595703125
-0.8153533935546875,0.895538330078125,-0.0484466552734375
-0.8148651123046875,0.9540863037109376,-0.025848388671875
-0.7751922607421875,1.0918731689453125,-0.0260467529296875
-0.6436004638671875,0.928436279296875,-0.0229034423828125
-0.71856689453125,0.87689208984375,-0.0724639892578125
-0.663543701171875,0.928466796875,-0.1312103271484375
-0.56365966796875,0.8769378662109375,-0.0987396240234375
-0.486083984375,0.7830352783203125,-0.080718994140625
-0.4550933837890625,0.7352294921875,-0.1208343505859375
-0.4377899169921875,0.7496185302734375,-0.097137451171875
-0.3951873779296875,0.7455902099609375,-0.04071044921875
-0.36920166015625,0.6923828125,0.0284423828125
-0.385406494140625,0.6757965087890625,0.02337646484375
-0.425811767578125,0.765777587890625,-0.01885986328125
-0.4429931640625,0.9029998779296876,0.0043182373046875
-0.498291015625,0.8896484375,-0.0146026611328125
-0.6364288330078125,1.1137847900390625,0.0435638427734375
-0.5498809814453125,1.054046630859375,-0.086029052734375
-0.6132965087890625,0.8117218017578125,-0.130218505859375
-0.7683258056640625,0.8043212890625,-0.0529632568359375
-0.7992401123046875,0.88323974609375,-0.0200042724609375
-0.7716827392578125,0.797454833984375,-0.0457611083984375
-0.744171142578125,0.6728057861328125,-0.0626983642578125
-0.6958770751953125,0.6775665283203125,-0.0891265869140625
-0.64215087890625,0.70770263671875,-0.0489349365234375
-0.63330078125,0.712432861328125,-0.009765625
-0.6685028076171875,0.737701416015625,0.0046844482421875
-0.7188720703125,0.7646484375,-0.046142578125
-0.7733306884765625,0.82586669921875,-0.057769775390625
-0.727691650390625,0.8360595703125,-0.07257080078125
-0.7966461181640625,1.0465545654296875,-0.0685272216796875
-0.7327728271484375,1.1081390380859375,-0.1036529541015625
-0.7033233642578125,0.86029052734375,-0.0879974365234375
-0.7791290283203125,0.8777008056640625,-0.074951171875
-0.6961669921875,0.9373016357421876,-0.077911376953125
-0.5765228271484375,0.905487060546875,-0.07037353515625
-0.535003662109375,0.7889556884765625,-0.0456390380859375
-0.517547607421875,0.762939453125,-0.07623291015625
-0.4683837890625,0.758453369140625,-0.06982421875
-0.4268951416015625,0.7444915771484375,-0.0267181396484375
-0.4139251708984375,0.7309722900390625,0.0306549072265625
-0.391204833984375,0.721893310546875,0.0088043212890625
-0.4459686279296875,0.76043701171875,-0.001739501953125
-0.431793212890625,0.79315185546875,-0.070404052734375
-0.5633087158203125,0.9323577880859376,-0.1164703369140625
-0.54718017578125,1.0124053955078125,-0.0880279541015625
-0.5283203125,0.8061065673828125,-0.1481475830078125
-0.643096923828125,0.755096435546875,-0.0948944091796875
-0.66473388671875,0.868499755859375,-0.1147918701171875
-0.6603546142578125,0.925018310546875,-0.1314544677734375
-0.648223876953125,0.74725341796875,-0.1151885986328125
-0.6544189453125,0.6798248291015625,-0.1399078369140625
-0.661956787109375,0.699188232421875,-0.1176300048828125
-0.6707000732421875,0.6983642578125,-0.076385498046875
-0.7105255126953125,0.7130889892578125,-0.0323028564453125
-0.7807769775390625,0.7642974853515625,0.0264739990234375
-0.845428466796875,0.8268280029296875,-0.0164031982421875
-0.8835601806640625,0.8609771728515625,-0.106170654296875
-0.9091949462890624,0.8532257080078125,-0.1031341552734375
-0.843994140625,0.893646240234375,-0.10986328125
-0.764007568359375,1.068817138671875,-0.1794281005859375
-0.605682373046875,1.0194244384765625,-0.2225341796875
-0.4812164306640625,0.7295684814453125,-0.197662353515625
-0.5446624755859375,0.7329254150390625,-0.11663818359375
-0.5880584716796875,0.8763580322265625,-0.082489013671875
-0.5315704345703125,0.8543853759765625,-0.1224517822265625
-0.5324554443359375,0.7385406494140625,-0.2205657958984375
-0.57489013671875,0.733551025390625,-0.28619384765625
-0.525634765625,0.7218170166015625,-0.2216644287109375
-0.50006103515625,0.76324462890625,-0.11077880859375
-0.4936065673828125,0.8210296630859375,-0.0403289794921875
-0.4833831787109375,0.85748291015625,-0.0001373291015625
-0.5159759521484375,0.9343414306640624,0.0245361328125
-0.4821624755859375,0.8509063720703125,0.01678466796875
-0.573486328125,0.9059600830078124,0.082275390625
-0.5164794921875,0.97528076171875,0.0562896728515625
-0.4597320556640625,0.707763671875,-0.0164642333984375
-0.5672760009765625,0.6431732177734375,0.0278167724609375
-0.6423187255859375,0.8307647705078125,0.090576171875
-0.654083251953125,0.885833740234375,0.0867156982421875
-0.631072998046875,0.7169647216796875,0.0208740234375
-0.65606689453125,0.6522216796875,-0.00830078125
-0.6027069091796875,0.6808319091796875,-0.0138092041015625
-0.5565032958984375,0.7093353271484375,0.0650787353515625
-0.6185760498046875,0.7374725341796875,0.0933074951171875
-0.6672515869140625,0.7980499267578125,0.04571533203125
-0.729949951171875,0.8560333251953125,-0.0184783935546875
-0.800811767578125,0.90374755859375,-0.0823822021484375
-0.8724212646484375,0.8580322265625,-0.0971527099609375
-0.9736480712890624,0.9656982421875,-0.0991973876953125
-0.8977508544921875,0.9995574951171876,-0.1487274169921875
-0.758514404296875,0.8899688720703125,-0.16229248046875
-0.7683563232421875,0.9088287353515624,-0.0769500732421875
-0.7278594970703125,1.0114288330078125,-0.066314697265625
-0.6121826171875,1.051544189453125,-0.0977020263671875
-0.50103759765625,0.9496307373046876,-0.1195526123046875
-0.4751434326171875,0.8739776611328125,-0.09210205078125
-0.448028564453125,0.8233642578125,-0.07275390625
-0.38592529296875,0.7606964111328125,0.0015411376953125
-0.3353729248046875,0.724578857421875,0.035369873046875
-0.297760009765625,0.7111358642578125,0.04046630859375
-0.3304595947265625,0.7462005615234375,0.05780029296875
-0.427276611328125,0.8136138916015625,0.102081298828125
-0.493255615234375,0.8466033935546875,0.063323974609375
-0.63995361328125,0.9465484619140624,0.0261993408203125
-0.649566650390625,1.0628204345703125,0.041778564453125
-0.5959014892578125,0.918914794921875,-0.0794219970703125
-0.69140625,0.8406982421875,-0.0799713134765625
-0.76025390625,0.9148101806640624,-0.0728759765625
-0.7574005126953125,0.8575592041015625,-0.017059326171875
-0.734649658203125,0.70196533203125,-0.0344390869140625
-0.7234039306640625,0.6329498291015625,-0.0462799072265625
-0.6239471435546875,0.68463134765625,-0.0365142822265625
-0.571136474609375,0.7156982421875,-0.0224609375
-0.5574951171875,0.7293853759765625,-0.01446533203125
-0.6146392822265625,0.76751708984375,-0.038116455078125
-0.714691162109375,0.8129425048828125,-0.0354156494140625
-0.8119354248046875,0.8502960205078125,-0.0119171142578125
-0.8415374755859375,0.8139495849609375,-0.00579833984375
-0.81201171875,0.8280181884765625,-0.0228729248046875
-0.7957916259765625,1.0454559326171875,-0.02740478515625
-0.740814208984375,1.0664215087890625,-0.081298828125
-0.70098876953125,0.9028167724609376,-0.1284332275390625
-0.7248382568359375,0.84246826171875,-0.100616455078125
-0.7046661376953125,0.9237823486328124,-0.0633544921875
-0.602630615234375,0.990234375,-0.08929443359375
-0.4728546142578125,0.8996124267578125,-0.15045166015625
-0.446197509765625,0.7769317626953125,-0.171661376953125
-0.4118804931640625,0.745025634765625,-0.1155242919921875
-0.3637237548828125,0.7102508544921875,-0.05694580078125
-0.3256072998046875,0.6779937744140625,-0.0010833740234375
-0.319488525390625,0.68634033203125,0.0149383544921875
-0.3272857666015625,0.7508087158203125,0.0207672119140625
-0.39501953125,0.86553955078125,0.022857666015625
-0.4850006103515625,0.93115234375,0.008636474609375
-0.6096649169921875,0.94830322265625,0.0009765625
-0.726715087890625,1.17413330078125,0.069305419921875
-0.675933837890625,1.0677642822265625,-0.081085205078125
-0.72686767578125,0.845489501953125,-0.0622406005859375
-0.795989990234375,0.7263946533203125,0.019195556640625
-0.8193817138671875,0.7611083984375,0.049041748046875
-0.8309478759765625,0.759979248046875,-0.019805908203125
-0.8227081298828125,0.73828125,-0.1116943359375
-0.75189208984375,0.78118896484375,-0.1448822021484375
-0.6470794677734375,0.7943572998046875,-0.0617523193359375
-0.576263427734375,0.7611846923828125,-0.0167694091796875
-0.5326690673828125,0.7660064697265625,-0.00933837890625
-0.5033416748046875,0.80242919921875,-0.016326904296875
-0.5063629150390625,0.84002685546875,-0.032745361328125
-0.5641632080078125,0.8376922607421875,-0.040283203125
-0.5987701416015625,0.8399200439453125,-0.0370941162109375
-0.5682220458984375,0.8652801513671875,-0.0453033447265625
-0.5363616943359375,0.87615966796875,-0.0204315185546875
-0.5330047607421875,0.8697357177734375,-0.0564727783203125
-0.5597076416015625,0.8892059326171875,-0.0405120849609375
-0.5843963623046875,0.9394989013671876,-0.0057220458984375
-0.5791168212890625,0.8859405517578125,0.058746337890625
-0.5536041259765625,0.7416534423828125,0.02105712890625
-0.5767364501953125,0.72344970703125,0.0040740966796875
-0.5376739501953125,0.76031494140625,0.0077667236328125
-0.5075836181640625,0.8102264404296875,-0.02203369140625
-0.5152587890625,0.8250274658203125,-0.0872344970703125
-0.498504638671875,0.806427001953125,-0.1395416259765625
-0.483551025390625,0.796661376953125,-0.2400970458984375
-0.48382568359375,0.8214569091796875,-0.2149810791015625
-0.473785400390625,0.8998870849609375,-0.1653900146484375
-0.467193603515625,0.9170379638671876,-0.1494293212890625
-0.529754638671875,0.902557373046875,-0.2200927734375
-0.59136962890625,0.95367431640625,-0.267852783203125
-0.6898651123046875,0.98797607421875,-0.2484283447265625
-0.576446533203125,0.8043975830078125,-0.2641143798828125
-0.6840057373046875,0.82196044921875,-0.2645263671875
-0.6978759765625,0.810394287109375,-0.2602081298828125
-0.6821746826171875,0.8300323486328125,-0.2566680908203125
-0.6595001220703125,0.860870361328125,-0.23748779296875
-0.6567840576171875,0.8879547119140625,-0.2685394287109375
-0.6258697509765625,0.872222900390625,-0.262542724609375
-0.591461181640625,0.8598175048828125,-0.182159423828125
-0.5462799072265625,0.8650665283203125,-0.14215087890625
-0.449554443359375,0.8687896728515625,-0.1501922607421875
-0.417938232421875,0.83245849609375,-0.181732177734375
-0.3850250244140625,0.7690277099609375,-0.166656494140625
-0.431671142578125,0.7232666015625,-0.081573486328125
-0.5067596435546875,0.813568115234375,0.0184783935546875
-0.4786224365234375,0.9678192138671876,0.0332489013671875
-0.4146575927734375,0.9388885498046876,0.138916015625
-0.4936370849609375,0.8046417236328125,0.2378082275390625
-0.5359344482421875,0.7912750244140625,0.201568603515625
-0.527313232421875,0.8646392822265625,0.1586151123046875
-0.5367584228515625,0.896392822265625,0.1347808837890625
-0.5944976806640625,0.8795318603515625,0.170806884765625
-0.6478271484375,0.8560791015625,0.197509765625
-0.678009033203125,0.81536865234375,0.190826416015625
-0.6922760009765625,0.7747650146484375,0.1623992919921875
-0.70416259765625,0.7266387939453125,0.093505859375
-0.7418212890625,0.7650909423828125,0.0201568603515625
-0.73583984375,0.7733612060546875,-0.033416748046875
-0.8014068603515625,0.7997283935546875,-0.0749969482421875
-0.9041290283203124,0.99188232421875,-0.1363067626953125
-0.840850830078125,0.91461181640625,-0.1394195556640625
-0.7976226806640625,0.8035736083984375,-0.05731201171875
-0.7672576904296875,0.915771484375,-0.0194549560546875
-0.6701202392578125,1.0100555419921875,-0.04693603515625
-0.6224822998046875,0.9921722412109376,-0.1442108154296875
-0.62738037109375,0.893829345703125,-0.2004547119140625
-0.6313934326171875,0.90057373046875,-0.192169189453125
-0.5400390625,0.900421142578125,-0.1360931396484375
-0.4532928466796875,0.9043731689453124,-0.0784912109375
-0.38702392578125,0.8642730712890625,-0.0403900146484375
-0.3881683349609375,0.8289947509765625,-0.02679443359375
-0.4399871826171875,0.8653106689453125,0.02508544921875
-0.40936279296875,0.85101318359375,0.0510101318359375
-0.4755401611328125,0.9158782958984376,0.103179931640625
-0.436767578125,0.9601287841796876,0.13177490234375
-0.4735260009765625,0.843902587890625,0.0065155029296875
-0.574737548828125,0.7355499267578125,0.0576324462890625
-0.6455841064453125,0.8249969482421875,0.1251373291015625
-0.653167724609375,0.90576171875,0.129150390625
-0.6533355712890625,0.8192596435546875,0.0843658447265625
-0.6667022705078125,0.727325439453125,0.0312042236328125
-0.6822052001953125,0.72991943359375,0.0139923095703125
-0.6630706787109375,0.75103759765625,0.0051422119140625
-0.6581268310546875,0.7678985595703125,0.018341064453125
-0.682159423828125,0.795318603515625,-0.00238037109375
-0.6895294189453125,0.8170013427734375,0.055694580078125
-0.7099456787109375,0.8463592529296875,0.0960235595703125
-0.6708984375,0.851043701171875,0.0942535400390625
-0.7358551025390625,0.87200927734375,0.0799713134765625
-0.77056884765625,1.0146026611328125,0.021148681640625
-0.7566375732421875,0.980072021484375,0.036865234375
-0.76312255859375,0.801788330078125,0.0833740234375
-0.8079681396484375,0.864654541015625,0.07293701171875
-0.7276458740234375,1.015899658203125,0.0208740234375
-0.6162872314453125,0.97308349609375,-0.081024169921875
-0.6057891845703125,0.89544677734375,-0.1146392822265625
-0.561279296875,0.8682708740234375,-0.0424346923828125
-0.4380340576171875,0.86181640625,0.002685546875
-0.3328094482421875,0.7919464111328125,0.01507568359375
-0.325164794921875,0.72412109375,0.0290679931640625
-0.3312225341796875,0.6866607666015625,0.03240966796875
-0.332489013671875,0.7578277587890625,0.0533905029296875
-0.30792236328125,0.826385498046875,0.01226806640625
-0.446685791015625,0.865509033203125,-0.013031005859375
-0.5815887451171875,1.037017822265625,0.0456390380859375
-0.6050262451171875,1.1023406982421875,-0.0764007568359375
-0.6949005126953125,0.9736785888671876,-0.0784149169921875
-0.8201904296875,0.9236297607421876,-0.02655029296875
-0.9125823974609376,0.903961181640625,-0.0172576904296875
-0.9100189208984376,0.75958251953125,-0.0126953125
-0.832672119140625,0.656768798828125,0.0592498779296875
-0.691802978515625,0.6722412109375,0.08123779296875
-0.5679473876953125,0.7192230224609375,0.08184814453125
-0.455291748046875,0.737213134765625,0.0667877197265625
-0.451812744140625,0.768218994140625,0.04400634765625
-0.62939453125,0.809661865234375,-0.032623291015625
-0.7393798828125,0.85870361328125,-0.11834716796875
-0.7756195068359375,0.870849609375,-0.1816864013671875
-0.8086090087890625,0.901519775390625,-0.1736602783203125
-0.794281005859375,0.975250244140625,-0.05853271484375
-0.7253875732421875,0.9508056640625,0.0386810302734375
-0.7889251708984375,0.89898681640625,0.038177490234375
-0.8202667236328125,1.019012451171875,0.019378662109375
-0.7710418701171875,1.11517333984375,0.0814666748046875
-0.6515655517578125,1.043212890625,0.0625762939453125
-0.5024871826171875,0.9051666259765624,0.0994873046875
-0.3472137451171875,0.7790374755859375,0.1051177978515625
-0.2748870849609375,0.69769287109375,0.0812530517578125
-0.2743377685546875,0.6659088134765625,0.09027099609375
-0.3121795654296875,0.649627685546875,0.078857421875
-0.3464813232421875,0.6777801513671875,0.0627899169921875
-0.401611328125,0.727142333984375,0.0283050537109375
-0.461883544921875,0.8330535888671875,-0.0770416259765625
-0.561187744140625,0.9814453125,-0.171661376953125
-0.72222900390625,1.2091217041015625,-0.1750946044921875
-0.699920654296875,1.13232421875,-0.2351837158203125
-0.740966796875,0.8480682373046875,-0.2101898193359375
-0.856842041015625,0.7917022705078125,-0.1055145263671875
-0.848663330078125,0.7930755615234375,-0.0494537353515625
-0.7776031494140625,0.764862060546875,-0.002288818359375
-0.6810302734375,0.73260498046875,-0.0309295654296875
-0.6222991943359375,0.73980712890625,-0.0174560546875
-0.5838775634765625,0.7221832275390625,-0.04180908203125
-0.5658416748046875,0.68377685546875,0.0057373046875
-0.6234283447265625,0.7475738525390625,0.011993408203125
-0.6739349365234375,0.8075714111328125,0.02178955078125
-0.716033935546875,0.85589599609375,-0.0195159912109375
-0.70391845703125,0.8641510009765625,-0.0556182861328125
-0.6677398681640625,0.853485107421875,-0.0752410888671875
-0.71490478515625,0.9972076416015624,-0.0575103759765625
-0.6916656494140625,1.0862274169921875,-0.08428955078125
-0.6648406982421875,0.9832000732421876,-0.170135498046875
-0.7266845703125,0.847076416015625,-0.110137939453125
-0.680572509765625,0.8517608642578125,-0.0607757568359375
-0.584503173828125,0.92559814453125,-0.0770416259765625
-0.5179901123046875,0.8982086181640625,-0.106201171875
-0.4799041748046875,0.822998046875,-0.1439666748046875
-0.462188720703125,0.754974365234375,-0.1566162109375
-0.44415283203125,0.7252197265625,-0.0831146240234375
-0.42724609375,0.7324066162109375,-0.01025390625
-0.3836822509765625,0.73345947265625,0.0272674560546875
-0.3807525634765625,0.7925872802734375,0.0361175537109375
-0.3755340576171875,0.8836517333984375,0.0203399658203125
-0.4150848388671875,0.920806884765625,-0.0194549560546875
-0.5753936767578125,0.971343994140625,0.0244598388671875
-0.548431396484375,1.045440673828125,0.067840576171875
-0.51318359375,0.9817657470703124,-0.0825958251953125
-0.631805419921875,0.87640380859375,-0.0799713134765625
-0.71484375,0.906005859375,0.0258331298828125
-0.772705078125,0.9017333984375,0.09222412109375
-0.7378387451171875,0.7412872314453125,0.0449066162109375
-0.7249755859375,0.663299560546875,0.02423095703125
-0.675872802734375,0.687896728515625,-0.0128936767578125
-0.5972137451171875,0.712738037109375,0.0045928955078125
-0.563232421875,0.7358856201171875,-0.0164337158203125
-0.5727996826171875,0.8043212890625,-0.01922607421875
-0.628326416015625,0.8404693603515625,0.0121917724609375
-0.69476318359375,0.872894287109375,0.0105133056640625
-0.7158966064453125,0.8506317138671875,-0.0272979736328125
-0.7459564208984375,0.85577392578125,-0.0302734375
-0.7823333740234375,1.0518035888671875,-0.0124969482421875
-0.72442626953125,1.0428009033203125,-0.0224609375
-0.7030029296875,0.8663482666015625,-0.0609283447265625
-0.740142822265625,0.8901519775390625,-0.0235748291015625
-0.6915283203125,1.021820068359375,-0.02557373046875
-0.5614166259765625,0.9737396240234376,-0.1114654541015625
-0.5373077392578125,0.85821533203125,-0.151641845703125
-0.52691650390625,0.8186492919921875,-0.0883636474609375
-0.4337310791015625,0.82403564453125,-0.0184478759765625
-0.313446044921875,0.7701568603515625,0.0083160400390625
-0.3013763427734375,0.704376220703125,0.0412139892578125
-0.3089447021484375,0.7182464599609375,-0.006622314453125
-0.3329010009765625,0.75177001953125,0.0059661865234375
-0.392120361328125,0.7951202392578125,0.0323486328125
-0.4561004638671875,0.8343048095703125,0.0491180419921875
-0.5757598876953125,0.927215576171875,0.1089019775390625
-0.555816650390625,1.0992279052734375,0.1090087890625
-0.5164031982421875,1.0529937744140625,-0.1202850341796875
-0.6337127685546875,0.930267333984375,-0.1553497314453125
-0.7354736328125,0.928802490234375,-0.1186676025390625
-0.812744140625,0.9230499267578124,-0.024566650390625
-0.792694091796875,0.768524169921875,-0.0404205322265625
-0.753753662109375,0.70074462890625,-0.06475830078125
-0.6281585693359375,0.745849609375,-0.0673065185546875
-0.5142669677734375,0.7521209716796875,-0.0609588623046875
-0.4759674072265625,0.7240753173828125,-0.0787200927734375
-0.509857177734375,0.7403106689453125,-0.051025390625
-0.6003265380859375,0.8276214599609375,0.00244140625
-0.7039642333984375,0.90924072265625,-0.0186920166015625
-0.747039794921875,0.9022674560546876,-0.0850372314453125
-0.7901611328125,0.8674468994140625,-0.045013427734375
-0.787811279296875,1.045013427734375,0.00958251953125
-0.642578125,0.9780731201171876,-0.0306396484375
-0.7666473388671875,0.9117279052734376,0.0381927490234375
-0.81005859375,1.0008087158203125,0.00054931640625
-0.739044189453125,1.0533294677734375,-0.0204925537109375
-0.6203765869140625,1.0051727294921875,-0.04815673828125
-0.532196044921875,0.924560546875,-0.02117919921875
-0.48492431640625,0.891937255859375,0.0416412353515625
-0.41998291015625,0.825897216796875,0.1617279052734375
-0.3398284912109375,0.7440032958984375,0.272979736328125
-0.30120849609375,0.6965484619140625,0.212493896484375
-0.37457275390625,0.71636962890625,0.0091705322265625
-0.4916839599609375,0.76605224609375,-4.57763671875e-05
-0.50494384765625,0.7909393310546875,-0.0005645751953125
-0.5671539306640625,0.8155364990234375,-0.1184539794921875
-0.709716796875,0.9498443603515624,-0.05963134765625
-0.62286376953125,0.9549713134765624,0.0285186767578125
-0.5610198974609375,0.808013916015625,-0.1156158447265625
-0.68511962890625,0.82415771484375,-0.132110595703125
-0.7155914306640625,0.894378662109375,-0.141082763671875
-0.6624908447265625,0.89422607421875,-0.19061279296875
-0.6279449462890625,0.7730865478515625,-0.2564544677734375
-0.631744384765625,0.6980438232421875,-0.1988372802734375
-0.6505279541015625,0.724884033203125,-0.08233642578125
-0.6622161865234375,0.7269439697265625,0.02508544921875
-0.6789703369140625,0.758087158203125,0.1148681640625
-0.79669189453125,0.862152099609375,0.053375244140625
-0.861785888671875,0.932220458984375,-0.0386505126953125
-0.8372650146484375,0.8819122314453125,-0.0592193603515625
-0.8294830322265625,0.873443603515625,-0.0291900634765625
-0.8092193603515625,0.965301513671875,0.0079345703125
-0.7296905517578125,0.8901214599609375,-0.0225982666015625
-0.724365234375,0.7704010009765625,-0.0648651123046875
-0.7251129150390625,0.8394317626953125,-0.013397216796875
-0.671966552734375,0.9617156982421876,0.0150604248046875
-0.6179962158203125,0.930511474609375,-0.066497802734375
-0.6532135009765625,0.8260498046875,-0.0933837890625
-0.644287109375,0.7890167236328125,-0.0559234619140625
-0.5768280029296875,0.8035888671875,-0.0262298583984375
-0.5278167724609375,0.852813720703125,-0.0279998779296875
-0.4766082763671875,0.8867950439453125,-0.052215576171875
-0.43157958984375,0.895172119140625,-0.0678863525390625
-0.4304962158203125,0.94036865234375,-0.049530029296875
-0.39056396484375,0.9174957275390624,-0.0354461669921875
-0.3880462646484375,0.81097412109375,-0.0615692138671875
-0.490234375,0.843048095703125,0.004486083984375
-0.448272705078125,0.8491668701171875,0.059661865234375
-0.43414306640625,0.777740478515625,-0.03485107421875
-0.543060302734375,0.831024169921875,-0.018035888671875
-0.6234130859375,0.9294586181640624,-0.0203094482421875
-0.637054443359375,0.8967742919921875,-0.0766143798828125
-0.6420440673828125,0.7589874267578125,-0.055450439453125
-0.6579742431640625,0.715972900390625,-0.00213623046875
-0.627105712890625,0.7546234130859375,0.016265869140625
-0.6034698486328125,0.7900848388671875,-0.0024871826171875
-0.6341552734375,0.8135986328125,-0.0287322998046875
-0.688507080078125,0.840179443359375,-0.0688323974609375
-0.7634124755859375,0.8800811767578125,-0.03961181640625
-0.7774200439453125,0.875213623046875,0.0037078857421875
-0.7733306884765625,0.7988433837890625,-0.0224761962890625
-0.8690948486328125,0.9632415771484376,-0.014739990234375
-0.8174896240234375,1.0596771240234375,-0.0242767333984375
-0.731353759765625,0.893035888671875,-0.0951385498046875
-0.77752685546875,0.8311614990234375,-0.085723876953125
-0.728515625,0.9195556640625,-0.062469482421875
-0.64794921875,1.001373291015625,-0.078369140625
-0.558807373046875,0.9656219482421876,-0.13189697265625
-0.5561981201171875,0.9063873291015624,-0.1645355224609375
-0.5528717041015625,0.8936767578125,-0.17962646484375
-0.4585723876953125,0.8719024658203125,-0.118316650390625
-0.408233642578125,0.810577392578125,-0.043243408203125
-0.36895751953125,0.73992919921875,0.0092620849609375
-0.370391845703125,0.722137451171875,-0.019134521484375
-0.351898193359375,0.7678985595703125,-0.0347747802734375
-0.3568267822265625,0.778533935546875,0.007568359375
-0.446990966796875,0.7510528564453125,0.0345306396484375
-0.547943115234375,0.93292236328125,0.0990753173828125
-0.556640625,1.011871337890625,0.054656982421875
-0.608245849609375,0.9106597900390624,-0.05902099609375
-0.708251953125,0.7720184326171875,-0.047882080078125
-0.818634033203125,0.858917236328125,-0.0008697509765625
-0.8845672607421875,0.930206298828125,0.0048980712890625
-0.8214569091796875,0.8339691162109375,0.0070953369140625
-0.7826080322265625,0.764434814453125,-0.047332763671875
-0.6857757568359375,0.7339019775390625,0.01641845703125
-0.6554412841796875,0.7212982177734375,0.0482635498046875
-0.6372528076171875,0.722625732421875,0.1130828857421875
-0.6709747314453125,0.7684173583984375,0.063079833984375
-0.7579193115234375,0.775543212890625,-0.0468597412109375
-0.7873992919921875,0.7748870849609375,-0.0257568359375
-0.726837158203125,0.79608154296875,-0.040924072265625
-0.666046142578125,0.8468475341796875,-0.0731201171875
-0.6195831298828125,0.9191131591796876,-0.1027984619140625
-0.582672119140625,0.9345550537109376,-0.1141204833984375
-0.5488128662109375,0.8604736328125,-0.1169586181640625
-0.5007781982421875,0.7397308349609375,-0.0724334716796875
-0.4394683837890625,0.720703125,-0.0414886474609375
-0.3888092041015625,0.802703857421875,-0.119903564453125
-0.366302490234375,0.854400634765625,-0.196990966796875
-0.412689208984375,0.87042236328125,-0.2118988037109375
-0.4910736083984375,0.8225860595703125,-0.2094879150390625
-0.566680908203125,0.82562255859375,-0.202484130859375
-0.61480712890625,0.862579345703125,-0.1831817626953125
-0.628997802734375,0.8992156982421875,-0.12359619140625
-0.682525634765625,0.933502197265625,-0.128204345703125
-0.697845458984375,0.9051361083984376,-0.1721954345703125
-0.71551513671875,0.8929901123046875,-0.1544189453125
-0.702545166015625,0.9084930419921876,-0.1507415771484375
-0.624481201171875,0.9534912109375,-0.183929443359375
-0.5417938232421875,0.96307373046875,-0.1946563720703125
-0.50640869140625,0.9116363525390624,-0.2011260986328125
-0.5245208740234375,0.8759002685546875,-0.178863525390625
-0.5272216796875,0.876922607421875,-0.163787841796875
-0.530517578125,0.87109375,-0.142852783203125
-0.4990081787109375,0.8463897705078125,-0.04779052734375
-0.5753326416015625,0.8041534423828125,-0.098541259765625
-0.603759765625,0.73785400390625,-0.077484130859375
-0.66717529296875,0.77813720703125,-0.0635986328125
-0.6104888916015625,0.7252349853515625,-0.1087646484375
-0.546356201171875,0.7265472412109375,-0.03765869140625
-0.47674560546875,0.8261871337890625,-0.0383453369140625
-0.3835296630859375,0.8675537109375,0.031158447265625
-0.354248046875,0.84259033203125,0.1432952880859375
-0.421722412109375,0.8673248291015625,0.1846160888671875
-0.517486572265625,0.8723297119140625,0.169158935546875
-0.58270263671875,0.885986328125,0.1710968017578125
-0.6018218994140625,0.867431640625,0.1301422119140625
-0.6072845458984375,0.860931396484375,0.0688629150390625
-0.6782684326171875,0.8711090087890625,0.071502685546875
-0.7266387939453125,0.820159912109375,0.107452392578125
-0.7610015869140625,0.7647247314453125,0.0899810791015625
-0.7348480224609375,0.753753662109375,0.0653533935546875
-0.7269287109375,0.8018035888671875,-0.00665283203125
-0.7102508544921875,0.79449462890625,-0.066253662109375
-0.78497314453125,0.785247802734375,-0.081390380859375
-0.835784912109375,0.845428466796875,-0.0562591552734375
-0.863861083984375,0.9506378173828124,-0.046295166015625
-0.78704833984375,0.828399658203125,-0.0914459228515625
-0.833465576171875,0.9451751708984376,-0.118499755859375
-0.8327789306640625,1.0880279541015625,-0.117919921875
-0.7579498291015625,1.1325836181640625,-0.1467742919921875
-0.645751953125,1.0296630859375,-0.1814727783203125
-0.5236358642578125,0.9625701904296876,-0.2027587890625
-0.3836822509765625,0.874053955078125,-0.1603546142578125
-0.3093109130859375,0.7736358642578125,-0.0999755859375
-0.24688720703125,0.6851348876953125,-0.0255279541015625
-0.2591552734375,0.6763153076171875,-0.0267333984375
-0.3379974365234375,0.7360992431640625,-0.0202178955078125
-0.4299163818359375,0.828704833984375,0.0964202880859375
-0.4958953857421875,0.899627685546875,0.18011474609375
-0.6407470703125,0.9933013916015624,0.174346923828125
-0.71160888671875,1.1567840576171875,0.079193115234375
-0.7216949462890625,1.156707763671875,-0.0622100830078125
-0.7093048095703125,0.901641845703125,-0.0377960205078125
-0.799224853515625,0.8393096923828125,0.0658111572265625
-0.879425048828125,0.8636474609375,0.051300048828125
-0.847869873046875,0.76947021484375,0.0360870361328125
-0.8135833740234375,0.6682891845703125,0.0003204345703125
-0.7198638916015625,0.699981689453125,-0.0471649169921875
-0.5960693359375,0.7114105224609375,-0.0314788818359375
-0.5135650634765625,0.7025146484375,0.002471923828125
-0.5286712646484375,0.728302001953125,-0.00811767578125
-0.577301025390625,0.79132080078125,-0.004486083984375
-0.668609619140625,0.8537750244140625,0.0067901611328125
-0.7404937744140625,0.878265380859375,-0.0341796875
-0.7501678466796875,0.887939453125,-0.0601043701171875
-0.765472412109375,0.9794921875,-0.030517578125
-0.7521514892578125,1.0397186279296875,0.0016326904296875
-0.68939208984375,0.8891143798828125,-0.0517730712890625
-0.7424774169921875,0.8663482666015625,-0.0926361083984375
-0.7381439208984375,0.96673583984375,-0.113311767578125
-0.70123291015625,1.0372467041015625,-0.062744140625
-0.5429840087890625,0.9130859375,-0.02447509765625
-0.5067138671875,0.7919464111328125,-0.060638427734375
-0.4500885009765625,0.748687744140625,-0.0804901123046875
-0.3551025390625,0.7288665771484375,0.0024566650390625
-0.29791259765625,0.7051849365234375,0.0545654296875
-0.3215179443359375,0.7158203125,0.0941619873046875
-0.384857177734375,0.7830352783203125,0.0542144775390625
-0.436614990234375,0.835174560546875,0.0341339111328125
-0.5008392333984375,0.8614959716796875,0.0265045166015625
-0.608428955078125,0.89666748046875,0.0603179931640625
-0.6909027099609375,1.047821044921875,0.086517333984375
-0.66021728515625,0.934539794921875,-0.0026092529296875
-0.7643890380859375,0.8711395263671875,-0.0268096923828125
-0.8446502685546875,0.9343109130859376,-0.0906219482421875
-0.8667755126953125,0.8359222412109375,-0.0840301513671875
-0.856689453125,0.692779541015625,-0.0841522216796875
-0.7542724609375,0.6566314697265625,-0.042205810546875
-0.620574951171875,0.725860595703125,-0.0153350830078125
-0.510040283203125,0.7419891357421875,-0.0530548095703125
-0.5023040771484375,0.752410888671875,-0.1251983642578125
-0.5755157470703125,0.7752838134765625,-0.12353515625
-0.6542510986328125,0.7803802490234375,-0.0362548828125
-0.74127197265625,0.787872314453125,0.0048065185546875
-0.766845703125,0.8096160888671875,-0.0231475830078125
-0.7868804931640625,0.8510284423828125,-0.0487213134765625
-0.8149261474609375,1.0384521484375,-0.1284332275390625
-0.7675628662109375,1.0661163330078125,-0.1832122802734375
-0.671051025390625,0.9011688232421876,-0.1568450927734375
-0.702117919921875,0.928924560546875,-0.1370086669921875
-0.64398193359375,0.945526123046875,-0.18511962890625
-0.5614013671875,0.89227294921875,-0.1756591796875
-0.5647125244140625,0.7941131591796875,-0.1445465087890625
-0.5941925048828125,0.763671875,-0.128082275390625
-0.5503692626953125,0.78265380859375,-0.1230926513671875
-0.4829254150390625,0.7632598876953125,-0.0948638916015625
-0.455047607421875,0.7953033447265625,-0.069580078125
-0.4332427978515625,0.8367767333984375,-0.09490966796875
-0.4260406494140625,0.8750762939453125,-0.09637451171875
-0.4124755859375,0.8938140869140625,-0.0430145263671875
-0.4272613525390625,0.796905517578125,0.003387451171875
-0.5855560302734375,0.8957366943359375,0.0681915283203125
-0.48785400390625,1.0016632080078125,0.074462890625
-0.4917144775390625,0.802398681640625,-0.087677001953125
-0.6460418701171875,0.860107421875,-0.06060791015625
-0.6939239501953125,0.9568634033203124,-0.0011138916015625
-0.7354888916015625,0.8531341552734375,-0.0257415771484375
-0.7565460205078125,0.71551513671875,-0.02178955078125
-0.752349853515625,0.70098876953125,0.0018157958984375
-0.6965179443359375,0.7393798828125,-0.021209716796875
-0.62646484375,0.72369384765625,-0.0619354248046875
-0.602691650390625,0.72344970703125,-0.0487518310546875
-0.629364013671875,0.8099822998046875,-0.024017333984375
-0.6843414306640625,0.87933349609375,-0.0378875732421875
-0.751708984375,0.880645751953125,-0.0586395263671875
-0.796539306640625,0.8324737548828125,-0.0511322021484375
-0.8813018798828125,0.96624755859375,-0.0291900634765625
-0.7921600341796875,0.986907958984375,-0.05731201171875
-0.7069854736328125,0.8112640380859375,-0.082794189453125
-0.7905731201171875,0.8468017578125,-0.055267333984375
-0.7617645263671875,0.971038818359375,-0.063507080078125
-0.6776885986328125,1.0249481201171875,-0.1248931884765625
-0.605072021484375,0.9359283447265624,-0.1858062744140625
-0.5804901123046875,0.8510589599609375,-0.1793975830078125
-0.5151214599609375,0.82110595703125,-0.1343841552734375
-0.40167236328125,0.80731201171875,-0.059234619140625
-0.3062896728515625,0.7716522216796875,-0.036865234375
-0.283599853515625,0.7316436767578125,0.00653076171875
-0.3285064697265625,0.7527923583984375,0.03955078125
-0.3395233154296875,0.852569580078125,0.047821044921875
-0.3846588134765625,0.8628387451171875,-0.0066680908203125
-0.5670166015625,1.03363037109375,0.0462188720703125
-0.57464599609375,1.093353271484375,-0.037261962890625
-0.6040496826171875,0.92108154296875,-0.1024322509765625
-0.75726318359375,0.8936309814453125,-0.026214599609375
-0.794342041015625,0.8974761962890625,0.0133056640625
-0.7788848876953125,0.8081207275390625,-0.01275634765625
-0.7464141845703125,0.7037353515625,0.006256103515625
-0.6856536865234375,0.7137603759765625,0.027923583984375
-0.590545654296875,0.7576446533203125,-0.015716552734375
-0.5404815673828125,0.750885009765625,-0.042388916015625
-0.5550079345703125,0.7675933837890625,-0.04791259765625
-0.5711212158203125,0.7896270751953125,-0.0543060302734375
-0.6912689208984375,0.8596038818359375,-0.0550689697265625
-0.734649658203125,0.8550872802734375,-0.0347442626953125
-0.74652099609375,0.8292999267578125,-0.0128326416015625
-0.7337493896484375,0.9651336669921876,-0.0342864990234375
-0.6660919189453125,0.982086181640625,-0.0669708251953125
-0.59051513671875,0.79443359375,-0.147003173828125
-0.7222747802734375,0.83441162109375,-0.116455078125
-0.7149200439453125,0.9264068603515624,-0.044158935546875
-0.6699981689453125,0.9130401611328124,-0.1110687255859375
-0.6480560302734375,0.826690673828125,-0.1746063232421875
-0.6309356689453125,0.763671875,-0.096893310546875
-0.6020660400390625,0.782196044921875,0.0033111572265625
-0.527008056640625,0.8056640625,0.041015625
-0.4414520263671875,0.817840576171875,0.0482940673828125
-0.40545654296875,0.8159332275390625,-0.0011444091796875
-0.393463134765625,0.80145263671875,-0.0308074951171875
-0.4207916259765625,0.864990234375,0.0142974853515625
-0.4068603515625,0.852630615234375,-0.0034637451171875
-0.552398681640625,0.96221923828125,0.0077972412109375
-0.5181732177734375,0.9793243408203124,-0.0955047607421875
-0.5144195556640625,0.8345947265625,-0.1697845458984375
-0.5714569091796875,0.72247314453125,-0.09185791015625
-0.6717071533203125,0.8126068115234375,-0.0495452880859375
-0.712646484375,0.8743438720703125,-0.0821075439453125
-0.6917572021484375,0.7685699462890625,-0.1050872802734375
-0.68798828125,0.676239013671875,-0.069244384765625
-0.649627685546875,0.6872100830078125,-0.021148681640625
-0.561553955078125,0.7039031982421875,0.0141448974609375
-0.5334320068359375,0.7663726806640625,0.04071044921875
-0.59344482421875,0.8416748046875,0.04376220703125
-0.6927032470703125,0.8313140869140625,-0.0435638427734375
-0.7737884521484375,0.80230712890625,-0.075958251953125
-0.8113555908203125,0.8104248046875,-0.0628814697265625
-0.810394287109375,0.8304595947265625,-0.0413360595703125
-0.8388671875,1.010589599609375,-0.1045379638671875
-0.7992706298828125,0.999114990234375,-0.181732177734375
-0.7222900390625,0.8072662353515625,-0.1847686767578125
-0.7672576904296875,0.788116455078125,-0.11651611328125
-0.7584075927734375,0.882904052734375,-0.0993194580078125
-0.6545562744140625,0.8746185302734375,-0.15692138671875
-0.6270599365234375,0.80926513671875,-0.2402496337890625
-0.6571807861328125,0.8038177490234375,-0.2432403564453125
-0.609832763671875,0.82952880859375,-0.177398681640625
-0.5533905029296875,0.8291473388671875,-0.0944976806640625
-0.495880126953125,0.85125732421875,-0.08868408203125
-0.391998291015625,0.861114501953125,-0.126861572265625
-0.3783721923828125,0.8654022216796875,-0.1157684326171875
-0.361419677734375,0.8552703857421875,-0.0919189453125
-0.3875732421875,0.8332977294921875,-0.046539306640625
-0.45458984375,1.02447509765625,0.054107666015625
-0.392181396484375,0.844268798828125,0.0070343017578125
-0.5575408935546875,0.6850433349609375,0.0908355712890625
-0.63848876953125,0.772705078125,0.1894073486328125
-0.615753173828125,0.92779541015625,0.1435089111328125
-0.597686767578125,0.8711395263671875,-0.0206146240234375
-0.6154327392578125,0.7996673583984375,-0.05450439453125
-0.61822509765625,0.8061981201171875,-0.0689544677734375
-0.5811767578125,0.8060302734375,-0.003936767578125
-0.615997314453125,0.8121185302734375,0.03778076171875
-0.6672821044921875,0.8538818359375,0.044036865234375
-0.728179931640625,0.8315277099609375,0.0147247314453125
-0.8346710205078125,0.8465576171875,0.00616455078125
-0.87274169921875,0.8518218994140625,-0.0296478271484375
-0.8433990478515625,0.822601318359375,-0.0394287109375
-0.8238677978515625,0.960845947265625,-0.0474090576171875
-0.7473602294921875,0.9873199462890624,-0.090850830078125
-0.66839599609375,0.839813232421875,-0.10845947265625
-0.7437896728515625,0.8486175537109375,-0.04376220703125
-0.732330322265625,0.962432861328125,-0.038665771484375
-0.6762237548828125,1.023895263671875,-0.1153717041015625
-0.6200103759765625,0.916717529296875,-0.1651763916015625
-0.6361541748046875,0.8426666259765625,-0.1725616455078125
-0.5727386474609375,0.853057861328125,-0.136505126953125
-0.458251953125,0.8579864501953125,-0.0882415771484375
-0.3433837890625,0.82623291015625,-0.0820465087890625
-0.285888671875,0.7863006591796875,-0.0748748779296875
-0.3263397216796875,0.8098297119140625,-0.016845703125
-0.2870635986328125,0.87445068359375,0.0281829833984375
-0.324615478515625,0.877227783203125,0.03131103515625
-0.49884033203125,1.0538330078125,0.1218414306640625
-0.513153076171875,1.120147705078125,6.103515625e-05
-0.57659912109375,0.9416046142578124,-0.1130218505859375
-0.7185211181640625,0.841156005859375,0.0566864013671875
-0.77874755859375,0.8829498291015625,0.18505859375
-0.7633209228515625,0.8973388671875,0.1117706298828125
-0.6832427978515625,0.7758026123046875,-0.0190887451171875
-0.6579132080078125,0.711761474609375,-0.0849456787109375
-0.5869598388671875,0.7279815673828125,-0.1153411865234375
-0.523956298828125,0.740386962890625,-0.0359649658203125
-0.5306396484375,0.7698211669921875,-0.0074310302734375
-0.54559326171875,0.7877349853515625,-0.0205230712890625
-0.6546630859375,0.831695556640625,-0.0606842041015625
-0.738739013671875,0.8907470703125,-0.06884765625
-0.798248291015625,0.8362884521484375,-0.0745697021484375
-0.9019012451171876,0.9505462646484376,-0.0724334716796875
-0.8219757080078125,1.0033111572265625,-0.0211029052734375
-0.74005126953125,0.8956756591796875,0.0028076171875
-0.7909088134765625,0.9768218994140624,-0.0823974609375
-0.7556610107421875,1.049346923828125,-0.1046142578125
-0.65753173828125,1.051849365234375,-0.14422607421875
-0.5705413818359375,0.9683380126953124,-0.180999755859375
-0.5599212646484375,0.92626953125,-0.1644744873046875
-0.499298095703125,0.894989013671875,-0.134002685546875
-0.417938232421875,0.8250732421875,-0.110443115234375
-0.3667755126953125,0.776947021484375,-0.070098876953125
-0.3287811279296875,0.7597503662109375,-0.0223846435546875
-0.2989349365234375,0.762542724609375,0.00482177734375
-0.321075439453125,0.7623291015625,-0.01995849609375
-0.404876708984375,0.7642364501953125,-0.0163726806640625
-0.511260986328125,0.907867431640625,0.0677032470703125
-0.4887542724609375,1.02777099609375,0.0294647216796875
-0.5918426513671875,0.96112060546875,-0.07562255859375
-0.69622802734375,0.7740478515625,0.05938720703125
-0.7523193359375,0.7809906005859375,0.2254486083984375
-0.8501129150390625,0.93243408203125,0.18890380859375
-0.878448486328125,0.97900390625,0.17791748046875
-0.891998291015625,0.8470458984375,0.055389404296875
-0.8864288330078125,0.7217254638671875,-0.048614501953125
-0.85272216796875,0.6426544189453125,0.0420989990234375
-0.8050689697265625,0.548919677734375,0.1853790283203125
-0.754241943359375,0.53167724609375,0.1006317138671875
-0.819793701171875,0.5981903076171875,0.0538177490234375
-0.80255126953125,0.631134033203125,-0.0090789794921875
-0.6629486083984375,0.6726226806640625,0.057373046875
-0.613494873046875,0.7154541015625,0.1226348876953125
-0.7850189208984375,0.7672882080078125,-0.012176513671875
-0.78912353515625,0.765594482421875,-0.0947113037109375
-0.681060791015625,0.6525421142578125,-0.08880615234375
-0.56884765625,0.7108917236328125,-0.0928802490234375
-0.5214385986328125,0.76348876953125,-0.2141876220703125
-0.519989013671875,0.820343017578125,-0.3384552001953125
-0.553955078125,0.78851318359375,-0.4345855712890625
-0.6156005859375,0.8204803466796875,-0.4740142822265625
-0.539642333984375,0.7109527587890625,-0.24407958984375
-0.641510009765625,0.7035369873046875,-0.3114471435546875
-0.7489776611328125,0.732391357421875,-0.3132171630859375
-0.7945556640625,0.72760009765625,-0.2873382568359375
-0.83587646484375,0.7272186279296875,-0.22607421875
-0.8488311767578125,0.7204742431640625,-0.189178466796875
-0.8595123291015625,0.7098236083984375,-0.1744232177734375
-0.8778839111328125,0.7061004638671875,-0.2308807373046875
-0.86590576171875,0.7293548583984375,-0.186920166015625
-0.8231658935546875,0.77227783203125,-0.209075927734375
-0.7934722900390625,0.808319091796875,-0.2698974609375
-0.725250244140625,0.7731475830078125,-0.2773590087890625
-0.6726837158203125,0.727264404296875,-0.2181549072265625
-0.62994384765625,0.6818389892578125,-0.166168212890625
-0.63104248046875,0.71270751953125,-0.1563873291015625
-0.59100341796875,0.7936248779296875,-0.1756439208984375
-0.526458740234375,0.7371673583984375,-0.1403350830078125
-0.5578765869140625,0.67230224609375,-0.045074462890625
-0.5707550048828125,0.6430816650390625,-0.0409088134765625
-0.5841064453125,0.6865386962890625,-0.0016937255859375
-0.578369140625,0.783782958984375,0.0087738037109375
-0.6016998291015625,0.828643798828125,0.024169921875
-0.6223602294921875,0.8119049072265625,0.0209197998046875
-0.6526947021484375,0.7543487548828125,0.066986083984375
-0.6664581298828125,0.729461669921875,0.1005096435546875
-0.692413330078125,0.74041748046875,0.1073760986328125
-0.7303009033203125,0.774932861328125,0.067535400390625
-0.7857818603515625,0.7666168212890625,0.0021514892578125
-0.829833984375,0.732757568359375,-0.0305023193359375
-0.9270782470703124,0.786285400390625,-0.0276641845703125
-0.8940277099609375,0.7600555419921875,-0.021514892578125
-0.9139862060546876,0.7105255126953125,-0.0677032470703125
-0.9462890625,0.750213623046875,-0.142303466796875
-0.9266815185546876,0.8162841796875,-0.1567230224609375
-0.791168212890625,0.719207763671875,-0.1353759765625
-0.8001251220703125,0.6876373291015625,-0.1078948974609375
-0.7891387939453125,0.7727508544921875,-0.0831451416015625
-0.720855712890625,0.832977294921875,-0.143798828125
-0.663421630859375,0.7733306884765625,-0.2119140625
-0.6673583984375,0.7181243896484375,-0.2205810546875
-0.667083740234375,0.7305450439453125,-0.139495849609375
-0.6112213134765625,0.75927734375,-0.07244873046875
-0.543121337890625,0.7504425048828125,-0.1214752197265625
-0.5051727294921875,0.737518310546875,-0.1489715576171875
-0.5497283935546875,0.822052001953125,-0.0803680419921875
-0.526153564453125,0.8679351806640625,-0.0593719482421875
-0.5531463623046875,0.820220947265625,-0.03045654296875
-0.681427001953125,0.889617919921875,0.050872802734375
-0.666168212890625,0.834228515625,0.020416259765625
-0.6605682373046875,0.7657012939453125,-0.0815582275390625
-0.660614013671875,0.7290191650390625,0.0107269287109375
-0.70977783203125,0.769561767578125,0.053955078125
-0.7340545654296875,0.767578125,-0.0041961669921875
-0.6849822998046875,0.66363525390625,-0.052154541015625
-0.6383056640625,0.6033782958984375,-0.0444793701171875
-0.5912933349609375,0.641754150390625,-0.008544921875
-0.590118408203125,0.6769866943359375,0.00146484375
-0.6379547119140625,0.697845458984375,0.0015869140625
-0.7066802978515625,0.7451171875,-0.0228729248046875
-0.8014984130859375,0.78558349609375,-0.0457916259765625
-0.9080657958984376,0.8126983642578125,-0.04229736328125
-0.9453582763671876,0.7665557861328125,-0.0343780517578125
-0.966949462890625,0.757904052734375,-0.0312652587890625
-0.951171875,0.930694580078125,-0.0504150390625
-0.77685546875,0.77947998046875,-0.044525146484375
-0.8560943603515625,0.7475433349609375,-0.0144195556640625
-0.8520965576171875,0.8501739501953125,-0.0037994384765625
-0.7911834716796875,0.920806884765625,-0.06072998046875
-0.7181243896484375,0.83978271484375,-0.1126861572265625
-0.6807861328125,0.7859344482421875,-0.075714111328125
-0.596893310546875,0.797149658203125,0.00897216796875
-0.489532470703125,0.769683837890625,0.03857421875
-0.429595947265625,0.72125244140625,0.026214599609375
-0.39801025390625,0.73297119140625,-0.02276611328125
-0.35308837890625,0.7139434814453125,-0.02850341796875
-0.3752288818359375,0.7514801025390625,-0.020263671875
-0.42822265625,0.7660369873046875,-0.0635223388671875
-0.62664794921875,0.8607177734375,0.009857177734375
-0.6373138427734375,0.9975738525390624,-0.0278167724609375
-0.679412841796875,1.0391387939453125,-0.1634521484375
-0.74468994140625,0.9309539794921876,-0.257049560546875
-0.8527069091796875,0.88763427734375,-0.2085418701171875
-0.9269256591796876,0.8758087158203125,-0.1565399169921875
-0.8621826171875,0.6854095458984375,-0.0709686279296875
-0.7514190673828125,0.5958099365234375,0.0692138671875
-0.5688934326171875,0.6374664306640625,0.15533447265625
-0.54962158203125,0.583648681640625,0.0392608642578125
-0.7528839111328125,0.566864013671875,-0.1861419677734375
-0.9104156494140624,0.6219482421875,-0.227874755859375
-1.0440521240234375,0.7519683837890625,-0.25469970703125
-1.0590972900390625,0.8358154296875,-0.2453765869140625
-1.0793304443359375,0.85577392578125,-0.0648040771484375
-0.9006500244140625,0.8291168212890625,0.2046051025390625
-0.8938446044921875,1.0435028076171875,0.0420989990234375
-0.849578857421875,1.0772857666015625,-0.0792083740234375
-0.73028564453125,0.8145294189453125,-0.0394134521484375
-0.774810791015625,0.788665771484375,0.0485687255859375
-0.76971435546875,0.9097747802734376,0.09515380859375
-0.6758270263671875,0.884857177734375,0.0178070068359375
-0.5969085693359375,0.7716827392578125,-0.095367431640625
-0.5583648681640625,0.681060791015625,-0.1174163818359375
-0.4644622802734375,0.646759033203125,0.003997802734375
-0.3724822998046875,0.6332550048828125,0.1262054443359375
-0.3521728515625,0.6191864013671875,0.138275146484375
-0.4283447265625,0.6449127197265625,0.140045166015625
-0.43731689453125,0.7141265869140625,0.1094512939453125
-0.54638671875,0.8289642333984375,0.014739990234375
-0.7178192138671875,0.89422607421875,-0.2272491455078125
-0.9138336181640624,0.9976806640625,-0.29876708984375
-0.9131927490234376,1.00494384765625,-0.2402496337890625
-0.8007965087890625,0.796630859375,-0.18975830078125
-0.8442230224609375,0.6782073974609375,-0.07989501953125
-0.8729705810546875,0.6964569091796875,-0.016143798828125
-0.913299560546875,0.7185821533203125,-0.08599853515625
-0.8825836181640625,0.6456451416015625,-0.1682281494140625
-0.8134765625,0.6005706787109375,-0.14556884765625
-0.7015380859375,0.6258087158203125,-0.0457611083984375
-0.6280517578125,0.5947723388671875,-0.0245208740234375
-0.626495361328125,0.59588623046875,-0.02557373046875
-0.6877899169921875,0.666351318359375,0.014739990234375
-0.8023834228515625,0.7690582275390625,-0.057525634765625
-0.8715972900390625,0.8626251220703125,-0.0785369873046875
-0.8766937255859375,0.881256103515625,-0.15911865234375
-0.9364013671875,0.970367431640625,-0.177032470703125
-0.8875579833984375,1.02862548828125,-0.136749267578125
-0.7852630615234375,0.94354248046875,-0.146636962890625
-0.70208740234375,0.7617034912109375,-0.1306304931640625
-0.74188232421875,0.8042449951171875,-0.134246826171875
-0.72125244140625,0.9004364013671875,-0.1176300048828125
-0.6129608154296875,0.8626708984375,-0.1468658447265625
-0.567901611328125,0.7767181396484375,-0.1846160888671875
-0.499114990234375,0.7522735595703125,-0.2086639404296875
-0.4118499755859375,0.7146148681640625,-0.1497039794921875
-0.387359619140625,0.6782989501953125,-0.0571441650390625
-0.372802734375,0.647125244140625,0.007171630859375
-0.3954315185546875,0.650177001953125,0.03997802734375
-0.4872894287109375,0.7800140380859375,0.032928466796875
-0.5287933349609375,0.844512939453125,0.0244140625
-0.6851043701171875,0.928863525390625,0.032867431640625
-0.775604248046875,1.0887298583984375,0.0167388916015625
-0.734039306640625,0.984161376953125,-0.102508544921875
-0.71234130859375,0.7770233154296875,-0.1092071533203125
-0.80181884765625,0.763763427734375,0.0093841552734375
-0.8525543212890625,0.7904510498046875,0.0426177978515625
-0.84454345703125,0.7098388671875,-0.011199951171875
-0.7940521240234375,0.629180908203125,-0.049224853515625
-0.741668701171875,0.6481170654296875,-0.09912109375
-0.6819610595703125,0.6346588134765625,-0.0595550537109375
-0.6750946044921875,0.6176910400390625,-0.027252197265625
-0.66778564453125,0.671142578125,-0.0178985595703125
-0.714752197265625,0.6832122802734375,-0.1170501708984375
-0.80303955078125,0.7224578857421875,-0.1403045654296875
-0.7962188720703125,0.757720947265625,-0.1116485595703125
-0.7948760986328125,0.7687835693359375,-0.1371917724609375
-0.883148193359375,0.956268310546875,-0.1690216064453125
-0.8496551513671875,1.03582763671875,-0.1989898681640625
-0.7614593505859375,0.825164794921875,-0.2058868408203125
-0.8209991455078125,0.7253570556640625,-0.1623077392578125
-0.8123016357421875,0.8161468505859375,-0.109527587890625
-0.720977783203125,0.9437408447265624,-0.13470458984375
-0.59564208984375,0.8769073486328125,-0.17401123046875
-0.5099639892578125,0.7758331298828125,-0.1973876953125
-0.4623870849609375,0.7364959716796875,-0.1735687255859375
-0.4011688232421875,0.71270751953125,-0.138397216796875
-0.3923187255859375,0.6871185302734375,-0.08673095703125
-0.369354248046875,0.6620025634765625,-0.051422119140625
-0.3991851806640625,0.6484832763671875,-0.059173583984375
-0.4553680419921875,0.7507781982421875,-0.05230712890625
-0.4976959228515625,0.822296142578125,-0.0647125244140625
-0.6033172607421875,0.873809814453125,-0.0794677734375
-0.6955718994140625,1.071258544921875,-0.053863525390625
-0.7114105224609375,1.0914764404296875,-0.1771392822265625
-0.70751953125,0.8838043212890625,-0.2205657958984375
-0.8162841796875,0.82684326171875,-0.2232666015625
-0.869140625,0.807281494140625,-0.2475433349609375
-0.9073638916015624,0.7918701171875,-0.2823333740234375
-0.8275909423828125,0.7191162109375,-0.288543701171875
-0.6832733154296875,0.71588134765625,-0.2145233154296875
-0.5706329345703125,0.6984405517578125,-0.1444091796875
-0.51373291015625,0.660003662109375,-0.1281890869140625
-0.503143310546875,0.6661224365234375,-0.097930908203125
-0.539306640625,0.7398834228515625,-0.044952392578125
-0.7013702392578125,0.8364410400390625,-0.023193359375
-0.81903076171875,0.8300323486328125,-0.0912628173828125
-0.838470458984375,0.767181396484375,-0.1260528564453125
-0.809906005859375,0.7677154541015625,-0.10699462890625
-0.8196258544921875,0.9403076171875,-0.0880584716796875
-0.7700347900390625,1.001861572265625,-0.098724365234375
-0.689483642578125,0.7742462158203125,-0.1009521484375
-0.7913665771484375,0.75244140625,-0.0345306396484375
-0.8409576416015625,0.93865966796875,-0.0077972412109375
-0.7572479248046875,1.054595947265625,-0.02392578125
-0.6523895263671875,0.907012939453125,-0.1194305419921875
-0.5937042236328125,0.7935943603515625,-0.134735107421875
-0.472930908203125,0.771148681640625,-0.026824951171875
-0.36956787109375,0.7214202880859375,0.042388916015625
-0.349090576171875,0.6753692626953125,0.0464630126953125
-0.350555419921875,0.6744384765625,0.025970458984375
-0.3369140625,0.6853485107421875,0.0417938232421875
-0.4132080078125,0.7655487060546875,0.0372161865234375
-0.5471038818359375,0.8520660400390625,-0.118438720703125
-0.7125396728515625,0.9474029541015624,-0.2632904052734375
-0.751190185546875,1.060089111328125,-0.372528076171875
-0.67413330078125,0.99298095703125,-0.5056610107421875
-0.6762542724609375,0.9222259521484376,-0.5021209716796875
-0.7625732421875,0.8909759521484375,-0.3987274169921875
-0.771820068359375,0.838775634765625,-0.4599609375
-0.68963623046875,0.6790008544921875,-0.5242462158203125
-0.65020751953125,0.554962158203125,-0.42303466796875
-0.6084136962890625,0.597564697265625,-0.2627410888671875
-0.6010589599609375,0.723541259765625,-0.237030029296875
-0.56365966796875,0.7523651123046875,-0.20428466796875
-0.5885162353515625,0.764617919921875,-0.147247314453125
-0.6121978759765625,0.7622833251953125,-0.1802978515625
-0.6826629638671875,0.7422027587890625,-0.31353759765625
-0.770416259765625,0.7449798583984375,-0.4080810546875
-0.807403564453125,0.7016448974609375,-0.4022369384765625
-0.7986907958984375,0.683380126953125,-0.39520263671875
-0.8596343994140625,0.8476104736328125,-0.4380035400390625
-0.848968505859375,0.93878173828125,-0.51531982421875
-0.77972412109375,0.69940185546875,-0.65435791015625
-0.808074951171875,0.6045379638671875,-0.7512359619140625
-0.83001708984375,0.803741455078125,-0.683929443359375
-0.8144989013671875,0.962921142578125,-0.64117431640625
-0.756195068359375,0.8429412841796875,-0.7575225830078125
-0.6684417724609375,0.7231292724609375,-0.92041015625
-0.6268463134765625,0.6705474853515625,-1.040008544921875
-0.64495849609375,0.5834503173828125,-1.1191558837890625
-0.6079254150390625,0.565521240234375,-1.2611083984375
-0.465057373046875,0.5959930419921875,-1.22265625
-0.3854217529296875,0.5583038330078125,-1.2584381103515625
-0.3327484130859375,0.581085205078125,-1.2103424072265625
-0.1526947021484375,0.5489501953125,-1.0892486572265625
0.037017822265625,0.360198974609375,-0.97186279296875
-0.0226287841796875,0.260040283203125,-0.8236846923828125
-0.1510162353515625,0.1285552978515625,-0.6042938232421875
-0.253662109375,0.1929931640625,-0.648681640625
-0.1383209228515625,0.1427459716796875,-0.715972900390625
-0.216278076171875,0.128631591796875,-0.670562744140625
-0.2547760009765625,0.106231689453125,-0.6117095947265625
-0.13909912109375,0.0814056396484375,-0.6707305908203125
0.0081634521484375,-0.0813140869140625,-0.672698974609375
0.03009033203125,-0.22515869140625,-0.6091766357421875
0.009002685546875,-0.2313079833984375,-0.6287689208984375
0.0256500244140625,-0.329742431640625,-0.7780914306640625
-0.008819580078125,-0.4011383056640625,-0.803436279296875
0.1499176025390625,-0.249908447265625,-0.7877960205078125
0.382537841796875,-0.329681396484375,-0.7006072998046875
0.079986572265625,-0.4749298095703125,-0.3932342529296875
-0.2039947509765625,-0.336578369140625,-0.8688201904296875
-0.00506591796875,-0.3383026123046875,-1.1343231201171875
0.1416168212890625,-0.331298828125,-0.9805755615234376
0.13629150390625,-0.2877655029296875,-0.727264404296875
0.2885589599609375,-0.3472442626953125,-0.82623291015625
0.1613311767578125,-0.344482421875,-0.7447662353515625
0.097686767578125,-0.3585205078125,-0.56060791015625
0.054962158203125,-0.3065643310546875,-0.2834320068359375
0.047943115234375,-0.1933746337890625,-0.2854461669921875
0.045135498046875,-0.0594940185546875,-0.158447265625
0.022918701171875,0.001983642578125,-0.0038909912109375
0.02545166015625,0.004241943359375,-0.0052947998046875
0.0274200439453125,0.0059356689453125,-0.0097808837890625
0.0291748046875,0.0089263916015625,-0.0126800537109375
0.028594970703125,0.01104736328125,-0.015625
0.0270538330078125,0.0124969482421875,-0.0176849365234375
0.0245819091796875,0.013763427734375,-0.0185546875
0.0207977294921875,0.01556396484375,-0.0197906494140625
0.01678466796875,0.0159912109375,-0.0214691162109375
-1.0884552001953125,0.4740142822265625,-0.37860107421875
2.21319580078125,-4.509811401367188,-8.015457153320312
0.1694488525390625,0.0096435546875,0.40118408203125
0.00537109375,-0.006103515625,0.0069122314453125
0.0051422119140625,-0.0074615478515625,0.0024566650390625
0.00531005859375,-0.0069427490234375,-0.000152587890625
0.256134033203125,-0.1921234130859375,-1.2421112060546875
-0.1896514892578125,-0.6527252197265625,-3.1157989501953125
0.046905517578125,-0.129974365234375,-0.32879638671875
0.0279998779296875,-0.326416015625,-1.2154083251953125
0.0103912353515625,-0.247528076171875,-0.8794097900390625
0.0142822265625,-0.26446533203125,-0.9408416748046876
0.0265960693359375,-0.2873687744140625,-0.9461822509765624
0.027496337890625,-0.268768310546875,-0.951446533203125
0.0313262939453125,-0.2757110595703125,-0.95147705078125
0.0380706787109375,-0.2762603759765625,-0.95489501953125
0.0412445068359375,-0.275390625,-0.958160400390625
0.0474090576171875,-0.2718505859375,-0.956024169921875
0.03863525390625,-0.271392822265625,-0.959075927734375
0.0516357421875,-0.2744140625,-0.960906982421875
0.037017822265625,-0.272491455078125,-0.9547119140625
0.0484161376953125,-0.2777557373046875,-0.96173095703125
0.0435028076171875,-0.275421142578125,-0.9570465087890624
0.0507049560546875,-0.274017333984375,-0.9634857177734376
0.0520172119140625,-0.270965576171875,-0.9582977294921876
0.04510498046875,-0.2804412841796875,-0.95623779296875
0.0479583740234375,-0.27740478515625,-0.9617767333984376
0.0524749755859375,-0.2722320556640625,-0.9558868408203124
0.0496063232421875,-0.2737274169921875,-0.956695556640625
0.058746337890625,-0.270721435546875,-0.9912109375
0.0384521484375,-0.2953033447265625,-0.9878692626953124
0.056396484375,-0.2780609130859375,-0.96954345703125
