AccelerationX,AccelerationY,AccelerationZ
0.071319580078125,-0.3519439697265625,-0.9309539794921876
0.0425262451171875,-0.32427978515625,-0.8712310791015625
0.0341796875,-0.35089111328125,-0.8337249755859375
-0.00537109375,-0.3276824951171875,-0.8346710205078125
0.0636138916015625,-0.3345794677734375,-0.9381256103515624
0.062774658203125,-0.3172149658203125,-0.94549560546875
-0.021209716796875,-0.3091888427734375,-0.9437408447265624
0.0225372314453125,-0.36328125,-0.8494873046875
0.10101318359375,-0.285675048828125,-0.974700927734375
0.081512451171875,-0.2744903564453125,-1.1027374267578125
0.0766143798828125,-0.246734619140625,-0.9876251220703124
-0.0146636962890625,-0.212646484375,-1.079925537109375
0.051025390625,-0.2393035888671875,-1.027923583984375
0.1374664306640625,-0.2919769287109375,-1.0365753173828125
0.0818939208984375,-0.2325286865234375,-0.938079833984375
0.224334716796875,-0.1742095947265625,-1.0963897705078125
0.196014404296875,-0.116851806640625,-1.1154632568359375
0.111297607421875,-0.08380126953125,-1.0766448974609375
0.1445159912109375,-0.1674346923828125,-0.9607086181640624
0.1287689208984375,-0.19598388671875,-0.9337310791015624
0.1591339111328125,-0.1764984130859375,-0.939483642578125
0.0823822021484375,-0.2468109130859375,-0.8473052978515625
0.0974273681640625,-0.31640625,-0.820953369140625
0.1009063720703125,-0.23486328125,-0.863922119140625
0.0221710205078125,-0.2317352294921875,-0.9273529052734376
-0.0159759521484375,-0.203582763671875,-0.9488067626953124
-0.051055908203125,-0.2186737060546875,-0.9868927001953124
-0.0838775634765625,-0.2159576416015625,-0.8787689208984375
0.0525665283203125,-0.2523956298828125,-0.8577880859375
0.044586181640625,-0.237945556640625,-0.9069976806640624
0.0176849365234375,-0.196807861328125,-0.971649169921875
0.0360107421875,-0.2100067138671875,-1.123504638671875
0.0405426025390625,-0.1387939453125,-1.125396728515625
0.1446075439453125,0.1210479736328125,-1.0709991455078125
0.2968902587890625,0.0207672119140625,-1.275146484375
0.3935089111328125,-0.07769775390625,-1.1753387451171875
0.224151611328125,0.0010833740234375,-0.9478302001953124
0.22900390625,0.023040771484375,-0.884490966796875
0.30511474609375,0.0740814208984375,-0.8204345703125
0.378204345703125,0.0566864013671875,-0.8272552490234375
0.4002532958984375,0.0367889404296875,-0.8214874267578125
0.2979583740234375,0.025054931640625,-0.841156005859375
0.39715576171875,0.10076904296875,-0.7706756591796875
0.378204345703125,0.1166839599609375,-0.8282470703125
0.4015045166015625,0.0864715576171875,-0.8855438232421875
0.486968994140625,0.0541839599609375,-0.868133544921875
0.421844482421875,0.0568389892578125,-0.88629150390625
0.5335540771484375,0.011749267578125,-0.9690399169921876
0.61553955078125,-0.0910797119140625,-1.030517578125
0.571197509765625,-0.08221435546875,-1.0459136962890625
0.4996795654296875,0.029815673828125,-1.02435302734375
0.5527496337890625,0.0784149169921875,-0.9715423583984376
0.4051513671875,0.187774658203125,-0.9739990234375
0.3011474609375,0.19354248046875,-0.954986572265625
0.0965576171875,0.2618255615234375,-0.848785400390625
0.2457122802734375,0.3097991943359375,-0.733978271484375
0.39990234375,0.2265472412109375,-0.6907806396484375
0.2634124755859375,0.458648681640625,-0.848602294921875
0.33782958984375,0.4657440185546875,-1.0372161865234375
0.41717529296875,0.51971435546875,-1.2277984619140625
0.541961669921875,0.1701812744140625,-0.8509368896484375
0.4121551513671875,0.2901763916015625,-0.84136962890625
0.3726348876953125,0.336029052734375,-0.88262939453125
0.365570068359375,0.4302215576171875,-1.0071258544921875
0.38714599609375,0.3723602294921875,-1.1036376953125
0.355712890625,0.2405853271484375,-1.0298614501953125
0.3276519775390625,0.16778564453125,-1.015899658203125
0.366912841796875,0.1898040771484375,-1.0042266845703125
0.42144775390625,0.221343994140625,-0.93414306640625
0.407012939453125,0.2149810791015625,-0.9579010009765624
0.4483184814453125,0.233795166015625,-0.9319305419921876
0.441253662109375,0.1979522705078125,-0.8733673095703125
0.418731689453125,0.144073486328125,-0.9166107177734376
0.402374267578125,0.11236572265625,-0.8885498046875
0.4839324951171875,0.2545318603515625,-1.0056915283203125
0.55279541015625,0.3137664794921875,-1.026275634765625
0.50128173828125,0.3243408203125,-0.91546630859375
0.4027252197265625,0.2333221435546875,-0.8193817138671875
0.3419342041015625,0.19342041015625,-0.81549072265625
0.32000732421875,0.203033447265625,-0.8762054443359375
0.3146514892578125,0.2602081298828125,-0.93463134765625
0.31622314453125,0.325286865234375,-0.9153289794921876
0.3409271240234375,0.38531494140625,-0.97210693359375
0.351226806640625,0.410888671875,-1.0020599365234375
0.3753204345703125,0.35772705078125,-0.958831787109375
0.351287841796875,0.30908203125,-0.865631103515625
0.298004150390625,0.3411712646484375,-0.8510589599609375
0.2835235595703125,0.395965576171875,-0.8198394775390625
0.2932891845703125,0.4048004150390625,-0.8090667724609375
0.307403564453125,0.3612060546875,-0.825225830078125
0.30291748046875,0.3111724853515625,-0.8711700439453125
0.32135009765625,0.2827606201171875,-0.91448974609375
0.3643646240234375,0.3086090087890625,-0.9379425048828124
0.3889617919921875,0.29888916015625,-0.899688720703125
0.359283447265625,0.2783203125,-0.915283203125
0.323028564453125,0.2901763916015625,-0.946258544921875
0.316192626953125,0.282745361328125,-0.937530517578125
0.303192138671875,0.2602691650390625,-0.942047119140625
0.3233642578125,0.324249267578125,-1.0308837890625
0.334320068359375,0.3162384033203125,-1.052154541015625
0.3361358642578125,0.186431884765625,-0.92047119140625
0.319549560546875,0.183380126953125,-0.8667755126953125
0.3293304443359375,0.3087158203125,-0.9207763671875
0.38946533203125,0.3442535400390625,-0.878387451171875
0.4144287109375,0.287445068359375,-0.8084869384765625
0.3903961181640625,0.26025390625,-0.8562164306640625
0.4018096923828125,0.2890472412109375,-0.9614105224609376
0.466796875,0.3037872314453125,-0.948516845703125
0.5052490234375,0.356475830078125,-0.8630218505859375
0.486785888671875,0.3777313232421875,-0.814239501953125
0.4633331298828125,0.3887939453125,-0.80474853515625
0.451568603515625,0.399017333984375,-0.7920379638671875
0.4542388916015625,0.4128265380859375,-0.791290283203125
0.4464569091796875,0.419342041015625,-0.799346923828125
0.432220458984375,0.377593994140625,-0.814727783203125
0.412322998046875,0.330108642578125,-0.7895050048828125
0.37786865234375,0.3072509765625,-0.8044281005859375
0.3402252197265625,0.3274383544921875,-0.845916748046875
0.3484954833984375,0.3282012939453125,-0.8624267578125
0.3485565185546875,0.34686279296875,-0.8784942626953125
0.328857421875,0.34039306640625,-0.9056549072265624
0.3460845947265625,0.35906982421875,-0.9910888671875
0.37054443359375,0.344207763671875,-1.0258941650390625
0.3377838134765625,0.2541046142578125,-0.94342041015625
0.309295654296875,0.2460784912109375,-0.9593963623046876
0.3329315185546875,0.208953857421875,-0.9713592529296876
0.326202392578125,0.1643218994140625,-0.965240478515625
0.3023529052734375,0.153045654296875,-0.9471893310546876
0.3014984130859375,0.1211700439453125,-0.850494384765625
0.3485260009765625,0.198486328125,-0.8738250732421875
0.42578125,0.3484344482421875,-1.0086212158203125
0.4537506103515625,0.376708984375,-0.998046875
0.4449310302734375,0.3236846923828125,-0.88568115234375
0.3892364501953125,0.3207550048828125,-0.824951171875
0.3659820556640625,0.3470001220703125,-0.8316192626953125
0.362457275390625,0.3910369873046875,-0.8397674560546875
0.3570404052734375,0.4072113037109375,-0.844085693359375
0.36541748046875,0.3621826171875,-0.8453521728515625
0.3601226806640625,0.3233184814453125,-0.8673553466796875
0.36041259765625,0.30303955078125,-0.84515380859375
0.353515625,0.3226165771484375,-0.837860107421875
0.340179443359375,0.32720947265625,-0.8341217041015625
0.337646484375,0.305206298828125,-0.82208251953125
0.334716796875,0.31085205078125,-0.8538818359375
0.3078765869140625,0.3101348876953125,-0.8944854736328125
0.2963409423828125,0.279815673828125,-0.89727783203125
0.3018951416015625,0.2542572021484375,-0.9021453857421876
0.303924560546875,0.247039794921875,-0.9320831298828124
0.3452301025390625,0.3142852783203125,-1.075836181640625
0.357696533203125,0.28424072265625,-1.0793914794921875
0.3719635009765625,0.161102294921875,-1.059783935546875
0.3818206787109375,0.1959228515625,-1.0816650390625
0.408782958984375,0.214996337890625,-0.957489013671875
0.427154541015625,0.205230712890625,-0.778289794921875
0.4405364990234375,0.2832489013671875,-0.7758026123046875
0.4276580810546875,0.356292724609375,-0.918731689453125
0.4848785400390625,0.368255615234375,-1.0370330810546875
0.5628204345703125,0.3127288818359375,-0.9801483154296876
0.5841217041015625,0.30938720703125,-0.921234130859375
0.5376434326171875,0.3742218017578125,-0.895751953125
0.505218505859375,0.3941192626953125,-0.88897705078125
0.4905853271484375,0.4153594970703125,-0.8604583740234375
0.4807281494140625,0.4308929443359375,-0.8265228271484375
0.45458984375,0.4180908203125,-0.7805633544921875
0.3992156982421875,0.3846588134765625,-0.7642669677734375
0.3508148193359375,0.3621063232421875,-0.7836761474609375
0.3248138427734375,0.311065673828125,-0.7841949462890625
0.3018646240234375,0.3098907470703125,-0.76409912109375
0.2796783447265625,0.2844390869140625,-0.794647216796875
0.2540130615234375,0.2807464599609375,-0.8765869140625
0.3145904541015625,0.2237091064453125,-0.8687744140625
0.3296356201171875,0.211395263671875,-0.9301605224609376
0.3406982421875,0.1676025390625,-0.9570159912109376
0.3889617919921875,0.142181396484375,-1.0172882080078125
0.3674163818359375,0.1117401123046875,-1.0824432373046875
0.36590576171875,0.142120361328125,-1.1658782958984375
0.39471435546875,0.2575836181640625,-1.1617584228515625
0.3907318115234375,0.187744140625,-0.990478515625
0.3083953857421875,0.151763916015625,-1.0607452392578125
0.2884368896484375,0.0743865966796875,-1.03973388671875
0.332000732421875,-0.00567626953125,-0.9051513671875
0.27008056640625,0.0570068359375,-0.8339691162109375
0.264739990234375,0.0966949462890625,-0.8853912353515625
0.3864593505859375,0.296722412109375,-1.0965118408203125
0.45086669921875,0.4755401611328125,-1.12469482421875
0.4655303955078125,0.385955810546875,-0.998992919921875
0.4401702880859375,0.2773590087890625,-0.8815155029296875
0.3901519775390625,0.256591796875,-0.8916778564453125
0.459197998046875,0.3834686279296875,-0.88983154296875
0.4612274169921875,0.4504547119140625,-0.8627471923828125
0.4342193603515625,0.3748931884765625,-0.8426055908203125
0.3473968505859375,0.346405029296875,-0.8101959228515625
0.3174896240234375,0.2727813720703125,-0.713470458984375
0.302734375,0.2678070068359375,-0.751800537109375
0.2948455810546875,0.314178466796875,-0.8714752197265625
0.3279876708984375,0.349761962890625,-0.9932098388671876
0.3095245361328125,0.23358154296875,-0.9191436767578124
0.3142242431640625,0.176971435546875,-0.9099578857421876
0.330474853515625,0.196563720703125,-0.9606475830078124
0.34197998046875,0.230743408203125,-1.0103912353515625
0.37530517578125,0.1725311279296875,-0.9842071533203124
0.33447265625,0.114501953125,-0.8685760498046875
0.296600341796875,0.075836181640625,-0.842529296875
0.3174896240234375,0.1611480712890625,-1.0067596435546875
0.3597412109375,0.2158355712890625,-1.122528076171875
0.392822265625,0.1352081298828125,-1.0427703857421875
0.4369964599609375,0.0916900634765625,-0.9345703125
0.4463348388671875,0.15411376953125,-0.908111572265625
0.441375732421875,0.2129974365234375,-0.935211181640625
0.4464111328125,0.2469940185546875,-0.9445343017578124
0.4636688232421875,0.2580718994140625,-0.912750244140625
0.473358154296875,0.26910400390625,-0.8635406494140625
0.4600982666015625,0.2585601806640625,-0.8361968994140625
0.43255615234375,0.2421112060546875,-0.851837158203125
0.4306640625,0.243621826171875,-0.84234619140625
0.4506683349609375,0.2607269287109375,-0.8292388916015625
0.4492340087890625,0.2790069580078125,-0.8317413330078125
0.411773681640625,0.279632568359375,-0.8011474609375
0.349517822265625,0.2614593505859375,-0.8421173095703125
0.340850830078125,0.2826690673828125,-0.9927825927734376
0.3692169189453125,0.2940521240234375,-1.032623291015625
0.4002227783203125,0.2430572509765625,-0.9140777587890624
0.3597259521484375,0.1615753173828125,-0.88134765625
0.3111724853515625,0.077301025390625,-0.9319305419921876
0.31573486328125,0.0545806884765625,-0.9976043701171876
0.3225860595703125,0.107879638671875,-0.987945556640625
0.3509674072265625,0.138275146484375,-0.9574737548828124
0.3793182373046875,0.2246246337890625,-1.0352935791015625
0.3500213623046875,0.19830322265625,-1.0213165283203125
0.3092803955078125,0.164764404296875,-0.9261932373046876
0.2724761962890625,0.158721923828125,-0.864990234375
0.2698516845703125,0.208953857421875,-0.9178924560546876
0.2758026123046875,0.25128173828125,-0.9500732421875
0.2904510498046875,0.2636566162109375,-0.9127349853515624
0.292022705078125,0.2037353515625,-0.86962890625
0.28216552734375,0.165557861328125,-0.8662109375
0.2984771728515625,0.163970947265625,-0.8753814697265625
0.3155364990234375,0.16363525390625,-0.877716064453125
0.3304901123046875,0.136199951171875,-0.8880615234375
0.34979248046875,0.1323699951171875,-0.9531707763671876
0.3968353271484375,0.1285858154296875,-1.01397705078125
0.44952392578125,0.1165313720703125,-1.0533905029296875
0.4983978271484375,0.1847686767578125,-1.1392822265625
0.474609375,0.0941162109375,-0.9343719482421876
0.477142333984375,0.12646484375,-0.9496002197265624
0.49493408203125,0.24664306640625,-0.99932861328125
0.526092529296875,0.2259979248046875,-0.870330810546875
0.49774169921875,0.22747802734375,-0.7794036865234375
0.4556884765625,0.187652587890625,-0.747100830078125
0.4653472900390625,0.2383880615234375,-0.754486083984375
0.5365142822265625,0.345001220703125,-0.9230194091796876
0.5747528076171875,0.3479156494140625,-0.9853363037109376
0.604705810546875,0.1981048583984375,-0.889434814453125
0.5633392333984375,0.1276092529296875,-0.7998504638671875
0.4766998291015625,0.19427490234375,-0.81689453125
0.4458465576171875,0.2513885498046875,-0.8634185791015625
0.442291259765625,0.2844696044921875,-0.8922576904296875
0.4078369140625,0.2880401611328125,-0.8962860107421875
0.38104248046875,0.270294189453125,-0.8695526123046875
0.3538360595703125,0.26239013671875,-0.8476409912109375
0.339813232421875,0.264068603515625,-0.84625244140625
0.32452392578125,0.253814697265625,-0.837249755859375
0.3281097412109375,0.2469024658203125,-0.9107208251953124
0.35888671875,0.2984771728515625,-1.044586181640625
0.43817138671875,0.3543243408203125,-1.0693817138671875
0.4450531005859375,0.2596282958984375,-0.934661865234375
0.39141845703125,0.1371002197265625,-0.911834716796875
0.340362548828125,0.0339202880859375,-0.87933349609375
0.3560638427734375,-0.045257568359375,-0.8239593505859375
0.4408721923828125,0.138397216796875,-0.9943389892578124
0.511871337890625,0.3241424560546875,-1.0825958251953125
0.5006103515625,0.2244110107421875,-0.916778564453125
0.4331512451171875,0.107452392578125,-0.838348388671875
0.3529052734375,0.1049041748046875,-0.8539886474609375
0.3544769287109375,0.1500244140625,-0.863006591796875
0.4365997314453125,0.1838836669921875,-0.858612060546875
0.4771575927734375,0.1776275634765625,-0.863983154296875
0.472015380859375,0.152679443359375,-0.869110107421875
0.4555511474609375,0.1769561767578125,-0.8305816650390625
0.4506988525390625,0.1919403076171875,-0.795623779296875
0.460205078125,0.2171478271484375,-0.810302734375
0.46588134765625,0.24859619140625,-0.8387908935546875
0.4648895263671875,0.247589111328125,-0.8540802001953125
0.5054931640625,0.2322998046875,-0.905364990234375
0.57427978515625,0.314178466796875,-1.0930633544921875
0.5500030517578125,0.2076873779296875,-1.008575439453125
0.520965576171875,0.1327972412109375,-0.917388916015625
0.49212646484375,0.2034912109375,-0.88238525390625
0.49249267578125,0.1777191162109375,-0.710113525390625
0.5695953369140625,0.195281982421875,-0.7668914794921875
0.6031494140625,0.28558349609375,-0.9603271484375
0.6658172607421875,0.24981689453125,-1.0661468505859375
0.708221435546875,0.1357574462890625,-0.8994598388671875
0.67327880859375,0.1670684814453125,-0.78997802734375
0.61187744140625,0.274566650390625,-0.8280792236328125
0.587310791015625,0.32318115234375,-0.8590087890625
0.5403289794921875,0.281280517578125,-0.7865753173828125
0.47222900390625,0.2211456298828125,-0.7565460205078125
0.4303131103515625,0.20562744140625,-0.7786712646484375
0.431182861328125,0.1963653564453125,-0.81317138671875
0.4045562744140625,0.22052001953125,-0.8505096435546875
0.3831787109375,0.1913299560546875,-0.8253173828125
0.2770843505859375,0.1552734375,-0.8328857421875
0.22601318359375,0.1151885986328125,-0.8868255615234375
0.2269744873046875,0.0828857421875,-0.8648223876953125
0.2768402099609375,0.107635498046875,-0.92626953125
0.3470611572265625,0.116607666015625,-0.9698944091796876
0.5355377197265625,0.2351531982421875,-1.322235107421875
0.542572021484375,0.2532501220703125,-1.1785125732421875
0.51416015625,0.1306304931640625,-0.9728851318359376
0.496856689453125,0.234344482421875,-1.2002410888671875
0.491058349609375,0.017822265625,-1.00372314453125
0.449737548828125,-0.230255126953125,-0.7478179931640625
0.4287109375,-0.214752197265625,-0.77569580078125
0.442047119140625,-0.006195068359375,-0.921234130859375
0.5299835205078125,0.222900390625,-1.0581207275390625
0.5494537353515625,0.323333740234375,-0.967132568359375
0.4803009033203125,0.26898193359375,-0.7631988525390625
0.3878173828125,0.233856201171875,-0.8159332275390625
0.35357666015625,0.2343292236328125,-0.9210357666015624
0.3884429931640625,0.24114990234375,-0.9300079345703124
0.4298248291015625,0.234832763671875,-0.88116455078125
0.4336700439453125,0.245819091796875,-0.8860626220703125
0.4367523193359375,0.2384185791015625,-0.89569091796875
0.42974853515625,0.24517822265625,-0.8901519775390625
0.4081268310546875,0.249755859375,-0.8524627685546875
0.410980224609375,0.2408447265625,-0.8126983642578125
0.3992767333984375,0.226593017578125,-0.81640625
0.395751953125,0.21063232421875,-0.8056640625
0.38885498046875,0.21185302734375,-0.7985687255859375
0.3968048095703125,0.1839752197265625,-0.8104400634765625
0.4060821533203125,0.1683349609375,-0.8650665283203125
0.4288482666015625,0.1756591796875,-0.9207611083984376
0.462677001953125,0.160797119140625,-1.0184326171875
0.5149383544921875,0.213287353515625,-1.1556396484375
0.47076416015625,0.0354766845703125,-0.9021148681640624
0.4986114501953125,-0.0047149658203125,-0.8852386474609375
0.4769287109375,0.1213836669921875,-1.0034637451171875
0.5328369140625,0.1569061279296875,-1.0612640380859375
0.4926300048828125,0.1363677978515625,-0.9422454833984376
0.3992919921875,0.101806640625,-0.8406982421875
0.427581787109375,0.141845703125,-0.970550537109375
0.4681549072265625,0.3000946044921875,-1.0177459716796875
0.475341796875,0.3301239013671875,-1.001190185546875
0.4827423095703125,0.2199554443359375,-0.889068603515625
0.452606201171875,0.1735992431640625,-0.9052276611328124
0.4866485595703125,0.2406768798828125,-0.9011993408203124
0.544158935546875,0.314300537109375,-0.8863067626953125
0.5665283203125,0.35968017578125,-0.8502960205078125
0.5457763671875,0.372650146484375,-0.81396484375
0.54010009765625,0.3082275390625,-0.7927703857421875
0.5589599609375,0.27056884765625,-0.79620361328125
0.5745391845703125,0.2622222900390625,-0.7398834228515625
0.54901123046875,0.2540283203125,-0.728790283203125
0.5022430419921875,0.2267913818359375,-0.7646484375
0.42938232421875,0.2337799072265625,-0.838470458984375
0.3598785400390625,0.1872100830078125,-0.8606719970703125
0.3133087158203125,0.19561767578125,-0.885223388671875
0.307159423828125,0.254608154296875,-0.982177734375
0.3169403076171875,0.3442840576171875,-1.1515960693359375
0.311126708984375,0.3309478759765625,-1.13494873046875
0.3092041015625,0.2060699462890625,-1.0276641845703125
0.246337890625,0.0923309326171875,-0.98614501953125
0.2239837646484375,-0.0021820068359375,-0.917266845703125
0.2547149658203125,-0.0359954833984375,-0.90338134765625
0.2992095947265625,0.073272705078125,-0.97967529296875
0.390594482421875,0.2253265380859375,-1.037567138671875
0.434661865234375,0.2942657470703125,-1.0045166015625
0.3969573974609375,0.2383270263671875,-0.86578369140625
0.317291259765625,0.1654815673828125,-0.8201904296875
0.31170654296875,0.184814453125,-0.861175537109375
0.368438720703125,0.23052978515625,-0.9182281494140624
0.4069366455078125,0.230316162109375,-0.90087890625
0.3941650390625,0.1947784423828125,-0.88983154296875
0.35028076171875,0.1514129638671875,-0.9364776611328124
0.3197021484375,0.1347198486328125,-0.9562835693359376
0.3309783935546875,0.1384124755859375,-0.898834228515625
0.3335723876953125,0.1426849365234375,-0.8628997802734375
0.3328704833984375,0.146087646484375,-0.876617431640625
0.32275390625,0.1590118408203125,-0.8667755126953125
0.346954345703125,0.144317626953125,-0.86761474609375
0.3621826171875,0.1827392578125,-0.9235076904296876
0.3636627197265625,0.1606597900390625,-0.9592437744140624
0.4891510009765625,0.250152587890625,-1.275970458984375
0.4276123046875,0.1009979248046875,-1.027557373046875
0.5218505859375,0.0161590576171875,-1.0406341552734375
0.493682861328125,0.146331787109375,-1.053558349609375
0.4750518798828125,0.1078338623046875,-0.871124267578125
0.434356689453125,0.11383056640625,-0.739593505859375
0.4205474853515625,0.205657958984375,-0.809844970703125
0.5099029541015625,0.2869415283203125,-0.92999267578125
0.6353607177734375,0.276092529296875,-0.9500885009765624
0.6545867919921875,0.2306671142578125,-0.8617401123046875
0.6132354736328125,0.259063720703125,-0.8756103515625
0.6259765625,0.257904052734375,-0.9240875244140624
0.6814117431640625,0.2738037109375,-0.904144287109375
0.676239013671875,0.2658843994140625,-0.8398590087890625
0.623077392578125,0.2635955810546875,-0.834442138671875
0.5907440185546875,0.2494659423828125,-0.8652801513671875
0.5748748779296875,0.251708984375,-0.896453857421875
0.5700531005859375,0.264373779296875,-0.899383544921875
0.57916259765625,0.254058837890625,-0.89251708984375
0.5794219970703125,0.264862060546875,-0.9216461181640624
0.575897216796875,0.2541656494140625,-0.87091064453125
0.558685302734375,0.248870849609375,-0.7996368408203125
0.48492431640625,0.261444091796875,-0.836212158203125
0.428192138671875,0.213470458984375,-0.8414154052734375
0.389984130859375,0.2069549560546875,-0.837982177734375
0.36279296875,0.2310943603515625,-0.865478515625
0.36761474609375,0.251495361328125,-0.8529815673828125
0.349822998046875,0.2198638916015625,-0.8488922119140625
0.3246002197265625,0.2141571044921875,-0.911956787109375
0.3157958984375,0.264434814453125,-1.092926025390625
0.2997894287109375,0.30487060546875,-1.097076416015625
0.219390869140625,0.2110443115234375,-0.86016845703125
0.0995330810546875,0.102447509765625,-0.8654022216796875
0.10400390625,0.0589599609375,-1.01318359375
0.1981048583984375,0.1690673828125,-1.1475067138671875
0.3131561279296875,0.2158203125,-1.081695556640625
0.3549346923828125,0.14385986328125,-1.0340576171875
0.3073883056640625,0.099578857421875,-1.06195068359375
0.2854461669921875,0.08270263671875,-1.00396728515625
0.295196533203125,0.1372222900390625,-0.9324951171875
0.31756591796875,0.1776275634765625,-0.900848388671875
0.280364990234375,0.1696014404296875,-0.9366912841796876
0.2883453369140625,0.1625213623046875,-0.939361572265625
0.3086090087890625,0.15185546875,-0.906219482421875
0.318511962890625,0.1367034912109375,-0.8796539306640625
0.31536865234375,0.1242218017578125,-0.889190673828125
0.312225341796875,0.114959716796875,-0.9166717529296876
0.3149871826171875,0.109283447265625,-0.9509735107421876
0.332183837890625,0.0955657958984375,-0.963134765625
0.33148193359375,0.0913848876953125,-0.9391937255859376
0.3476715087890625,0.1103515625,-1.0092620849609375
0.3725433349609375,0.116729736328125,-1.044036865234375
0.5189208984375,0.2296142578125,-1.2483978271484375
0.537994384765625,0.1612091064453125,-1.0415802001953125
0.5311431884765625,0.1210784912109375,-0.95855712890625
0.4498291015625,0.0933685302734375,-0.8329315185546875
0.4130706787109375,0.0940399169921875,-0.738067626953125
0.4056243896484375,0.1786346435546875,-0.7596893310546875
0.434661865234375,0.2875823974609375,-0.853515625
0.478546142578125,0.35955810546875,-0.921112060546875
0.54364013671875,0.2668304443359375,-0.9003753662109375
0.5466156005859375,0.158721923828125,-0.8475799560546875
0.5091400146484375,0.128509521484375,-0.8270111083984375
0.48175048828125,0.1822357177734375,-0.86328125
0.4929656982421875,0.2317657470703125,-0.88446044921875
0.5116119384765625,0.2737884521484375,-0.8831787109375
0.4983062744140625,0.2613983154296875,-0.843719482421875
0.4647369384765625,0.236846923828125,-0.830322265625
0.45831298828125,0.242523193359375,-0.83355712890625
0.46405029296875,0.2448272705078125,-0.8087615966796875
0.4564208984375,0.2416229248046875,-0.817962646484375
0.448394775390625,0.2379302978515625,-0.857208251953125
0.4439697265625,0.212158203125,-0.878662109375
0.432159423828125,0.2007293701171875,-0.9043121337890624
0.420257568359375,0.1855010986328125,-0.8782806396484375
0.4234466552734375,0.167633056640625,-0.8693389892578125
0.4366607666015625,0.172332763671875,-0.8771820068359375
0.4559783935546875,0.1572418212890625,-0.9133148193359376
0.4556427001953125,0.1453704833984375,-0.934417724609375
0.46600341796875,0.146942138671875,-0.9477081298828124
0.46875,0.2305755615234375,-0.983551025390625
0.4380950927734375,0.1458282470703125,-0.799041748046875
0.435455322265625,0.117034912109375,-0.7954559326171875
0.409912109375,0.1785430908203125,-0.9492645263671876
0.4499969482421875,0.1331634521484375,-0.9886322021484376
0.446197509765625,0.10833740234375,-0.8850250244140625
0.41925048828125,0.074798583984375,-0.9017333984375
0.43890380859375,0.125732421875,-1.0155487060546875
0.4927978515625,0.144775390625,-0.9742889404296876
0.4758148193359375,0.1556854248046875,-0.9043731689453124
0.4363555908203125,0.156280517578125,-0.8864288330078125
0.4503326416015625,0.1737060546875,-0.877960205078125
0.4744110107421875,0.210968017578125,-0.883575439453125
0.4945526123046875,0.1936187744140625,-0.8921661376953125
0.5219879150390625,0.1688995361328125,-0.8616485595703125
0.5048065185546875,0.199249267578125,-0.841949462890625
0.507568359375,0.212005615234375,-0.8296051025390625
0.5116424560546875,0.2243194580078125,-0.811279296875
0.5152740478515625,0.1936492919921875,-0.7830963134765625
0.49609375,0.1779022216796875,-0.7656707763671875
0.4476776123046875,0.18389892578125,-0.7920379638671875
0.4722900390625,0.174713134765625,-0.8558197021484375
0.5700836181640625,0.35345458984375,-1.121185302734375
0.5631103515625,0.3286895751953125,-1.0673828125
0.5355072021484375,0.1714019775390625,-1.0231170654296875
0.468231201171875,0.1104888916015625,-0.8656768798828125
0.4395904541015625,0.15179443359375,-0.75299072265625
0.5028533935546875,0.3535308837890625,-0.937530517578125
0.517730712890625,0.4466705322265625,-1.0002288818359375
0.5419921875,0.3042755126953125,-0.91229248046875
0.510833740234375,0.1750640869140625,-0.897796630859375
0.445526123046875,0.1583251953125,-0.91558837890625
0.42340087890625,0.21282958984375,-0.9399261474609376
0.4481201171875,0.2456512451171875,-0.945037841796875
0.4356231689453125,0.2589569091796875,-0.882080078125
0.388763427734375,0.2386474609375,-0.8520660400390625
0.3439483642578125,0.2083282470703125,-0.85308837890625
0.327850341796875,0.1967620849609375,-0.8566436767578125
0.3095855712890625,0.2059173583984375,-0.8322906494140625
0.2817840576171875,0.22979736328125,-0.847015380859375
0.2447509765625,0.26702880859375,-0.8768463134765625
0.2373199462890625,0.275970458984375,-0.9119110107421876
0.29730224609375,0.3718414306640625,-1.103424072265625
0.3419342041015625,0.3378143310546875,-1.0655059814453125
0.3685760498046875,0.200439453125,-0.97491455078125
0.3298492431640625,0.128631591796875,-0.9881134033203124
0.3126373291015625,0.0624847412109375,-1.0157470703125
0.3111724853515625,-0.0056915283203125,-0.945343017578125
0.34051513671875,0.005615234375,-0.954193115234375
0.3852386474609375,0.12542724609375,-1.0634002685546875
0.4297943115234375,0.1499786376953125,-1.0601806640625
0.4270172119140625,0.0641937255859375,-0.9308929443359376
0.3699493408203125,0.0545654296875,-0.8831329345703125
0.3474273681640625,0.121490478515625,-0.9081573486328124
0.3851470947265625,0.214508056640625,-0.935791015625
0.4308319091796875,0.2333831787109375,-0.9140777587890624
0.4404144287109375,0.2281036376953125,-0.879974365234375
0.4074249267578125,0.1895751953125,-0.8624267578125
0.384185791015625,0.18365478515625,-0.896881103515625
0.4083099365234375,0.1987152099609375,-0.88800048828125
0.4473114013671875,0.213775634765625,-0.87091064453125
0.4483184814453125,0.208099365234375,-0.8723297119140625
0.451934814453125,0.21331787109375,-0.9106292724609376
0.4933013916015625,0.2608795166015625,-0.9760284423828124
0.53448486328125,0.29571533203125,-1.0234832763671875
0.543060302734375,0.1949310302734375,-0.920440673828125
0.5106201171875,0.1787261962890625,-0.9429473876953124
0.4947967529296875,0.2251434326171875,-0.9309234619140624
0.4837188720703125,0.1547698974609375,-0.7588653564453125
0.4904632568359375,0.2090606689453125,-0.8817138671875
0.5380401611328125,0.34112548828125,-1.1652374267578125
0.5492706298828125,0.2090606689453125,-0.9789276123046876
0.53936767578125,0.1412811279296875,-0.8627471923828125
0.461395263671875,0.2142181396484375,-0.846160888671875
0.4893951416015625,0.20806884765625,-0.839996337890625
0.490325927734375,0.254180908203125,-0.8782958984375
0.463592529296875,0.2398223876953125,-0.9155426025390624
0.425933837890625,0.2103424072265625,-0.8713531494140625
0.3979949951171875,0.2202606201171875,-0.83416748046875
0.3632965087890625,0.22528076171875,-0.80181884765625
0.3325347900390625,0.2312164306640625,-0.77642822265625
0.30517578125,0.2278594970703125,-0.743988037109375
0.290802001953125,0.2263641357421875,-0.757965087890625
0.2754974365234375,0.1970367431640625,-0.7874603271484375
0.282012939453125,0.0966949462890625,-0.8753814697265625
0.2567596435546875,0.0834808349609375,-1.083221435546875
0.2301483154296875,0.19189453125,-1.242950439453125
0.3421783447265625,0.1882171630859375,-1.2068328857421875
0.412261962890625,0.1413726806640625,-1.11602783203125
0.408355712890625,0.071533203125,-1.0680694580078125
0.390869140625,-0.054534912109375,-1.0175323486328125
0.37274169921875,-0.1382598876953125,-0.9188079833984376
0.4049224853515625,-0.0893402099609375,-0.900848388671875
0.4947662353515625,0.048675537109375,-0.96185302734375
0.567657470703125,0.1151885986328125,-0.95953369140625
0.5595703125,0.09393310546875,-0.82916259765625
0.5112152099609375,0.0699310302734375,-0.7738189697265625
0.47003173828125,0.0992889404296875,-0.8408355712890625
0.4900970458984375,0.1343994140625,-0.91253662109375
0.5380859375,0.1738433837890625,-0.887420654296875
0.5660858154296875,0.1774139404296875,-0.880462646484375
0.50634765625,0.143157958984375,-0.9030303955078124
0.4543914794921875,0.1112060546875,-0.9660491943359376
0.4242095947265625,0.13336181640625,-0.9332275390625
0.4474029541015625,0.168182373046875,-0.8612518310546875
0.4562530517578125,0.199127197265625,-0.8240814208984375
0.4407501220703125,0.19580078125,-0.775482177734375
0.42474365234375,0.1841888427734375,-0.7469329833984375
0.4023284912109375,0.1746978759765625,-0.745849609375
0.4242095947265625,0.1694183349609375,-0.7934417724609375
0.467742919921875,0.2050323486328125,-0.86578369140625
0.4723663330078125,0.1591949462890625,-0.8536224365234375
0.45648193359375,0.1009063720703125,-0.9248809814453124
0.4765625,0.103424072265625,-1.01885986328125
0.527801513671875,0.292236328125,-1.171142578125
0.4970703125,0.0819091796875,-0.9020538330078124
0.5013275146484375,0.0439300537109375,-0.997589111328125
0.470916748046875,0.03485107421875,-0.923248291015625
0.48980712890625,0.065155029296875,-0.7889404296875
0.5377655029296875,0.2312164306640625,-0.8381805419921875
0.5961456298828125,0.2877197265625,-0.919891357421875
0.6640777587890625,0.2132568359375,-0.9378204345703124
0.6878204345703125,0.14239501953125,-0.8940582275390625
0.671112060546875,0.1412200927734375,-0.882080078125
0.6503143310546875,0.2263641357421875,-0.89862060546875
0.6336212158203125,0.3006134033203125,-0.8790283203125
0.5987701416015625,0.28387451171875,-0.8765869140625
0.55377197265625,0.237060546875,-0.894256591796875
0.5198822021484375,0.223724365234375,-0.900421142578125
0.49957275390625,0.2512359619140625,-0.8626251220703125
0.4803924560546875,0.2623748779296875,-0.7857666015625
0.450958251953125,0.2577362060546875,-0.76544189453125
0.3961334228515625,0.264801025390625,-0.762420654296875
0.3662261962890625,0.26409912109375,-0.7431182861328125
0.336029052734375,0.2713470458984375,-0.757415771484375
0.32708740234375,0.2700653076171875,-0.7690582275390625
0.3724365234375,0.2414093017578125,-0.7906341552734375
0.4137420654296875,0.239227294921875,-0.8760986328125
0.4632415771484375,0.2487945556640625,-0.922271728515625
0.506591796875,0.2499847412109375,-0.9673309326171876
0.576171875,0.2312469482421875,-1.028411865234375
0.61920166015625,0.1355133056640625,-1.03662109375
0.6162261962890625,0.1100616455078125,-1.0307464599609375
0.6110382080078125,0.125518798828125,-1.0198516845703125
0.6132659912109375,0.139312744140625,-1.008087158203125
0.6112060546875,0.1421051025390625,-0.9851531982421876
0.600189208984375,0.1199493408203125,-0.9778900146484376
0.6018218994140625,0.113800048828125,-0.981536865234375
0.6123504638671875,0.0975341796875,-1.0401458740234375
0.5792083740234375,0.1040496826171875,-1.0111236572265625
0.53021240234375,0.0514068603515625,-0.9278717041015624
0.428192138671875,-0.01312255859375,-0.7735443115234375
0.2603302001953125,0.0325469970703125,-0.7708282470703125
0.2710723876953125,0.0525970458984375,-0.8160858154296875
0.3212738037109375,0.1142578125,-0.95916748046875
0.384429931640625,0.205657958984375,-1.0359039306640625
0.459686279296875,0.238922119140625,-0.970733642578125
0.4230804443359375,0.1763916015625,-0.928070068359375
0.3878021240234375,0.1671905517578125,-0.9793548583984376
0.381927490234375,0.192779541015625,-1.0092620849609375
0.3710479736328125,0.2391357421875,-1.077972412109375
0.372222900390625,0.2142181396484375,-1.064178466796875
0.352752685546875,0.174407958984375,-1.0130767822265625
0.3824005126953125,0.1606292724609375,-0.8979949951171875
0.3218231201171875,0.2348785400390625,-0.9173736572265624
0.371368408203125,0.160247802734375,-0.8452911376953125
0.3784637451171875,0.229095458984375,-0.968353271484375
0.2593841552734375,0.1831207275390625,-1.056732177734375
0.1474761962890625,0.074676513671875,-1.0268707275390625
0.1710357666015625,0.0682525634765625,-0.974609375
0.2042999267578125,0.0913848876953125,-0.9552154541015624
0.265106201171875,0.0784912109375,-0.93408203125
0.2589263916015625,0.12164306640625,-1.00946044921875
0.2472686767578125,0.086029052734375,-1.088043212890625
0.2932281494140625,0.0176239013671875,-1.0514068603515625
0.351287841796875,-0.041412353515625,-0.9689483642578124
0.350250244140625,-0.0384521484375,-0.9304962158203124
0.2968292236328125,0.0006561279296875,-0.9912109375
0.317962646484375,0.0162200927734375,-1.030426025390625
0.348358154296875,0.0696563720703125,-1.0314788818359375
0.3599700927734375,0.064666748046875,-0.970977783203125
0.3058319091796875,0.1273193359375,-0.959869384765625
0.2472686767578125,0.1175689697265625,-0.891845703125
0.1967315673828125,0.0953521728515625,-0.8598480224609375
0.1624298095703125,0.0746917724609375,-0.8908538818359375
0.175018310546875,0.0606689453125,-0.9439849853515624
0.19293212890625,0.103759765625,-0.9656524658203124
0.2306060791015625,0.1864166259765625,-1.1324462890625
0.2420654296875,0.300079345703125,-1.196685791015625
0.208984375,0.2150115966796875,-0.98883056640625
0.12152099609375,0.100921630859375,-0.91827392578125
0.072509765625,-0.0126953125,-0.909515380859375
0.0767364501953125,-0.05047607421875,-0.887725830078125
0.1077117919921875,0.077972412109375,-1.0132904052734375
0.15264892578125,0.2451324462890625,-1.1024017333984375
0.197723388671875,0.28485107421875,-1.0196075439453125
0.172149658203125,0.1634674072265625,-0.91693115234375
0.111358642578125,0.0817718505859375,-0.9534454345703124
0.15252685546875,0.102783203125,-0.9688262939453124
0.1847076416015625,0.142303466796875,-1.0197906494140625
0.2088165283203125,0.1274566650390625,-1.0427703857421875
0.200592041015625,0.106475830078125,-1.03094482421875
0.194183349609375,0.0548553466796875,-1.04437255859375
0.1858367919921875,0.067413330078125,-1.037017822265625
0.15289306640625,0.06915283203125,-1.0009307861328125
0.14508056640625,0.0633392333984375,-0.9656524658203124
0.163848876953125,0.0755157470703125,-0.97320556640625
0.1881256103515625,0.0878143310546875,-0.98260498046875
0.2296142578125,0.090972900390625,-1.0042266845703125
0.2545013427734375,0.0959320068359375,-1.0009765625
0.3314666748046875,0.1451873779296875,-1.08197021484375
0.3940277099609375,0.2369384765625,-1.1432647705078125
0.357208251953125,0.10028076171875,-1.0481719970703125
0.38909912109375,0.1126861572265625,-1.103973388671875
0.3671112060546875,0.1690673828125,-0.9918212890625
0.3638763427734375,0.097076416015625,-0.80010986328125
0.4091033935546875,0.23040771484375,-0.89947509765625
0.44891357421875,0.4168853759765625,-1.120574951171875
0.45513916015625,0.3817138671875,-1.12261962890625
0.5193023681640625,0.215728759765625,-0.9642486572265624
0.521453857421875,0.167144775390625,-0.85784912109375
0.48223876953125,0.257965087890625,-0.906951904296875
0.4806365966796875,0.2722320556640625,-0.9491119384765624
0.4527587890625,0.287017822265625,-0.9638214111328124
0.403228759765625,0.2654571533203125,-0.892608642578125
0.3544464111328125,0.259368896484375,-0.882781982421875
0.319488525390625,0.23590087890625,-0.859954833984375
0.2948455810546875,0.2582855224609375,-0.80364990234375
0.2487335205078125,0.2350311279296875,-0.8351593017578125
0.1950225830078125,0.1811676025390625,-0.8398895263671875
0.164520263671875,0.1202850341796875,-0.8509521484375
0.1215057373046875,0.10968017578125,-0.9032440185546876
0.126251220703125,0.145599365234375,-0.9336090087890624
0.0998687744140625,0.17333984375,-0.9486236572265624
0.0749969482421875,0.1316070556640625,-1.0121002197265625
0.1653900146484375,0.25445556640625,-1.361663818359375
0.2201690673828125,0.4333343505859375,-1.463409423828125
0.22003173828125,0.203216552734375,-1.1114044189453125
0.1149444580078125,-0.0757293701171875,-0.890777587890625
0.1501922607421875,-0.153106689453125,-0.859832763671875
0.2921142578125,0.103240966796875,-1.1698150634765625
0.360565185546875,0.3059234619140625,-1.2681121826171875
0.3229827880859375,0.1846160888671875,-0.9067230224609376
0.284515380859375,0.1255950927734375,-0.821044921875
0.3172607421875,0.145355224609375,-0.9521636962890624
0.3604888916015625,0.236328125,-0.97967529296875
0.3378448486328125,0.255584716796875,-0.93017578125
0.359405517578125,0.188720703125,-0.9246978759765624
0.3661346435546875,0.2261962890625,-0.9688568115234376
0.4093475341796875,0.290771484375,-1.0151824951171875
0.4349365234375,0.312591552734375,-0.9809722900390624
0.42864990234375,0.287200927734375,-0.93756103515625
0.3984527587890625,0.254669189453125,-0.857269287109375
0.35247802734375,0.2345733642578125,-0.841827392578125
0.3218841552734375,0.2464752197265625,-0.8403778076171875
0.309906005859375,0.2820892333984375,-0.8676300048828125
0.2953643798828125,0.28009033203125,-0.893157958984375
0.287109375,0.2555389404296875,-0.9076080322265624
0.2229156494140625,0.2264556884765625,-0.88934326171875
0.190460205078125,0.156341552734375,-0.8834686279296875
0.186126708984375,0.2338104248046875,-1.1312103271484375
0.201751708984375,0.3609619140625,-1.2382965087890625
0.2769775390625,0.2376708984375,-1.1458587646484375
0.2364349365234375,0.072357177734375,-1.1040802001953125
0.18109130859375,-0.0209197998046875,-0.9357452392578124
0.2703704833984375,0.1046600341796875,-0.8826751708984375
0.3515625,0.2139739990234375,-0.8861541748046875
0.3731842041015625,0.204833984375,-0.96551513671875
0.359832763671875,0.1535186767578125,-0.951385498046875
0.3804168701171875,0.1471099853515625,-0.9268035888671876
0.3826446533203125,0.2414093017578125,-0.970733642578125
0.4073333740234375,0.2407684326171875,-0.98504638671875
0.4369354248046875,0.229827880859375,-0.944580078125
0.4116668701171875,0.211090087890625,-0.955230712890625
0.3772430419921875,0.2006988525390625,-0.98602294921875
0.3839263916015625,0.2043914794921875,-0.9612274169921876
0.3715667724609375,0.2254486083984375,-0.9491119384765624
0.3370361328125,0.2111053466796875,-0.90008544921875
0.307281494140625,0.2142181396484375,-0.8874664306640625
0.279205322265625,0.228729248046875,-0.848602294921875
0.2363128662109375,0.2384185791015625,-0.822601318359375
0.179840087890625,0.2276763916015625,-0.826416015625
0.1491851806640625,0.2334747314453125,-0.8619232177734375
0.1362762451171875,0.2181854248046875,-0.9001312255859375
0.1860504150390625,0.36553955078125,-1.16217041015625
0.2095184326171875,0.295257568359375,-1.03399658203125
0.2639617919921875,0.188323974609375,-0.9494476318359376
0.2663726806640625,0.2540740966796875,-1.1620635986328125
0.2535552978515625,0.1088714599609375,-1.137725830078125
0.2535858154296875,-0.0768890380859375,-0.9112396240234376
0.205108642578125,-0.098541259765625,-0.8253631591796875
0.21075439453125,0.0751800537109375,-1.022064208984375
0.2834320068359375,0.2446746826171875,-1.1535797119140625
0.301116943359375,0.214141845703125,-1.0298004150390625
0.217254638671875,0.1357421875,-0.92132568359375
0.17303466796875,0.1333160400390625,-0.9156951904296876
0.215423583984375,0.166015625,-0.9132232666015624
0.2303314208984375,0.2132720947265625,-0.9428558349609376
0.2367706298828125,0.23248291015625,-0.9471588134765624
0.1801910400390625,0.1836395263671875,-0.925689697265625
0.16705322265625,0.1532440185546875,-0.93511962890625
0.19903564453125,0.230499267578125,-1.0268096923828125
0.2322235107421875,0.3150787353515625,-1.114593505859375
0.2277679443359375,0.1852874755859375,-0.995574951171875
0.2662506103515625,0.1485595703125,-0.9662322998046876
0.3547515869140625,0.213531494140625,-0.9877777099609376
0.40643310546875,0.3153228759765625,-0.96710205078125
0.372589111328125,0.3777008056640625,-0.903564453125
0.3732452392578125,0.3052520751953125,-0.84100341796875
0.4185028076171875,0.258819580078125,-0.853118896484375
0.4676513671875,0.239776611328125,-0.8622589111328125
0.4910125732421875,0.2331085205078125,-0.8864593505859375
0.52239990234375,0.218475341796875,-0.881591796875
0.4748992919921875,0.25927734375,-0.900909423828125
0.43634033203125,0.255126953125,-0.9276885986328124
0.4449920654296875,0.234649658203125,-0.9125823974609376
0.4455413818359375,0.2144927978515625,-0.878021240234375
0.4207305908203125,0.2369232177734375,-0.924407958984375
0.3880615234375,0.2467041015625,-0.9799652099609376
0.34539794921875,0.25335693359375,-0.9863128662109376
0.310699462890625,0.2317047119140625,-0.9487152099609376
0.28472900390625,0.24774169921875,-0.9765625
0.2866363525390625,0.393157958984375,-1.1646270751953125
0.250457763671875,0.42156982421875,-1.167938232421875
0.2322235107421875,0.27252197265625,-1.00482177734375
0.1970977783203125,0.107147216796875,-0.882568359375
0.09271240234375,0.015716552734375,-0.861358642578125
0.0828704833984375,0.0800933837890625,-0.8980255126953125
0.1666259765625,0.2740936279296875,-0.9905853271484376
0.222930908203125,0.4215850830078125,-0.9906005859375
0.250701904296875,0.311614990234375,-0.8816680908203125
0.2209625244140625,0.1342926025390625,-0.8355255126953125
0.1444854736328125,0.1006011962890625,-0.898345947265625
0.13690185546875,0.1686553955078125,-0.9571685791015624
0.2021942138671875,0.224029541015625,-0.967803955078125
0.2557830810546875,0.2215118408203125,-0.9254150390625
0.2473297119140625,0.1642608642578125,-0.913543701171875
0.2173614501953125,0.1459808349609375,-0.9588165283203124
0.198333740234375,0.1375579833984375,-0.95770263671875
0.19403076171875,0.1240692138671875,-0.938812255859375
0.19140625,0.1260223388671875,-0.9479827880859376
0.195281982421875,0.1269378662109375,-0.98529052734375
0.212921142578125,0.1126708984375,-1.032012939453125
0.247528076171875,0.090728759765625,-1.0556488037109375
0.296844482421875,0.2573394775390625,-1.302276611328125
0.2569122314453125,0.080780029296875,-1.100830078125
0.26611328125,0.036102294921875,-1.055267333984375
0.27490234375,0.11407470703125,-1.0252227783203125
0.2979736328125,0.150909423828125,-0.9406890869140624
0.2859954833984375,0.1125030517578125,-0.790924072265625
0.3083038330078125,0.1589202880859375,-0.820648193359375
0.3350830078125,0.359130859375,-1.02337646484375
0.352020263671875,0.3876190185546875,-1.05157470703125
0.39923095703125,0.1966705322265625,-1.0129852294921875
0.3972015380859375,0.0742950439453125,-0.939208984375
0.3945465087890625,0.1094818115234375,-0.9398193359375
0.42144775390625,0.2391357421875,-0.9710845947265624
0.46142578125,0.292449951171875,-0.9474639892578124
0.460662841796875,0.310791015625,-0.8956756591796875
0.409637451171875,0.3099517822265625,-0.861663818359375
0.3729400634765625,0.292938232421875,-0.8510284423828125
0.34088134765625,0.2822113037109375,-0.8267669677734375
0.31121826171875,0.3000335693359375,-0.83935546875
0.2684478759765625,0.277313232421875,-0.84124755859375
0.2241973876953125,0.2408294677734375,-0.854217529296875
0.1873321533203125,0.2150726318359375,-0.886260986328125
0.172607421875,0.200103759765625,-0.9255523681640624
0.16943359375,0.202880859375,-1.0066680908203125
0.24456787109375,0.313629150390625,-1.2132568359375
0.29736328125,0.2509613037109375,-1.0938873291015625
0.28680419921875,0.118865966796875,-1.0167388916015625
0.2425384521484375,0.108734130859375,-1.1271209716796875
0.2501678466796875,0.0415496826171875,-1.030731201171875
0.2867431640625,-0.033233642578125,-0.8213653564453125
0.3099517822265625,0.082550048828125,-0.862091064453125
0.40191650390625,0.3010711669921875,-1.0769195556640625
0.4836273193359375,0.3674163818359375,-1.0797882080078125
0.4866943359375,0.225189208984375,-0.8846588134765625
0.42376708984375,0.175537109375,-0.8663787841796875
0.3661346435546875,0.246795654296875,-0.9742584228515624
0.408447265625,0.284912109375,-0.9601898193359376
0.4463348388671875,0.257415771484375,-0.864166259765625
0.4009857177734375,0.232452392578125,-0.8647918701171875
0.35137939453125,0.2089385986328125,-0.9246978759765624
0.34173583984375,0.2228240966796875,-0.9279022216796876
0.3640289306640625,0.2538604736328125,-0.879486083984375
0.3568572998046875,0.27642822265625,-0.86627197265625
0.338653564453125,0.274932861328125,-0.870452880859375
0.3320159912109375,0.2473907470703125,-0.8523712158203125
0.337615966796875,0.2490692138671875,-0.8537445068359375
0.344696044921875,0.261199951171875,-0.8656158447265625
0.3592529296875,0.2464752197265625,-0.876434326171875
0.3649139404296875,0.2740478515625,-0.9537506103515624
0.3528289794921875,0.3023223876953125,-1.0208892822265625
0.31890869140625,0.19232177734375,-0.960968017578125
0.2818603515625,0.1522064208984375,-0.9574127197265624
0.2684326171875,0.155120849609375,-0.958892822265625
0.289520263671875,0.1866607666015625,-0.917877197265625
0.2909088134765625,0.190643310546875,-0.851837158203125
0.31488037109375,0.262054443359375,-0.9681854248046876
0.3533782958984375,0.3487701416015625,-1.09112548828125
0.4142913818359375,0.2357635498046875,-0.9916229248046876
0.4078521728515625,0.135467529296875,-0.91363525390625
0.3443756103515625,0.1438140869140625,-0.9187469482421876
0.3338775634765625,0.1712799072265625,-0.94256591796875
0.336578369140625,0.170989990234375,-0.945068359375
0.3275604248046875,0.1589813232421875,-0.93841552734375
0.339569091796875,0.170379638671875,-0.9232177734375
0.3833465576171875,0.1976318359375,-0.909698486328125
0.420928955078125,0.2044830322265625,-0.8943939208984375
0.4216156005859375,0.2079315185546875,-0.8717803955078125
0.4062347412109375,0.223846435546875,-0.85888671875
0.3868255615234375,0.25750732421875,-0.8675689697265625
0.352813720703125,0.274993896484375,-0.8648834228515625
0.3121490478515625,0.255401611328125,-0.858154296875
0.2609405517578125,0.239013671875,-0.867218017578125
0.22015380859375,0.2074127197265625,-0.87896728515625
0.2273712158203125,0.213134765625,-0.9913787841796876
0.3107452392578125,0.4600677490234375,-1.31134033203125
0.3056793212890625,0.25555419921875,-0.9539031982421876
0.3146514892578125,0.094635009765625,-0.945770263671875
0.216796875,0.2001190185546875,-1.23638916015625
0.25543212890625,-0.04888916015625,-0.9461212158203124
0.3311614990234375,-0.1317138671875,-0.758209228515625
0.3203582763671875,0.1727752685546875,-1.0742950439453125
0.3808441162109375,0.3352203369140625,-1.2333221435546875
0.4517669677734375,0.3097381591796875,-0.9941864013671876
0.4170989990234375,0.240753173828125,-0.8027801513671875
0.3125762939453125,0.2790679931640625,-0.8487548828125
0.296875,0.3100128173828125,-0.8474884033203125
0.3384857177734375,0.324920654296875,-0.7570648193359375
0.3346405029296875,0.3002471923828125,-0.741058349609375
0.29827880859375,0.260009765625,-0.8304290771484375
0.282501220703125,0.2454681396484375,-0.91107177734375
0.294769287109375,0.245880126953125,-0.97442626953125
0.3302459716796875,0.2245941162109375,-0.9799346923828124
0.332305908203125,0.1760101318359375,-0.95135498046875
0.3034210205078125,0.1685028076171875,-0.94415283203125
0.2854156494140625,0.1900634765625,-0.92034912109375
0.287750244140625,0.2172698974609375,-0.9117431640625
0.2882843017578125,0.264678955078125,-0.941619873046875
0.2911529541015625,0.2915802001953125,-0.96771240234375
0.2779388427734375,0.279083251953125,-0.968841552734375
0.2581024169921875,0.226104736328125,-0.9411163330078124
0.23748779296875,0.19793701171875,-0.9227447509765624
0.252227783203125,0.188262939453125,-0.8709564208984375
0.2399444580078125,0.15936279296875,-0.84088134765625
0.2772064208984375,0.2493743896484375,-1.0531463623046875
0.2933197021484375,0.2830657958984375,-1.0931243896484375
0.3095855712890625,0.1143035888671875,-1.0154876708984375
0.32781982421875,0.1047210693359375,-1.0446319580078125
0.36676025390625,0.14501953125,-0.9870147705078124
0.3863067626953125,0.1841888427734375,-0.8341217041015625
0.4012908935546875,0.222503662109375,-0.796234130859375
0.37347412109375,0.341461181640625,-0.9562835693359376
0.384918212890625,0.366851806640625,-0.9981842041015624
0.4022674560546875,0.2746429443359375,-0.944061279296875
0.3759765625,0.174041748046875,-0.911102294921875
0.3802947998046875,0.1505279541015625,-0.9060821533203124
0.4163360595703125,0.2262725830078125,-0.9248809814453124
0.4531402587890625,0.301483154296875,-0.9049835205078124
0.467132568359375,0.3380126953125,-0.895751953125
0.4535980224609375,0.333831787109375,-0.8712615966796875
0.454132080078125,0.3094940185546875,-0.8712615966796875
0.46246337890625,0.3094329833984375,-0.8891754150390625
0.4828948974609375,0.31585693359375,-0.9052581787109376
0.485321044921875,0.3113555908203125,-0.8906097412109375
0.4604644775390625,0.2618408203125,-0.8345794677734375
0.4136199951171875,0.2195587158203125,-0.7940826416015625
0.3740081787109375,0.2371368408203125,-0.7965545654296875
0.3439788818359375,0.2656707763671875,-0.7922515869140625
0.2881622314453125,0.2653961181640625,-0.817962646484375
0.188934326171875,0.3002777099609375,-0.95404052734375
0.262054443359375,0.338226318359375,-1.2082672119140625
0.31982421875,0.509429931640625,-1.305908203125
0.268402099609375,0.26287841796875,-0.949798583984375
0.1323699951171875,0.0190887451171875,-0.795928955078125
-0.0038909912109375,-0.011871337890625,-0.90997314453125
0.1115875244140625,0.05413818359375,-1.00689697265625
0.2750701904296875,0.242584228515625,-1.1086883544921875
0.3309783935546875,0.2774505615234375,-1.050537109375
0.3045654296875,0.169769287109375,-0.988616943359375
0.2384185791015625,0.0760040283203125,-0.957855224609375
0.2159271240234375,0.11419677734375,-0.925811767578125
0.272979736328125,0.2076873779296875,-0.8855438232421875
0.293670654296875,0.2734527587890625,-0.8740997314453125
0.264312744140625,0.276641845703125,-0.9024658203125
0.2119598388671875,0.2444000244140625,-0.927154541015625
0.181976318359375,0.1992034912109375,-0.9527435302734376
0.18634033203125,0.1912384033203125,-0.97119140625
0.2290496826171875,0.1932830810546875,-0.9428253173828124
0.2650604248046875,0.2158660888671875,-0.88818359375
0.268463134765625,0.2149200439453125,-0.8409271240234375
0.2296295166015625,0.2195281982421875,-0.854156494140625
0.2137451171875,0.21380615234375,-0.9248809814453124
0.2075653076171875,0.1770782470703125,-0.9743499755859376
0.280731201171875,0.3029937744140625,-1.1921539306640625
0.2822113037109375,0.3216552734375,-1.2090911865234375
0.30609130859375,0.229339599609375,-1.1177978515625
0.3004302978515625,0.175811767578125,-0.98724365234375
0.2894744873046875,0.099395751953125,-0.76312255859375
0.277801513671875,0.0777130126953125,-0.6916351318359375
0.2759552001953125,0.2583160400390625,-0.9127197265625
0.2671356201171875,0.369537353515625,-1.1322784423828125
0.3017730712890625,0.1946868896484375,-1.1801300048828125
0.2934112548828125,0.0727386474609375,-1.08935546875
0.2946624755859375,0.1599273681640625,-1.0170440673828125
0.3537139892578125,0.26806640625,-0.9887847900390624
0.3853759765625,0.378387451171875,-0.9821319580078124
0.3663482666015625,0.3613739013671875,-0.8973388671875
0.3246612548828125,0.3259735107421875,-0.8250885009765625
0.285491943359375,0.3192901611328125,-0.78228759765625
0.2899932861328125,0.334808349609375,-0.775482177734375
0.297607421875,0.3314361572265625,-0.774200439453125
0.265411376953125,0.2779083251953125,-0.807769775390625
0.220123291015625,0.227691650390625,-0.8831787109375
0.1893463134765625,0.2014312744140625,-0.9565277099609376
0.1709747314453125,0.1511993408203125,-0.98211669921875
0.2181243896484375,0.2072601318359375,-1.15625
0.2765655517578125,0.2982025146484375,-1.2530975341796875
0.2835845947265625,0.09820556640625,-0.948333740234375
0.2337799072265625,-0.0101776123046875,-0.8742828369140625
0.1835174560546875,0.0360260009765625,-0.9823455810546876
0.3069305419921875,0.1606597900390625,-1.06781005859375
0.4375152587890625,0.3435516357421875,-1.0846710205078125
0.4355621337890625,0.3845977783203125,-0.9929656982421876
0.3746490478515625,0.253387451171875,-0.9015655517578124
0.3154144287109375,0.1728973388671875,-0.908538818359375
0.276763916015625,0.2273712158203125,-0.946014404296875
0.30206298828125,0.2994232177734375,-0.9323883056640624
0.3038330078125,0.276519775390625,-0.8925018310546875
0.281768798828125,0.21630859375,-0.9080047607421876
0.2641448974609375,0.18408203125,-0.971405029296875
0.29376220703125,0.186676025390625,-0.978759765625
0.34710693359375,0.2057647705078125,-0.9159698486328124
0.3579559326171875,0.235443115234375,-0.8668060302734375
0.3531951904296875,0.258880615234375,-0.85443115234375
0.3492279052734375,0.246368408203125,-0.8350677490234375
0.3444671630859375,0.2277374267578125,-0.8165283203125
0.32733154296875,0.2331390380859375,-0.836181640625
0.3167724609375,0.2370147705078125,-0.8548736572265625
0.3535919189453125,0.3897247314453125,-1.084136962890625
0.288238525390625,0.365753173828125,-1.049346923828125
0.2924346923828125,0.163665771484375,-0.9407196044921876
0.2590179443359375,0.197540283203125,-1.0544891357421875
0.26068115234375,0.21875,-0.951385498046875
0.3025360107421875,0.183990478515625,-0.7744903564453125
0.2932891845703125,0.29180908203125,-0.91375732421875
0.2890777587890625,0.3337249755859375,-1.06951904296875
0.3333587646484375,0.217010498046875,-1.0071258544921875
0.3349609375,0.1451263427734375,-0.90313720703125
0.29290771484375,0.2129669189453125,-0.9225311279296876
0.3267822265625,0.260223388671875,-0.92816162109375
0.350311279296875,0.2465057373046875,-0.90252685546875
0.3472442626953125,0.2004852294921875,-0.89654541015625
0.350677490234375,0.1996307373046875,-0.929901123046875
0.37432861328125,0.202392578125,-0.9409637451171876
0.3999176025390625,0.1834564208984375,-0.9099884033203124
0.3857574462890625,0.1646270751953125,-0.8985748291015625
0.3553009033203125,0.1954345703125,-0.9364166259765624
0.3356475830078125,0.2232208251953125,-0.9334564208984376
0.279754638671875,0.2333984375,-0.9695892333984376
0.2479095458984375,0.1674957275390625,-0.9573822021484376
0.2287750244140625,0.1569061279296875,-0.9521331787109376
0.2335662841796875,0.174530029296875,-0.9502105712890624
0.2515869140625,0.181793212890625,-0.889678955078125
0.2384490966796875,0.1953277587890625,-0.903900146484375
0.3475494384765625,0.385986328125,-1.23284912109375
0.34698486328125,0.3586273193359375,-1.0686798095703125
0.3225555419921875,0.1630706787109375,-1.0165252685546875
0.2243194580078125,0.139984130859375,-1.3755645751953125
0.15380859375,-0.1266632080078125,-1.0523223876953125
0.166168212890625,-0.2338409423828125,-0.76416015625
0.2298126220703125,-0.017791748046875,-0.913116455078125
0.405792236328125,0.22882080078125,-1.21435546875
0.5464630126953125,0.33514404296875,-1.201171875
0.5935821533203125,0.33843994140625,-1.004241943359375
0.48321533203125,0.372467041015625,-0.8939056396484375
0.366119384765625,0.3946533203125,-0.8899688720703125
0.35015869140625,0.3876800537109375,-0.8282470703125
0.347686767578125,0.380706787109375,-0.7225799560546875
0.3018341064453125,0.33917236328125,-0.669952392578125
0.249847412109375,0.2915496826171875,-0.721588134765625
0.2120208740234375,0.2376861572265625,-0.8167724609375
0.1909942626953125,0.1988067626953125,-0.9358367919921876
0.156341552734375,0.170928955078125,-1.000823974609375
0.146697998046875,0.136077880859375,-1.0143890380859375
0.1291656494140625,0.10797119140625,-1.021453857421875
0.146636962890625,0.1232757568359375,-1.06671142578125
0.1832275390625,0.11883544921875,-1.04888916015625
0.2009429931640625,0.1017608642578125,-1.0160064697265625
0.2032318115234375,0.112579345703125,-0.99591064453125
0.234405517578125,0.1700592041015625,-1.0533599853515625
0.283477783203125,0.2293548583984375,-1.092315673828125
0.2731475830078125,0.1177978515625,-0.93505859375
0.3270416259765625,0.089874267578125,-1.058624267578125
0.358001708984375,0.1297607421875,-1.1692657470703125
0.42706298828125,0.1155548095703125,-1.0018463134765625
0.4360504150390625,0.148193359375,-0.871490478515625
0.376495361328125,0.2201995849609375,-0.8987274169921875
0.3861846923828125,0.2676849365234375,-0.985626220703125
0.3703155517578125,0.2628936767578125,-1.0227203369140625
0.341094970703125,0.184722900390625,-0.9612884521484376
0.3438720703125,0.1046142578125,-0.929229736328125
0.3143310546875,0.104644775390625,-0.9450531005859376
0.3289642333984375,0.17376708984375,-0.9670867919921876
0.380767822265625,0.2398681640625,-0.9752349853515624
0.432891845703125,0.265960693359375,-0.94976806640625
0.4445037841796875,0.2360992431640625,-0.931121826171875
0.4502105712890625,0.2332305908203125,-0.9339752197265624
0.483489990234375,0.2642822265625,-0.94732666015625
0.53924560546875,0.274444580078125,-0.9091339111328124
0.560546875,0.270263671875,-0.8347625732421875
0.5595550537109375,0.245330810546875,-0.82550048828125
0.5064849853515625,0.2498321533203125,-0.877105712890625
0.4633941650390625,0.263092041015625,-0.9218292236328124
0.417327880859375,0.2828369140625,-0.9583740234375
0.34210205078125,0.266998291015625,-0.9105377197265624
0.290802001953125,0.277618408203125,-0.988739013671875
0.259521484375,0.488372802734375,-1.2588958740234375
0.1832427978515625,0.4119110107421875,-1.0243377685546875
0.134979248046875,0.124114990234375,-0.7039337158203125
0.0091094970703125,-0.0293121337890625,-0.630706787109375
0.0065460205078125,0.0518646240234375,-0.8612823486328125
0.168670654296875,0.336151123046875,-1.1222076416015625
0.3129425048828125,0.3675994873046875,-1.0211944580078125
0.37066650390625,0.2275543212890625,-0.857757568359375
0.3292999267578125,0.1524200439453125,-0.9039764404296876
0.3192138671875,0.118560791015625,-1.0473785400390625
0.4121551513671875,0.16015625,-1.020111083984375
0.4537811279296875,0.22003173828125,-0.94085693359375
0.4019775390625,0.2028350830078125,-0.9158782958984376
0.335052490234375,0.1507568359375,-0.923370361328125
0.287506103515625,0.13824462890625,-0.923858642578125
0.2657928466796875,0.161224365234375,-0.940338134765625
0.2567596435546875,0.169891357421875,-0.93115234375
0.270538330078125,0.143218994140625,-0.928131103515625
0.27734375,0.1486968994140625,-0.9255218505859376
0.306121826171875,0.14947509765625,-0.944976806640625
0.3488922119140625,0.163909912109375,-0.9888458251953124
0.3665618896484375,0.14410400390625,-0.9363250732421876
0.39788818359375,0.1878204345703125,-1.0193939208984375
0.4326934814453125,0.380523681640625,-1.212371826171875
0.5325927734375,0.3010406494140625,-1.2832794189453125
0.5139617919921875,0.0984954833984375,-1.01666259765625
0.5109710693359375,0.05230712890625,-0.8606414794921875
0.521514892578125,0.25335693359375,-0.905517578125
0.5101776123046875,0.3592987060546875,-0.995635986328125
0.5472869873046875,0.351470947265625,-1.063720703125
0.5658416748046875,0.334136962890625,-0.96832275390625
0.55908203125,0.4163818359375,-0.93267822265625
0.5280609130859375,0.4486083984375,-0.92578125
0.532928466796875,0.3926849365234375,-0.940155029296875
0.5128936767578125,0.3671417236328125,-0.90814208984375
0.4913330078125,0.33319091796875,-0.78509521484375
0.454254150390625,0.30718994140625,-0.736968994140625
0.4004058837890625,0.31817626953125,-0.7648468017578125
0.359588623046875,0.3603515625,-0.8348236083984375
0.32159423828125,0.3994293212890625,-0.8452301025390625
0.284942626953125,0.3096923828125,-0.8082275390625
0.2744903564453125,0.2960357666015625,-0.896942138671875
0.1834716796875,0.2667236328125,-0.875579833984375
0.2271728515625,0.31976318359375,-1.20196533203125
0.07916259765625,0.5235137939453125,-1.189788818359375
0.106689453125,0.302734375,-0.876678466796875
0.0608673095703125,0.1452789306640625,-1.0067596435546875
-0.0843658447265625,0.0246734619140625,-1.061981201171875
-0.0227203369140625,0.049591064453125,-0.9736328125
0.155731201171875,0.2532196044921875,-0.9603729248046876
0.3403778076171875,0.3591461181640625,-0.9651031494140624
0.4207305908203125,0.33343505859375,-0.99658203125
0.3644561767578125,0.287322998046875,-1.0354461669921875
0.3212738037109375,0.2510223388671875,-1.0152435302734375
0.302520751953125,0.2515411376953125,-0.9544219970703124
0.32965087890625,0.243804931640625,-0.868316650390625
0.356475830078125,0.2460479736328125,-0.8064422607421875
0.3638153076171875,0.2538604736328125,-0.8234710693359375
0.3528289794921875,0.264923095703125,-0.846282958984375
0.3676910400390625,0.26922607421875,-0.839752197265625
0.3853302001953125,0.263580322265625,-0.820465087890625
0.37060546875,0.214324951171875,-0.7849578857421875
0.31622314453125,0.2168121337890625,-0.802398681640625
0.2780609130859375,0.2433319091796875,-0.8474273681640625
0.2913360595703125,0.27557373046875,-0.8822174072265625
0.305908203125,0.28057861328125,-0.912139892578125
0.400482177734375,0.3857574462890625,-1.1609344482421875
0.3952178955078125,0.37652587890625,-1.2281494140625
0.4403076171875,0.232818603515625,-1.2379150390625
0.4486083984375,0.117828369140625,-1.1039276123046875
0.4833831787109375,0.2280120849609375,-0.9889068603515624
0.4948272705078125,0.2812042236328125,-0.8172149658203125
0.4360198974609375,0.31585693359375,-0.840118408203125
0.395660400390625,0.3477630615234375,-0.9412994384765624
0.3642425537109375,0.3726654052734375,-0.9581756591796876
0.3959503173828125,0.3635406494140625,-0.899078369140625
0.4355926513671875,0.4091339111328125,-0.856231689453125
0.4300384521484375,0.41351318359375,-0.8609161376953125
0.458251953125,0.388641357421875,-0.8852081298828125
0.458160400390625,0.360687255859375,-0.83953857421875
0.4322357177734375,0.335693359375,-0.7714385986328125
0.3792724609375,0.340576171875,-0.802734375
0.32879638671875,0.3474273681640625,-0.853607177734375
0.2957916259765625,0.3424072265625,-0.8367156982421875
0.236297607421875,0.3607025146484375,-0.8368072509765625
0.1725921630859375,0.2928466796875,-0.840057373046875
0.2044525146484375,0.2101593017578125,-0.90899658203125
0.1682586669921875,0.19073486328125,-0.976898193359375
0.2225341796875,0.0848236083984375,-1.0500640869140625
0.1921234130859375,0.173370361328125,-1.1282806396484375
0.290740966796875,0.4205169677734375,-1.3395538330078125
0.3598175048828125,0.4106597900390625,-1.2535858154296875
0.3365478515625,0.1345977783203125,-1.1210174560546875
0.315155029296875,0.01751708984375,-1.118927001953125
0.2496795654296875,0.0267333984375,-1.0559539794921875
0.308013916015625,0.1065216064453125,-0.951568603515625
0.3742523193359375,0.304534912109375,-1.2841644287109375
0.4081878662109375,0.531158447265625,-1.0639801025390625
0.5999908447265625,0.474456787109375,-0.96063232421875
0.742279052734375,0.3027801513671875,-1.0128631591796875
0.775970458984375,0.36602783203125,-0.7722625732421875
0.83551025390625,0.38092041015625,-0.618316650390625
0.833251953125,0.29498291015625,-0.632720947265625
0.616119384765625,0.1806793212890625,-0.6788330078125
0.3505096435546875,0.0523681640625,-0.5897979736328125
0.3874664306640625,0.0167083740234375,-0.422943115234375
0.5063629150390625,-0.0368499755859375,-0.52728271484375
0.480194091796875,-0.1607208251953125,-0.61700439453125
0.4058074951171875,-0.2033843994140625,-0.4915008544921875
0.232513427734375,-0.1214447021484375,-0.92095947265625
0.144134521484375,-0.1278533935546875,-0.94287109375
0.14703369140625,-0.1387176513671875,-0.9998016357421876
0.074432373046875,-0.1913604736328125,-1.0477447509765625
0.1598052978515625,-0.2412872314453125,-1.151397705078125
0.1588287353515625,-0.1595458984375,-1.1402130126953125
0.069580078125,-0.121551513671875,-1.0250091552734375
0.1488037109375,-0.0270538330078125,-1.1304931640625
0.172027587890625,0.0146331787109375,-1.20062255859375
0.0607757568359375,0.0799407958984375,-1.05078125
0.11773681640625,-0.08197021484375,-1.0489959716796875
0.0130462646484375,0.1567230224609375,-0.7566375732421875
0.2099151611328125,0.069671630859375,-1.00653076171875
0.116668701171875,-0.026611328125,-1.0274658203125
0.0829010009765625,-0.11566162109375,-0.9684906005859376
0.0497283935546875,-0.1510772705078125,-0.8992919921875
0.01812744140625,-0.064117431640625,-0.907379150390625
0.0725250244140625,-0.1953582763671875,-0.8823089599609375
0.0652008056640625,-0.1188812255859375,-0.949005126953125
-0.0377044677734375,-0.1732177734375,-0.9816436767578124
-0.0289459228515625,-0.215972900390625,-0.8752899169921875
-0.0553741455078125,-0.1927032470703125,-0.890472412109375
-0.0407867431640625,-0.1697998046875,-0.87823486328125
-0.0734100341796875,-0.2267608642578125,-0.88946533203125
-0.01531982421875,-0.197601318359375,-0.97265625
-0.0618743896484375,-0.02984619140625,-0.9620208740234376
-0.0301361083984375,-0.11712646484375,-1.1789093017578125
-0.0757293701171875,0.0262908935546875,-1.0498046875
0.1075897216796875,-0.1946563720703125,-1.13275146484375
0.104705810546875,-0.1151580810546875,-1.0385284423828125
0.129852294921875,-0.0228424072265625,-1.037445068359375
0.1263427734375,-0.0130615234375,-1.01397705078125
0.1030731201171875,-0.042022705078125,-0.9940032958984376
0.1521759033203125,-0.038848876953125,-1.0331573486328125
0.166412353515625,0.05120849609375,-1.06097412109375
0.1381683349609375,-0.0115203857421875,-0.9642486572265624
0.125518798828125,-0.03656005859375,-0.840911865234375
0.10711669921875,0.0249786376953125,-0.9886016845703124
0.0753631591796875,0.004364013671875,-0.9702911376953124
0.1512908935546875,-0.05963134765625,-0.9275360107421876
0.19305419921875,-0.163177490234375,-0.9635467529296876
0.1873321533203125,-0.0628814697265625,-1.0793609619140625
0.16046142578125,-0.052764892578125,-1.081878662109375
0.1486358642578125,-0.0547943115234375,-1.0157928466796875
0.1221466064453125,-0.0347900390625,-1.052337646484375
0.09710693359375,-0.032958984375,-1.0034332275390625
0.0972900390625,-0.062255859375,-0.990936279296875
0.0995635986328125,-0.03277587890625,-0.9539794921875
0.10308837890625,-0.014190673828125,-0.993621826171875
0.0984954833984375,0.001922607421875,-1.0419464111328125
0.089447021484375,-0.0123748779296875,-1.046142578125
0.0914459228515625,-0.049957275390625,-1.0155029296875
0.08245849609375,-0.0414276123046875,-0.9631195068359376
0.0796051025390625,-0.021453857421875,-1.0054779052734375
0.1066436767578125,-0.02398681640625,-1.0506591796875
0.1501312255859375,-0.0515594482421875,-0.9646759033203124
0.148834228515625,-0.059539794921875,-0.890594482421875
0.1570892333984375,-0.02191162109375,-1.04583740234375
0.176513671875,-0.0382843017578125,-1.0031890869140625
0.184722900390625,-0.0371856689453125,-1.02752685546875
0.1873779296875,-0.0369720458984375,-1.04058837890625
0.1876220703125,-0.0372467041015625,-1.0380706787109375
0.1816253662109375,-0.0279083251953125,-0.9816436767578124
0.17864990234375,-0.0197601318359375,-1.001312255859375
0.18817138671875,-0.010589599609375,-0.97479248046875
0.1992340087890625,0.011474609375,-1.0037689208984375
0.161773681640625,0.00665283203125,-1.009521484375
0.1575469970703125,0.00079345703125,-0.9927520751953124
0.1499786376953125,-0.0334930419921875,-0.9982452392578124
0.0967559814453125,-0.0050048828125,-0.9618682861328124
0.0983734130859375,0.00732421875,-0.95379638671875
0.1331634521484375,0.0088653564453125,-0.9908599853515624
0.11712646484375,0.034759521484375,-1.0171966552734375
0.1382293701171875,0.0458221435546875,-0.9773406982421876
0.150177001953125,0.005126953125,-1.030242919921875
0.15838623046875,0.026763916015625,-1.04400634765625
0.138824462890625,0.0179901123046875,-1.052978515625
0.1269683837890625,0.00543212890625,-1.0483245849609375
0.0919036865234375,0.0249176025390625,-1.0141143798828125
0.1173248291015625,0.0141448974609375,-1.0174560546875
0.1261444091796875,-0.0133209228515625,-1.0138397216796875
0.0918121337890625,-0.01251220703125,-1.031280517578125
0.0386199951171875,-0.003204345703125,-0.9983367919921876
0.0388031005859375,-0.0552978515625,-1.01043701171875
0.0301513671875,-0.0495147705078125,-0.9485015869140624
0.04937744140625,-0.036407470703125,-0.939849853515625
0.061981201171875,-0.001495361328125,-0.8906097412109375
0.0915679931640625,-0.0297088623046875,-0.97418212890625
0.179351806640625,-0.06402587890625,-1.06866455078125
0.284637451171875,-0.0745849609375,-0.8642578125
0.204864501953125,0.0059051513671875,-0.903961181640625
0.2255706787109375,0.00836181640625,-1.0374755859375
0.2761077880859375,0.106597900390625,-1.0475616455078125
0.3685455322265625,0.055694580078125,-1.0497589111328125
0.4805755615234375,-0.0110321044921875,-1.0740814208984375
0.5406036376953125,-0.0057830810546875,-0.958343505859375
0.5500640869140625,0.009063720703125,-0.86700439453125
0.4836883544921875,-0.0086822509765625,-0.8517608642578125
0.48712158203125,0.007598876953125,-0.7988739013671875
0.568634033203125,0.0176239013671875,-0.7497711181640625
0.5627593994140625,0.0191192626953125,-0.7598724365234375
0.6149444580078125,0.0333099365234375,-0.663360595703125
0.593170166015625,0.01849365234375,-0.5853271484375
0.6418609619140625,0.024627685546875,-0.6293182373046875
0.61004638671875,0.0306549072265625,-0.6400604248046875
0.588104248046875,0.028045654296875,-0.6784515380859375
0.5453643798828125,0.00506591796875,-0.7272796630859375
0.490966796875,0.047882080078125,-0.764312744140625
0.4798431396484375,0.095001220703125,-0.8196563720703125
0.4911346435546875,0.156768798828125,-0.8455810546875
0.36956787109375,0.336212158203125,-0.900360107421875
0.4117279052734375,0.3728179931640625,-0.83807373046875
0.4299163818359375,0.5158538818359375,-1.02880859375
0.359893798828125,0.4855194091796875,-0.8848724365234375
0.3943939208984375,0.4231414794921875,-0.77044677734375
0.3777313232421875,0.4240264892578125,-0.7674407958984375
0.3969268798828125,0.5109405517578125,-1.129638671875
0.506103515625,0.42681884765625,-1.1265411376953125
0.48541259765625,0.3479461669921875,-1.060333251953125
0.3876800537109375,0.24151611328125,-0.96685791015625
0.2639312744140625,0.2185821533203125,-0.9398040771484376
0.228179931640625,0.231781005859375,-0.92572021484375
0.2264404296875,0.3152923583984375,-0.92822265625
0.136749267578125,0.271728515625,-1.0552215576171875
0.148040771484375,0.30364990234375,-0.989532470703125
0.2440338134765625,0.33233642578125,-0.8425445556640625
0.210174560546875,0.3203125,-0.9022674560546876
0.2225341796875,0.3232421875,-0.9654693603515624
0.2758026123046875,0.372222900390625,-1.02569580078125
0.2942352294921875,0.32122802734375,-0.98089599609375
0.2263031005859375,0.2947540283203125,-0.93365478515625
0.1842803955078125,0.27117919921875,-0.9547119140625
0.1453704833984375,0.224456787109375,-0.9540252685546876
0.0980682373046875,0.1928863525390625,-0.9432525634765624
0.1041107177734375,0.18328857421875,-1.0224609375
0.122344970703125,0.16546630859375,-1.064422607421875
0.11676025390625,0.110076904296875,-1.0306549072265625
0.112274169921875,0.028900146484375,-0.9723968505859376
0.1241302490234375,-0.0277099609375,-0.97412109375
0.1034393310546875,-0.049346923828125,-1.03338623046875
0.134368896484375,-0.0273895263671875,-0.9976959228515624
0.160858154296875,-0.0184326171875,-1.0025482177734375
0.1493072509765625,-0.0902099609375,-1.0347442626953125
0.1236724853515625,-0.174896240234375,-1.0812530517578125
0.154205322265625,-0.2355194091796875,-1.09942626953125
0.1623687744140625,-0.281280517578125,-1.128143310546875
0.1582794189453125,-0.300750732421875,-1.0931243896484375
0.1233062744140625,-0.3020477294921875,-1.0906524658203125
0.1838531494140625,-0.32415771484375,-1.1962890625
0.2568817138671875,-0.212982177734375,-1.273101806640625
0.257049560546875,-0.177001953125,-1.284332275390625
0.216552734375,-0.0475921630859375,-1.304107666015625
0.1190338134765625,0.1666259765625,-0.936370849609375
0.0295257568359375,0.0080718994140625,-0.0645751953125
0.01458740234375,0.0074615478515625,-0.0069427490234375
0.01336669921875,0.0078582763671875,-0.0094146728515625
0.014801025390625,0.0072784423828125,-0.015289306640625
0.0147857666015625,0.007080078125,-0.02362060546875
0.0141448974609375,0.005523681640625,-0.034423828125
0.0146636962890625,0.003997802734375,-0.0419158935546875
0.0156707763671875,0.0041961669921875,-0.04901123046875
0.01324462890625,0.0050506591796875,-0.05950927734375
1.971710205078125,-0.68096923828125,-8.176544189453125
-0.1466827392578125,0.169036865234375,-2.1953887939453125
0.0019683837890625,0.0688323974609375,-0.0714263916015625
0.1924896240234375,-0.11273193359375,-0.08587646484375
0.3924713134765625,-0.2451324462890625,-0.4252166748046875
0.74542236328125,-0.429046630859375,-1.220184326171875
0.759796142578125,-0.335906982421875,-1.0301971435546875
0.43634033203125,-0.253662109375,-0.7098541259765625
0.4059906005859375,-0.218719482421875,-0.917266845703125
0.4688568115234375,-0.2523193359375,-0.8969268798828125
0.423187255859375,-0.234100341796875,-0.872039794921875
0.4396514892578125,-0.2484893798828125,-0.8783111572265625
0.4303131103515625,-0.2444610595703125,-0.867095947265625
0.43585205078125,-0.245147705078125,-0.87322998046875
0.4343719482421875,-0.246368408203125,-0.8708343505859375
0.433868408203125,-0.244476318359375,-0.869964599609375
0.436126708984375,-0.2469940185546875,-0.8722381591796875
0.431854248046875,-0.244720458984375,-0.8710479736328125
0.436859130859375,-0.2468719482421875,-0.8726959228515625
0.43328857421875,-0.2458648681640625,-0.8699188232421875
0.43572998046875,-0.247283935546875,-0.871429443359375
0.4340972900390625,-0.2455902099609375,-0.8704833984375
0.435302734375,-0.2461090087890625,-0.8705291748046875
0.4267578125,-0.2459259033203125,-0.8841552734375
0.4394989013671875,-0.247711181640625,-0.8662261962890625
0.42742919921875,-0.2429351806640625,-0.8668670654296875
0.4400634765625,-0.25457763671875,-0.8708953857421875
0.4299774169921875,-0.242767333984375,-0.867645263671875
0.4357757568359375,-0.2472686767578125,-0.8757476806640625
0.4320526123046875,-0.2455902099609375,-0.871002197265625
0.435699462890625,-0.247528076171875,-0.8723907470703125
0.435028076171875,-0.246551513671875,-0.8699188232421875
0.52423095703125,-0.3295745849609375,-0.927490234375
0.4730377197265625,-0.1509552001953125,-1.113433837890625
0.4537353515625,-0.2863006591796875,-0.5948333740234375
0.47821044921875,-0.291229248046875,-0.842803955078125
0.4674072265625,-0.2506561279296875,-0.8647308349609375
0.4683380126953125,-0.263641357421875,-0.8285064697265625
0.4585723876953125,-0.2566070556640625,-0.855194091796875
0.4724884033203125,-0.2627410888671875,-0.8573455810546875
0.4561614990234375,-0.2570343017578125,-0.841156005859375
0.45806884765625,-0.2569122314453125,-0.848602294921875
0.4717254638671875,-0.262969970703125,-0.8582611083984375
0.471527099609375,-0.24169921875,-0.8133544921875
0.4634552001953125,-0.270751953125,-0.87957763671875
