AccelerationX,AccelerationY,AccelerationZ
-0.2723236083984375,0.75506591796875,-0.5782012939453125
-0.315277099609375,0.739349365234375,-0.5070648193359375
-0.2850494384765625,0.7754669189453125,-0.563720703125
-0.2881927490234375,0.7768096923828125,-0.5733184814453125
-0.299774169921875,0.7589569091796875,-0.5728607177734375
-0.283203125,0.760833740234375,-0.5498809814453125
-0.2846221923828125,0.754791259765625,-0.55072021484375
-0.3116302490234375,0.75225830078125,-0.588836669921875
-0.3110809326171875,0.756011962890625,-0.5454254150390625
-0.3155059814453125,0.7632598876953125,-0.5523529052734375
-0.29827880859375,0.7625274658203125,-0.5501556396484375
-0.3095703125,0.751007080078125,-0.55462646484375
-0.3410797119140625,0.7611083984375,-0.5270843505859375
-0.3091583251953125,0.778167724609375,-0.562469482421875
-0.317138671875,0.7661285400390625,-0.5205841064453125
-0.321807861328125,0.7136077880859375,-0.529022216796875
-0.4217987060546875,0.6433563232421875,-0.37255859375
-0.39569091796875,0.76397705078125,-0.2989501953125
-0.3000640869140625,0.842498779296875,-0.3699798583984375
-0.3869171142578125,0.8520355224609375,-0.4892425537109375
-0.5223541259765625,0.8295135498046875,-0.4578399658203125
-0.6420440673828125,0.815643310546875,-0.3288116455078125
-0.6445770263671875,0.7844085693359375,-0.31817626953125
-0.59466552734375,0.7730865478515625,-0.273529052734375
-0.5193939208984375,0.8096923828125,-0.29827880859375
-0.5691986083984375,0.7700347900390625,-0.1936187744140625
-0.61517333984375,0.7095489501953125,-0.114990234375
-0.6169281005859375,0.721221923828125,-0.0555572509765625
-0.6153411865234375,0.7680816650390625,-0.0910186767578125
-0.69287109375,0.769927978515625,-0.0507354736328125
-0.7467803955078125,0.7619781494140625,0.0154266357421875
-0.733489990234375,0.7440032958984375,0.13250732421875
-0.6981048583984375,0.7463226318359375,0.1411590576171875
-0.711029052734375,0.751739501953125,0.1124420166015625
-0.8442230224609375,0.81982421875,0.04791259765625
-0.8760528564453125,0.9056549072265624,0.0677642822265625
-0.833038330078125,0.8652191162109375,-0.0280303955078125
-0.7574005126953125,0.69512939453125,-0.107574462890625
-0.7729644775390625,0.8157501220703125,-0.0351715087890625
-0.704559326171875,0.9795989990234376,-0.0160980224609375
-0.576202392578125,0.9395294189453124,-0.009857177734375
-0.519561767578125,0.7891082763671875,-0.0097808837890625
-0.4922027587890625,0.7107391357421875,0.0167388916015625
-0.444122314453125,0.6934051513671875,0.032562255859375
-0.358245849609375,0.730316162109375,-0.0044708251953125
-0.350738525390625,0.71734619140625,0.04571533203125
-0.468414306640625,0.757659912109375,0.14007568359375
-0.5337066650390625,0.8571624755859375,0.169525146484375
-0.5491943359375,0.8722076416015625,0.1241302490234375
-0.5949249267578125,0.8836822509765625,0.064544677734375
-0.6391143798828125,0.985504150390625,0.0643463134765625
-0.6666717529296875,0.9835052490234376,0.003814697265625
-0.6743621826171875,0.83111572265625,-0.071197509765625
-0.788482666015625,0.713531494140625,-0.103515625
-0.8597259521484375,0.7544708251953125,-0.0830841064453125
-0.8167724609375,0.740966796875,-0.010467529296875
-0.7916717529296875,0.61053466796875,0.0043182373046875
-0.7252197265625,0.602935791015625,-0.023468017578125
-0.69146728515625,0.6540374755859375,-0.008636474609375
-0.687774658203125,0.6768798828125,0.04901123046875
-0.68988037109375,0.707977294921875,0.044921875
-0.773468017578125,0.816375732421875,-0.0250396728515625
-0.808807373046875,0.87823486328125,-0.0908660888671875
-0.7986602783203125,0.8423919677734375,-0.085205078125
-0.7718658447265625,0.863311767578125,-0.0384063720703125
-0.7608642578125,1.0204620361328125,-0.0220489501953125
-0.68951416015625,1.0169219970703125,-0.08642578125
-0.66387939453125,0.7490386962890625,-0.088104248046875
-0.7177734375,0.7830657958984375,0.0004425048828125
-0.594757080078125,0.8995208740234375,-0.0464935302734375
-0.3885040283203125,0.8145294189453125,-0.10040283203125
-0.389984130859375,0.64215087890625,-0.031585693359375
-0.4312591552734375,0.592132568359375,0.012115478515625
-0.427978515625,0.635009765625,0.004638671875
-0.4596099853515625,0.6533966064453125,0.025665283203125
-0.5357818603515625,0.6879119873046875,0.1160888671875
-0.6147003173828125,0.7678070068359375,0.1497344970703125
-0.674224853515625,0.89666748046875,0.06304931640625
-0.667236328125,0.87310791015625,-0.0154876708984375
-0.7364044189453125,0.810272216796875,-0.0101318359375
-0.785919189453125,0.8399810791015625,0.0096588134765625
-0.69573974609375,0.7707061767578125,-0.04034423828125
-0.775482177734375,0.74932861328125,-0.041259765625
-0.857635498046875,0.802154541015625,-0.115936279296875
-0.885498046875,0.6931915283203125,-0.1630706787109375
-0.85540771484375,0.611602783203125,-0.163909912109375
-0.715606689453125,0.6477203369140625,-0.0911102294921875
-0.63671875,0.7288970947265625,-0.0648956298828125
-0.5889434814453125,0.75848388671875,-0.09197998046875
-0.626220703125,0.7368316650390625,-0.0970001220703125
-0.6952362060546875,0.6848907470703125,-0.0382232666015625
-0.7019195556640625,0.75616455078125,-0.015533447265625
-0.6679229736328125,0.85601806640625,-0.0703887939453125
-0.642852783203125,0.88909912109375,-0.1385345458984375
-0.6775665283203125,1.078826904296875,-0.1641387939453125
-0.645111083984375,1.0253448486328125,-0.2192230224609375
-0.679901123046875,0.913177490234375,-0.0821533203125
-0.60198974609375,0.9011688232421876,-0.105682373046875
-0.56878662109375,0.8641204833984375,-0.2059478759765625
-0.56134033203125,0.7507476806640625,-0.1989898681640625
-0.5419921875,0.6447601318359375,-0.070037841796875
-0.544525146484375,0.62530517578125,-0.0568389892578125
-0.5114593505859375,0.6659698486328125,-0.0390167236328125
-0.48455810546875,0.7213592529296875,0.012908935546875
-0.464385986328125,0.7703857421875,0.010009765625
-0.5280914306640625,0.83544921875,-0.0161895751953125
-0.5643463134765625,0.9146881103515624,-0.0107269287109375
-0.5655670166015625,0.8705902099609375,-0.0272674560546875
-0.6443634033203125,0.8332977294921875,0.0235443115234375
-0.6705780029296875,1.0260467529296875,0.0494384765625
-0.5148468017578125,0.76507568359375,-0.0680999755859375
-0.6608123779296875,0.7451629638671875,-0.0333404541015625
-0.69134521484375,0.830535888671875,0.0068359375
-0.660369873046875,0.7672882080078125,0.00628662109375
-0.6564483642578125,0.61651611328125,-0.016082763671875
-0.665985107421875,0.573394775390625,-0.011962890625
-0.6236572265625,0.6645965576171875,0.0248870849609375
-0.6223602294921875,0.7374420166015625,0.0272064208984375
-0.698455810546875,0.7688446044921875,0.00299072265625
-0.770782470703125,0.80535888671875,-0.020965576171875
-0.798614501953125,0.8171539306640625,-0.0424652099609375
-0.7458343505859375,0.777069091796875,-0.00634765625
-0.745330810546875,0.8839874267578125,0.0221710205078125
-0.72283935546875,1.1276092529296875,-0.076568603515625
-0.69317626953125,0.9138946533203124,-0.070404052734375
-0.744964599609375,0.901702880859375,-0.0315399169921875
-0.61273193359375,0.8817596435546875,-0.078887939453125
-0.5146026611328125,0.8264923095703125,-0.0706787109375
-0.558807373046875,0.740631103515625,-0.0593719482421875
-0.535186767578125,0.7146148681640625,-0.008453369140625
-0.49755859375,0.7115478515625,0.0214996337890625
-0.5293121337890625,0.7114410400390625,-0.012481689453125
-0.51171875,0.7084808349609375,-0.0215301513671875
-0.4916839599609375,0.72357177734375,-0.0244140625
-0.504180908203125,0.7884368896484375,0.0013275146484375
-0.5088958740234375,0.853485107421875,0.021209716796875
-0.56744384765625,0.8174285888671875,0.0225982666015625
-0.6761932373046875,0.986846923828125,0.047698974609375
-0.533935546875,0.9204559326171876,-0.0390777587890625
-0.5811004638671875,0.6787567138671875,-0.0640716552734375
-0.7191009521484375,0.673370361328125,0.028961181640625
-0.7129669189453125,0.8371429443359375,0.0653228759765625
-0.6830291748046875,0.82769775390625,-0.0059051513671875
-0.6801605224609375,0.652435302734375,-0.046173095703125
-0.6906585693359375,0.6236419677734375,-0.052520751953125
-0.6356658935546875,0.6943206787109375,-0.0047454833984375
-0.5971527099609375,0.7208099365234375,0.011444091796875
-0.6396636962890625,0.716766357421875,-0.0350341796875
-0.6774139404296875,0.7497100830078125,-0.0562286376953125
-0.7402191162109375,0.8405303955078125,-0.03936767578125
-0.7567901611328125,0.8377227783203125,-0.0264434814453125
-0.730010986328125,0.8111724853515625,-0.0229034423828125
-0.75836181640625,1.0104217529296875,-0.0394134521484375
-0.7056427001953125,1.03082275390625,-0.07879638671875
-0.69818115234375,0.784698486328125,-0.05865478515625
-0.736328125,0.814727783203125,-0.0584564208984375
-0.63458251953125,0.9157562255859376,-0.08074951171875
-0.482330322265625,0.884307861328125,-0.062408447265625
-0.444671630859375,0.74420166015625,-0.0363922119140625
-0.458038330078125,0.689422607421875,-0.0543670654296875
-0.4485015869140625,0.6826171875,-0.0086669921875
-0.45855712890625,0.6636962890625,0.0571136474609375
-0.4718017578125,0.6594696044921875,0.0968780517578125
-0.51983642578125,0.7212066650390625,-0.01519775390625
-0.5554656982421875,0.80010986328125,-0.035400390625
-0.548919677734375,0.8670806884765625,-0.0282440185546875
-0.606292724609375,0.8672943115234375,-0.0869140625
-0.7696075439453125,1.0440521240234375,-0.052978515625
-0.6853485107421875,0.9858551025390624,-0.139617919921875
-0.6583404541015625,0.682464599609375,-0.20599365234375
-0.74908447265625,0.578948974609375,-0.0741424560546875
-0.6776580810546875,0.737518310546875,0.0038909912109375
-0.6229705810546875,0.8221893310546875,-0.0767822265625
-0.64166259765625,0.7083740234375,-0.1266632080078125
-0.67919921875,0.6669769287109375,-0.1030731201171875
-0.6551971435546875,0.673614501953125,-0.02130126953125
-0.6175994873046875,0.702606201171875,0.0052642822265625
-0.626922607421875,0.7458953857421875,0.0029296875
-0.6905975341796875,0.7551727294921875,-0.0196990966796875
-0.7389678955078125,0.8024444580078125,-0.02191162109375
-0.771728515625,0.8426055908203125,-0.057281494140625
-0.7855987548828125,0.803436279296875,-0.0464019775390625
-0.8260498046875,0.9778594970703124,-0.0842132568359375
-0.7503662109375,1.0452117919921875,-0.15557861328125
-0.5532073974609375,0.84619140625,-0.1667327880859375
-0.5733489990234375,0.7368927001953125,-0.18499755859375
-0.5653228759765625,0.8534088134765625,-0.163360595703125
-0.495849609375,0.8378448486328125,-0.1950225830078125
-0.5109710693359375,0.697998046875,-0.217987060546875
-0.5704498291015625,0.6615753173828125,-0.1586456298828125
-0.54705810546875,0.7182464599609375,-0.139068603515625
-0.48681640625,0.768341064453125,-0.0574493408203125
-0.4620361328125,0.7914276123046875,-0.0165557861328125
-0.494720458984375,0.8657684326171875,0.0404815673828125
-0.4760894775390625,0.9696197509765624,0.0261383056640625
-0.486358642578125,0.9124603271484376,-0.0279541015625
-0.6369171142578125,0.8908538818359375,-0.0081939697265625
-0.58380126953125,0.9425811767578124,0.0576019287109375
-0.518035888671875,0.725982666015625,-0.0216827392578125
-0.6771240234375,0.6853485107421875,-0.0106353759765625
-0.7630462646484375,0.852020263671875,0.1037139892578125
-0.710479736328125,0.8621368408203125,0.0532379150390625
-0.670257568359375,0.696868896484375,-0.0762786865234375
-0.6773529052734375,0.6249847412109375,-0.104339599609375
-0.568115234375,0.661529541015625,-0.0488128662109375
-0.5180816650390625,0.6854095458984375,-0.02276611328125
-0.548095703125,0.720458984375,-0.015106201171875
-0.620086669921875,0.7542724609375,-0.0466766357421875
-0.6929931640625,0.8125457763671875,-0.037994384765625
-0.7554168701171875,0.892120361328125,-0.0584259033203125
-0.7716217041015625,0.8796844482421875,-0.10101318359375
-0.8305816650390625,0.9108123779296876,-0.101226806640625
-0.812042236328125,0.9794769287109376,-0.117401123046875
-0.7097625732421875,0.9143829345703124,-0.09375
-0.7226104736328125,0.849365234375,-0.0785064697265625
-0.665771484375,0.899139404296875,-0.1182708740234375
-0.5974884033203125,0.920654296875,-0.102386474609375
-0.520355224609375,0.818939208984375,-0.0707550048828125
-0.5068206787109375,0.73223876953125,-0.060791015625
-0.4649810791015625,0.7198944091796875,-0.0575408935546875
-0.4229583740234375,0.7453460693359375,-0.0276641845703125
-0.35516357421875,0.7386627197265625,0.0065765380859375
-0.32977294921875,0.7364501953125,0.03082275390625
-0.3946990966796875,0.8294219970703125,0.0052642822265625
-0.434600830078125,0.899322509765625,-0.019073486328125
-0.5338134765625,0.8738250732421875,-0.02972412109375
-0.70703125,1.0107879638671875,0.026458740234375
-0.653167724609375,1.026947021484375,0.0003509521484375
-0.61920166015625,0.8227081298828125,-0.1143035888671875
-0.7283782958984375,0.7332611083984375,-0.0641021728515625
-0.726776123046875,0.7837066650390625,-0.01409912109375
-0.68060302734375,0.80755615234375,-0.0419921875
-0.6396484375,0.6957244873046875,-0.095611572265625
-0.5936126708984375,0.6859283447265625,-0.0689697265625
-0.5334625244140625,0.7150421142578125,-0.0308990478515625
-0.5006866455078125,0.707244873046875,-0.0141754150390625
-0.5758056640625,0.7109222412109375,-0.045440673828125
-0.6787567138671875,0.747039794921875,-0.03662109375
-0.7816925048828125,0.827606201171875,-0.02069091796875
-0.806732177734375,0.850616455078125,-0.050689697265625
-0.796966552734375,0.8334197998046875,-0.061492919921875
-0.8083648681640625,1.0122833251953125,-0.0503692626953125
-0.7256317138671875,1.0693206787109375,-0.069854736328125
-0.6407012939453125,0.8658905029296875,-0.1408538818359375
-0.7099151611328125,0.7404327392578125,-0.152130126953125
-0.750946044921875,0.8565216064453125,-0.15545654296875
-0.63714599609375,0.9640960693359376,-0.0851287841796875
-0.5296783447265625,0.8704681396484375,-0.0889739990234375
-0.529876708984375,0.7348480224609375,-0.1104736328125
-0.4810028076171875,0.7311248779296875,-0.1306610107421875
-0.37371826171875,0.7385406494140625,-0.0971832275390625
-0.3217315673828125,0.6978607177734375,-0.0598297119140625
-0.314544677734375,0.65899658203125,0.0069732666015625
-0.390899658203125,0.6931915283203125,0.045379638671875
-0.467132568359375,0.7894744873046875,0.0521392822265625
-0.49951171875,0.857330322265625,0.0748138427734375
-0.651153564453125,0.861602783203125,0.0545806884765625
-0.8077850341796875,1.091583251953125,0.0800933837890625
-0.7612762451171875,0.9890899658203124,-0.049102783203125
-0.799346923828125,0.71728515625,-0.0570526123046875
-0.8558502197265625,0.6691131591796875,0.0029449462890625
-0.8087158203125,0.8111114501953125,0.0028533935546875
-0.8100128173828125,0.8328857421875,-0.0626373291015625
-0.7987060546875,0.791229248046875,-0.11297607421875
-0.747039794921875,0.7421112060546875,-0.1461029052734375
-0.6490020751953125,0.704742431640625,-0.1051177978515625
-0.61175537109375,0.729248046875,-0.0684814453125
-0.5767822265625,0.77923583984375,-0.070892333984375
-0.5824127197265625,0.8167877197265625,-0.1017913818359375
-0.5998687744140625,0.825927734375,-0.0721282958984375
-0.5923614501953125,0.829071044921875,-0.0442352294921875
-0.5027008056640625,0.8462677001953125,-0.0186767578125
-0.4456787109375,0.867584228515625,-0.013763427734375
-0.4764251708984375,0.8915863037109375,-0.0269775390625
-0.4893341064453125,0.891571044921875,-0.039794921875
-0.4876556396484375,0.834869384765625,-0.0532073974609375
-0.436798095703125,0.7468414306640625,-0.0245819091796875
-0.430267333984375,0.7724609375,-0.02044677734375
-0.3948974609375,0.8465423583984375,-0.102020263671875
-0.4437255859375,0.89129638671875,-0.1724700927734375
-0.4846954345703125,0.92266845703125,-0.196014404296875
-0.484100341796875,0.9052581787109376,-0.1789398193359375
-0.523406982421875,0.8773193359375,-0.166961669921875
-0.5929718017578125,0.8872833251953125,-0.1378021240234375
-0.640289306640625,0.91839599609375,-0.091217041015625
-0.6590576171875,0.943756103515625,-0.0989837646484375
-0.65399169921875,0.903472900390625,-0.1478118896484375
-0.6202392578125,0.89874267578125,-0.16424560546875
-0.651092529296875,0.8491668701171875,-0.112213134765625
-0.68841552734375,0.8529815673828125,-0.1121063232421875
-0.6678009033203125,0.901702880859375,-0.1638336181640625
-0.6112213134765625,0.9608154296875,-0.2256011962890625
-0.5594482421875,0.999969482421875,-0.2374420166015625
-0.491790771484375,0.989013671875,-0.2025146484375
-0.4215545654296875,0.94091796875,-0.19464111328125
-0.3690338134765625,0.90771484375,-0.1826171875
-0.35943603515625,0.886993408203125,-0.1306915283203125
-0.353912353515625,0.9073638916015624,-0.0361175537109375
-0.3489227294921875,0.886505126953125,-0.0501251220703125
-0.416717529296875,0.7779541015625,-0.0843505859375
-0.423126220703125,0.8335113525390625,0.0238037109375
-0.3790130615234375,0.89385986328125,0.0150299072265625
-0.3530731201171875,0.8704986572265625,0.0719757080078125
-0.3712158203125,0.8699951171875,0.1682586669921875
-0.374114990234375,0.8700103759765625,0.1699371337890625
-0.3855133056640625,0.8491058349609375,0.1562042236328125
-0.415771484375,0.8517608642578125,0.15582275390625
-0.50341796875,0.8677520751953125,0.1428070068359375
-0.5827789306640625,0.889068603515625,0.1625213623046875
-0.641021728515625,0.8769073486328125,0.175933837890625
-0.6802215576171875,0.8314208984375,0.15435791015625
-0.6898040771484375,0.87579345703125,0.09564208984375
-0.688446044921875,0.9173583984375,0.037567138671875
-0.75189208984375,0.9431610107421876,0.03240966796875
-0.85003662109375,0.974761962890625,-0.04345703125
-0.848297119140625,0.8724212646484375,-0.06597900390625
-0.7789764404296875,0.7891082763671875,-0.0358123779296875
-0.6953125,0.9730377197265624,-0.066009521484375
-0.61773681640625,1.13140869140625,-0.098846435546875
-0.5533294677734375,1.1273040771484375,-0.11968994140625
-0.51519775390625,0.9710540771484376,-0.1089630126953125
-0.5359344482421875,0.8585052490234375,-0.064727783203125
-0.4736480712890625,0.8463134765625,-0.009979248046875
-0.3786468505859375,0.85528564453125,0.0275421142578125
-0.2734222412109375,0.8316192626953125,0.006744384765625
-0.2532501220703125,0.7994842529296875,-0.0100250244140625
-0.3116302490234375,0.8220062255859375,0.0229949951171875
-0.3549041748046875,0.904083251953125,0.078338623046875
-0.3553466796875,0.88580322265625,0.106597900390625
-0.5018768310546875,0.9933929443359376,0.121612548828125
-0.4858856201171875,1.08123779296875,0.0823211669921875
-0.4678192138671875,0.8810882568359375,0.005401611328125
-0.6436767578125,0.793182373046875,-0.017669677734375
-0.7381591796875,0.90252685546875,0.0350799560546875
-0.7274627685546875,0.951629638671875,0.0125885009765625
-0.691009521484375,0.783721923828125,-0.039886474609375
-0.6948699951171875,0.6930694580078125,-0.1013031005859375
-0.62042236328125,0.6895294189453125,-0.086029052734375
-0.5178680419921875,0.6875,0.030487060546875
-0.4955291748046875,0.6931610107421875,0.0827178955078125
-0.597930908203125,0.7736968994140625,0.0928802490234375
-0.7763214111328125,0.911529541015625,0.033111572265625
-0.844940185546875,0.9185638427734376,-0.02001953125
-0.8809356689453125,0.89666748046875,-0.0551300048828125
-0.948822021484375,1.0790863037109375,-0.0814971923828125
-0.826690673828125,1.111175537109375,-0.0071868896484375
-0.70074462890625,0.893524169921875,-0.0170135498046875
-0.724578857421875,1.006134033203125,-0.05877685546875
-0.6145172119140625,1.1167755126953125,-0.0620574951171875
-0.427154541015625,0.9762420654296876,-0.0867156982421875
-0.410125732421875,0.8221893310546875,-0.101654052734375
-0.3848724365234375,0.76348876953125,-0.0838623046875
-0.3058013916015625,0.7512969970703125,-0.0029754638671875
-0.214813232421875,0.6968994140625,0.0394287109375
-0.250946044921875,0.6540374755859375,0.0832061767578125
-0.34735107421875,0.690887451171875,0.094482421875
-0.39031982421875,0.8030853271484375,0.049652099609375
-0.442718505859375,0.8377685546875,-0.0320892333984375
-0.637908935546875,1.22381591796875,-0.0080108642578125
-0.5591888427734375,1.1608734130859375,-0.1342315673828125
-0.6806793212890625,0.898895263671875,-0.170684814453125
-0.84954833984375,0.8572235107421875,-0.1289520263671875
-0.828704833984375,0.933746337890625,-0.1483917236328125
-0.7047576904296875,0.85540771484375,-0.064239501953125
-0.6456756591796875,0.7124481201171875,-0.0248870849609375
-0.5968017578125,0.66888427734375,0.02471923828125
-0.5668182373046875,0.64166259765625,-0.0327606201171875
-0.5861053466796875,0.6228485107421875,-0.0751953125
-0.770538330078125,0.7191619873046875,-0.1187896728515625
-0.980438232421875,0.7862091064453125,0.009918212890625
-0.930511474609375,0.808807373046875,0.0893707275390625
-0.7863311767578125,0.9011688232421876,-0.0882568359375
-0.6974639892578125,0.9212493896484376,-0.1629486083984375
-0.7568206787109375,1.0055694580078125,-0.15338134765625
-0.7464599609375,1.1756591796875,-0.1537628173828125
-0.5979156494140625,1.013214111328125,-0.1728515625
-0.661956787109375,0.9384613037109376,-0.0732421875
-0.5697174072265625,0.996337890625,-0.0093231201171875
-0.36614990234375,0.9761962890625,0.0115966796875
-0.2637786865234375,0.77459716796875,0.017059326171875
-0.3453369140625,0.671112060546875,-0.0071258544921875
-0.3066864013671875,0.6676025390625,-0.0167388916015625
-0.240509033203125,0.6623992919921875,-0.02728271484375
-0.31658935546875,0.629791259765625,-0.0098876953125
-0.4244384765625,0.667236328125,-0.0265350341796875
-0.5049896240234375,0.7833404541015625,-0.046173095703125
-0.5872802734375,0.9001922607421875,-0.04046630859375
-0.674713134765625,1.02252197265625,-0.0815887451171875
-0.705413818359375,1.04937744140625,-0.158660888671875
-0.738677978515625,1.214935302734375,-0.121551513671875
-0.655120849609375,1.00286865234375,-0.2206268310546875
-0.773345947265625,0.7963409423828125,-0.166961669921875
-0.8294677734375,0.821746826171875,-0.122894287109375
-0.743011474609375,0.828460693359375,-0.00927734375
-0.6580352783203125,0.6971282958984375,-0.08074951171875
-0.584197998046875,0.6487274169921875,-0.1049652099609375
-0.542510986328125,0.6953887939453125,-0.0068511962890625
-0.5025177001953125,0.722259521484375,0.0115509033203125
-0.517822265625,0.754364013671875,0.0233612060546875
-0.6529541015625,0.8365936279296875,0.007720947265625
-0.704132080078125,0.8782958984375,-0.06158447265625
-0.7181396484375,0.975341796875,-0.11334228515625
-0.6501007080078125,1.0080108642578125,-0.1376190185546875
-0.7216339111328125,1.1920928955078125,-0.1013641357421875
-0.63037109375,1.1496734619140625,-0.0853424072265625
-0.55059814453125,0.915374755859375,-0.09600830078125
-0.61297607421875,0.938995361328125,-0.049468994140625
-0.55621337890625,1.0411529541015625,-0.090301513671875
-0.4222564697265625,0.9639434814453124,-0.1024322509765625
-0.385284423828125,0.80633544921875,-0.0987548828125
-0.3854827880859375,0.7132720947265625,-0.0873260498046875
-0.32904052734375,0.6877288818359375,-0.0620574951171875
-0.29852294921875,0.67620849609375,-0.0428466796875
-0.2826080322265625,0.6750946044921875,0.03826904296875
-0.300048828125,0.729156494140625,0.0628814697265625
-0.3863067626953125,0.8219146728515625,0.070159912109375
-0.4224700927734375,0.9429168701171876,0.0683746337890625
-0.4889068603515625,1.01824951171875,0.0030364990234375
-0.7032928466796875,1.33416748046875,0.039154052734375
-0.6168060302734375,1.1653594970703125,-0.0578155517578125
-0.6420135498046875,0.8244171142578125,-0.1712188720703125
-0.809112548828125,0.8442840576171875,-0.1400604248046875
-0.806610107421875,0.8898162841796875,-0.0995941162109375
-0.71759033203125,0.8083038330078125,-0.0834808349609375
-0.64794921875,0.73046875,-0.1400909423828125
-0.5769500732421875,0.728424072265625,-0.1600341796875
-0.475799560546875,0.71087646484375,-0.065704345703125
-0.472412109375,0.69573974609375,-0.0207366943359375
-0.5115203857421875,0.7156982421875,0.0413818359375
-0.6279449462890625,0.8075714111328125,0.0626068115234375
-0.7261505126953125,0.9381866455078124,0.00067138671875
-0.7119598388671875,0.935882568359375,-0.063446044921875
-0.7197723388671875,0.9153594970703124,-0.134368896484375
-0.72613525390625,1.1454925537109375,-0.126068115234375
-0.621063232421875,1.11297607421875,-0.1073455810546875
-0.6173248291015625,0.863494873046875,-0.088287353515625
-0.6497802734375,0.85003662109375,-0.0425262451171875
-0.5392608642578125,0.98406982421875,-0.109466552734375
-0.388519287109375,0.9444427490234376,-0.1676025390625
-0.3792572021484375,0.8027496337890625,-0.1435089111328125
-0.39813232421875,0.7315521240234375,-0.1118316650390625
-0.34503173828125,0.73516845703125,-0.1102752685546875
-0.3167877197265625,0.7172698974609375,-0.0325469970703125
-0.316864013671875,0.706085205078125,0.0241546630859375
-0.33062744140625,0.7440185546875,0.05322265625
-0.3686676025390625,0.86578369140625,0.018341064453125
-0.3737030029296875,0.9491729736328124,-0.0205078125
-0.5216217041015625,0.99542236328125,-0.024322509765625
-0.607818603515625,1.18682861328125,0.017486572265625
-0.6017913818359375,1.0805816650390625,-0.1599578857421875
-0.6480560302734375,0.85528564453125,-0.1985626220703125
-0.76104736328125,0.8014984130859375,-0.0825958251953125
-0.7639312744140625,0.8698272705078125,-0.0186920166015625
-0.7264862060546875,0.7667694091796875,-0.0637359619140625
-0.6728668212890625,0.6949310302734375,-0.0608062744140625
-0.5735931396484375,0.7008819580078125,-0.0621337890625
-0.5055389404296875,0.717529296875,-0.007843017578125
-0.4770050048828125,0.73370361328125,-0.0092620849609375
-0.494293212890625,0.7833404541015625,-0.034088134765625
-0.6003875732421875,0.8658905029296875,-0.0751190185546875
-0.7199859619140625,0.9422760009765624,-0.0512237548828125
-0.7576446533203125,0.937225341796875,-0.0601654052734375
-0.741424560546875,0.92193603515625,-0.08087158203125
-0.7360076904296875,1.1201629638671875,-0.0416259765625
-0.6148834228515625,1.1181640625,-0.0359039306640625
-0.6262969970703125,0.8455352783203125,-0.0329742431640625
-0.65655517578125,0.88470458984375,-0.0415802001953125
-0.5275421142578125,1.0089874267578125,-0.001312255859375
-0.3960723876953125,0.912628173828125,-0.016510009765625
-0.428741455078125,0.7384490966796875,0.0014495849609375
-0.385101318359375,0.6824798583984375,-0.0010986328125
-0.323883056640625,0.7154693603515625,0.05523681640625
-0.31658935546875,0.711212158203125,0.1101531982421875
-0.40216064453125,0.73797607421875,0.1140594482421875
-0.5036773681640625,0.809600830078125,-0.0095062255859375
-0.56842041015625,0.883148193359375,-0.02447509765625
-0.5370330810546875,0.9303131103515624,-0.070953369140625
-0.560516357421875,0.8999481201171875,-0.2635345458984375
-0.6164093017578125,0.9875030517578124,-0.256134033203125
-0.4847564697265625,0.95086669921875,-0.151947021484375
-0.5306549072265625,0.759429931640625,-0.2333221435546875
-0.6670989990234375,0.7748260498046875,-0.1457366943359375
-0.6739349365234375,0.8889007568359375,-0.1447296142578125
-0.6230316162109375,0.7979736328125,-0.194366455078125
-0.609344482421875,0.684967041015625,-0.15020751953125
-0.566619873046875,0.696258544921875,-0.0442047119140625
-0.524871826171875,0.7160186767578125,0.00177001953125
-0.509796142578125,0.70855712890625,0.047271728515625
-0.5932769775390625,0.7812957763671875,0.0630340576171875
-0.6963958740234375,0.9307708740234376,-0.0177001953125
-0.74627685546875,0.992034912109375,-0.107635498046875
-0.7601318359375,0.89764404296875,-0.103424072265625
-0.81756591796875,0.9621734619140624,-0.041778564453125
-0.7165374755859375,1.03228759765625,-0.0170745849609375
-0.6176910400390625,0.779022216796875,-0.10687255859375
-0.6936798095703125,0.7352447509765625,-0.120697021484375
-0.682281494140625,0.89190673828125,-0.1875152587890625
-0.57879638671875,0.9672698974609376,-0.1712799072265625
-0.5595855712890625,0.8713836669921875,-0.17388916015625
-0.5907440185546875,0.826416015625,-0.2029266357421875
-0.545135498046875,0.8514862060546875,-0.203643798828125
-0.4283294677734375,0.8462066650390625,-0.1163177490234375
-0.35552978515625,0.820343017578125,-0.084930419921875
-0.329833984375,0.79498291015625,-0.0366058349609375
-0.316314697265625,0.8202056884765625,0.015045166015625
-0.29656982421875,0.855682373046875,0.0437774658203125
-0.337738037109375,0.8267974853515625,-0.0108795166015625
-0.550994873046875,0.978790283203125,-0.0015106201171875
-0.464691162109375,1.0924224853515625,0.0180511474609375
-0.5211181640625,0.8497314453125,-0.0534820556640625
-0.6809234619140625,0.7486724853515625,-0.006591796875
-0.7063140869140625,0.8700103759765625,-0.0023193359375
-0.6211090087890625,0.9315948486328124,-0.0391082763671875
-0.588226318359375,0.769866943359375,-0.07568359375
-0.5860748291015625,0.7221832275390625,-0.09759521484375
-0.5102691650390625,0.758636474609375,-0.0577545166015625
-0.4976654052734375,0.7600860595703125,-0.046875
-0.56427001953125,0.7795867919921875,-0.01983642578125
-0.615966796875,0.80413818359375,-0.0129852294921875
-0.6889190673828125,0.819366455078125,-0.032684326171875
-0.7520294189453125,0.85247802734375,-0.0262908935546875
-0.732208251953125,0.8532257080078125,-0.05364990234375
-0.7752532958984375,1.01983642578125,-0.075469970703125
-0.748565673828125,1.1297454833984375,-0.1041717529296875
-0.693145751953125,0.93988037109375,-0.096923828125
-0.7435150146484375,0.8284454345703125,-0.072296142578125
-0.675567626953125,0.918487548828125,-0.0959014892578125
-0.61138916015625,1.0445404052734375,-0.1572265625
-0.5561981201171875,0.9941253662109376,-0.2049102783203125
-0.5623779296875,0.90966796875,-0.1690521240234375
-0.4889068603515625,0.8950958251953125,-0.0856781005859375
-0.381805419921875,0.852935791015625,-0.033111572265625
-0.3190765380859375,0.8054962158203125,0.0066680908203125
-0.2768096923828125,0.7343902587890625,0.019744873046875
-0.2957763671875,0.7153472900390625,0.0039215087890625
-0.284454345703125,0.7730712890625,0.00335693359375
-0.3177642822265625,0.785400390625,0.0017852783203125
-0.4775848388671875,0.7518157958984375,0.035675048828125
-0.6030731201171875,0.9535064697265624,0.135986328125
-0.5686187744140625,1.0549163818359375,0.1038055419921875
-0.6525726318359375,0.91351318359375,-0.0194549560546875
-0.79150390625,0.839569091796875,0.012359619140625
-0.8181610107421875,0.9098052978515624,0.007171630859375
-0.79833984375,0.923583984375,-0.0526885986328125
-0.7516632080078125,0.81536865234375,-0.1160888671875
-0.7012939453125,0.7601165771484375,-0.155364990234375
-0.5907440185546875,0.7609405517578125,-0.10797119140625
-0.546844482421875,0.77899169921875,-0.068572998046875
-0.5605926513671875,0.7840576171875,-0.0526123046875
-0.6061248779296875,0.791473388671875,0.0139923095703125
-0.7037200927734375,0.810516357421875,0.021331787109375
-0.755340576171875,0.8010101318359375,0.020965576171875
-0.7602386474609375,0.847900390625,-0.05584716796875
-0.677703857421875,0.873565673828125,-0.084869384765625
-0.646209716796875,0.923583984375,-0.108612060546875
-0.659576416015625,0.9930877685546876,-0.176544189453125
-0.562469482421875,0.993804931640625,-0.130279541015625
-0.362396240234375,0.7877349853515625,-0.1812591552734375
-0.430389404296875,0.7331390380859375,-0.17987060546875
-0.4698638916015625,0.752655029296875,-0.1452789306640625
-0.4158782958984375,0.814453125,-0.09710693359375
-0.3620758056640625,0.8465576171875,-0.189849853515625
-0.372955322265625,0.8549346923828125,-0.2238616943359375
-0.4146881103515625,0.844024658203125,-0.1754302978515625
-0.4488067626953125,0.844635009765625,-0.1732025146484375
-0.54193115234375,0.8876800537109375,-0.1658172607421875
-0.686553955078125,0.8864288330078125,-0.0903778076171875
-0.79278564453125,0.802947998046875,-0.0810546875
-0.8149261474609375,0.7983245849609375,-0.0671844482421875
-0.8006134033203125,0.8015594482421875,-0.1939239501953125
-0.7587127685546875,0.7852020263671875,-0.2481689453125
-0.7898406982421875,0.747528076171875,-0.225830078125
-0.740020751953125,0.7777252197265625,-0.2445526123046875
-0.6619873046875,0.8049468994140625,-0.2466583251953125
-0.6820526123046875,0.8457183837890625,-0.25604248046875
-0.6667022705078125,0.846099853515625,-0.2577972412109375
-0.5858306884765625,0.881072998046875,-0.28326416015625
-0.6087799072265625,0.866241455078125,-0.2695159912109375
-0.562744140625,0.9005889892578125,-0.1953125
-0.363250732421875,0.8466339111328125,-0.1429901123046875
-0.3325653076171875,0.7994232177734375,-0.1295318603515625
-0.3864593505859375,0.6936492919921875,-0.0831298828125
-0.471649169921875,0.723358154296875,0.0294342041015625
-0.4880828857421875,0.85406494140625,0.022552490234375
-0.437957763671875,0.900360107421875,0.152923583984375
-0.4005126953125,0.874237060546875,0.2043609619140625
-0.4235382080078125,0.8420562744140625,0.1193389892578125
-0.488067626953125,0.8151397705078125,0.1304779052734375
-0.5886688232421875,0.8302459716796875,0.1699981689453125
-0.662689208984375,0.8375091552734375,0.1437835693359375
-0.6804656982421875,0.8345947265625,0.09234619140625
-0.6420440673828125,0.7942047119140625,0.099090576171875
-0.6744537353515625,0.780029296875,0.0458221435546875
-0.7455291748046875,0.7734527587890625,0.0059356689453125
-0.8034210205078125,0.7953643798828125,-0.0263671875
-0.8332672119140625,0.7791290283203125,-0.047515869140625
-0.9322662353515624,0.921417236328125,-0.1028289794921875
-0.830047607421875,1.0160980224609375,-0.1906585693359375
-0.70361328125,0.837860107421875,-0.18414306640625
-0.734954833984375,0.9147796630859376,-0.173736572265625
-0.670745849609375,1.0272674560546875,-0.1632537841796875
-0.598114013671875,1.0017547607421875,-0.214324951171875
-0.5957794189453125,0.9213409423828124,-0.2216644287109375
-0.580902099609375,0.8964996337890625,-0.1740875244140625
-0.4990081787109375,0.8948211669921875,-0.129302978515625
-0.394256591796875,0.8384857177734375,-0.057647705078125
-0.3181915283203125,0.7916259765625,-0.0387725830078125
-0.280914306640625,0.806121826171875,-0.0411224365234375
-0.292724609375,0.876617431640625,-0.0143890380859375
-0.3062744140625,0.876617431640625,0.0111236572265625
-0.5395050048828125,1.0107574462890625,0.0785675048828125
-0.48162841796875,1.062896728515625,0.0707550048828125
-0.5152740478515625,0.8639373779296875,-0.0347747802734375
-0.666534423828125,0.8098907470703125,0.0458221435546875
-0.7588653564453125,0.936004638671875,0.0918731689453125
-0.739044189453125,0.938018798828125,-0.00042724609375
-0.6814422607421875,0.7641448974609375,-0.0165252685546875
-0.6829986572265625,0.71435546875,-0.0737457275390625
-0.5998077392578125,0.7314910888671875,-0.01947021484375
-0.5131683349609375,0.7201080322265625,0.02862548828125
-0.541534423828125,0.734130859375,0.0016937255859375
-0.617156982421875,0.7787322998046875,-0.0218505859375
-0.75567626953125,0.8353729248046875,-0.01715087890625
-0.80029296875,0.857574462890625,-0.0482177734375
-0.79150390625,0.8314208984375,-0.064605712890625
-0.8382568359375,0.95318603515625,-0.0705718994140625
-0.8053436279296875,1.115478515625,-0.07470703125
-0.68597412109375,0.9559173583984376,-0.1549072265625
-0.70880126953125,0.8442840576171875,-0.1805572509765625
-0.6849517822265625,0.95587158203125,-0.1854248046875
-0.5508880615234375,1.0436248779296875,-0.13818359375
-0.4256134033203125,0.9479827880859376,-0.11474609375
-0.4254302978515625,0.7915191650390625,-0.1250457763671875
-0.41400146484375,0.7577056884765625,-0.0916290283203125
-0.332794189453125,0.7563629150390625,-0.0444488525390625
-0.2708587646484375,0.711212158203125,-0.0129241943359375
-0.2986602783203125,0.7199859619140625,0.0173492431640625
-0.3495025634765625,0.7830963134765625,0.039886474609375
-0.4980926513671875,0.86309814453125,0.081939697265625
-0.5845947265625,0.8438873291015625,0.03204345703125
-0.74530029296875,1.0689697265625,0.0125579833984375
-0.6436614990234375,1.0605010986328125,-0.1033172607421875
-0.661376953125,0.6958160400390625,-0.088348388671875
-0.789794921875,0.7132110595703125,-0.003448486328125
-0.755889892578125,0.8445892333984375,-0.0676422119140625
-0.7117156982421875,0.8040008544921875,-0.125457763671875
-0.675079345703125,0.726715087890625,-0.1883392333984375
-0.6176910400390625,0.7354278564453125,-0.2091064453125
-0.5362701416015625,0.7474212646484375,-0.12188720703125
-0.5126953125,0.7225799560546875,-0.1090087890625
-0.60345458984375,0.7339019775390625,-0.1028289794921875
-0.7201385498046875,0.782684326171875,-0.077972412109375
-0.76666259765625,0.8163299560546875,-0.0823822021484375
-0.7256317138671875,0.828826904296875,-0.139739990234375
-0.684814453125,0.84027099609375,-0.1197357177734375
-0.745361328125,1.0231475830078125,-0.098724365234375
-0.643951416015625,1.042266845703125,-0.1540679931640625
-0.5922088623046875,0.8357391357421875,-0.224639892578125
-0.6883544921875,0.889068603515625,-0.184326171875
-0.6364288330078125,0.9785308837890624,-0.15655517578125
-0.5382843017578125,0.906646728515625,-0.20684814453125
-0.5009765625,0.733428955078125,-0.22039794921875
-0.54388427734375,0.6969757080078125,-0.205078125
-0.476806640625,0.761444091796875,-0.1533966064453125
-0.3960723876953125,0.804107666015625,-0.113189697265625
-0.379974365234375,0.853179931640625,-0.05206298828125
-0.4075927734375,0.9379425048828124,-0.026885986328125
-0.438812255859375,0.9996185302734376,-0.1008148193359375
-0.456024169921875,0.9033355712890624,-0.1656341552734375
-0.5349273681640625,0.886932373046875,-0.08917236328125
-0.51861572265625,1.01953125,0.03692626953125
-0.4328765869140625,0.7842254638671875,-0.03802490234375
-0.5951690673828125,0.7417449951171875,-0.055084228515625
-0.64764404296875,0.874847412109375,-0.01324462890625
-0.657012939453125,0.9292755126953124,-0.1029510498046875
-0.65203857421875,0.7388153076171875,-0.1073760986328125
-0.654449462890625,0.6338348388671875,-0.08819580078125
-0.5840911865234375,0.6763458251953125,-0.037322998046875
-0.50909423828125,0.7352142333984375,0.0051116943359375
-0.534393310546875,0.7513580322265625,-0.0174407958984375
-0.6626129150390625,0.786285400390625,-0.1101226806640625
-0.778411865234375,0.84576416015625,-0.15557861328125
-0.8158111572265625,0.8404693603515625,-0.1435546875
-0.823486328125,0.7915191650390625,-0.12762451171875
-0.8937225341796875,0.961669921875,-0.1229248046875
-0.788787841796875,1.09234619140625,-0.1168975830078125
-0.7280426025390625,0.8964080810546875,-0.16943359375
-0.7504425048828125,0.91357421875,-0.20513916015625
-0.6657867431640625,0.9723052978515624,-0.1992034912109375
-0.5218505859375,0.88909912109375,-0.1796722412109375
-0.4835662841796875,0.8249053955078125,-0.1389312744140625
-0.432647705078125,0.8100433349609375,-0.134246826171875
-0.353302001953125,0.8303680419921875,-0.1212615966796875
-0.297607421875,0.8040771484375,-0.0481109619140625
-0.2894439697265625,0.7542724609375,0.019134521484375
-0.326629638671875,0.7720489501953125,0.0199127197265625
-0.385009765625,0.8921051025390625,-0.0070343017578125
-0.413604736328125,0.917816162109375,-0.00689697265625
-0.6278839111328125,1.147705078125,0.0250091552734375
-0.5487060546875,1.06573486328125,-0.035797119140625
-0.5983734130859375,0.823883056640625,-0.13299560546875
-0.721221923828125,0.836334228515625,-0.04205322265625
-0.720733642578125,0.9134979248046876,-0.00408935546875
-0.66998291015625,0.8128204345703125,-0.11505126953125
-0.645477294921875,0.679840087890625,-0.149322509765625
-0.6495361328125,0.6720733642578125,-0.16461181640625
-0.56341552734375,0.699066162109375,-0.0911407470703125
-0.542449951171875,0.693084716796875,-0.0676116943359375
-0.597869873046875,0.733154296875,-0.0923004150390625
-0.6442718505859375,0.776397705078125,-0.120452880859375
-0.7392120361328125,0.8528289794921875,-0.11419677734375
-0.75933837890625,0.8695220947265625,-0.098388671875
-0.8075103759765625,0.9730224609375,-0.0881805419921875
-0.75567626953125,1.1402435302734375,-0.1091766357421875
-0.63671875,0.91387939453125,-0.103851318359375
-0.709259033203125,0.8325042724609375,-0.0591888427734375
-0.69769287109375,0.9507904052734376,-0.0804901123046875
-0.6410675048828125,1.0112457275390625,-0.0538177490234375
-0.5655364990234375,0.8925628662109375,-0.023040771484375
-0.5565643310546875,0.7815704345703125,-0.0880126953125
-0.45147705078125,0.760528564453125,-0.1176910400390625
-0.3641510009765625,0.7834320068359375,-0.0988616943359375
-0.295989990234375,0.75244140625,-0.0650634765625
-0.2726898193359375,0.7141571044921875,-0.022064208984375
-0.28448486328125,0.7482452392578125,-0.0207672119140625
-0.327606201171875,0.852996826171875,-0.07232666015625
-0.417816162109375,0.87957763671875,-0.108428955078125
-0.654937744140625,0.961639404296875,-0.043975830078125
-0.7065277099609375,1.064300537109375,-0.010040283203125
-0.669769287109375,0.942108154296875,-0.20709228515625
-0.759674072265625,0.850067138671875,-0.144927978515625
-0.7935638427734375,0.8421173095703125,-0.084930419921875
-0.7793731689453125,0.7753753662109375,-0.1027374267578125
-0.7214202880859375,0.650177001953125,-0.0839996337890625
-0.6365509033203125,0.6472930908203125,-0.0255279541015625
-0.5497894287109375,0.731231689453125,-0.026092529296875
-0.49139404296875,0.758697509765625,-0.0775146484375
-0.565338134765625,0.7238006591796875,-0.0789642333984375
-0.6380767822265625,0.723480224609375,-0.036834716796875
-0.776641845703125,0.796966552734375,-0.073028564453125
-0.823944091796875,0.833251953125,-0.0535125732421875
-0.8161468505859375,0.8194122314453125,-0.0261688232421875
-0.8581695556640625,1.0533447265625,-0.0775909423828125
-0.7846832275390625,0.973907470703125,-0.17852783203125
-0.6921539306640625,0.7734375,-0.191436767578125
-0.6796722412109375,0.8335418701171875,-0.20404052734375
-0.62811279296875,0.9403533935546876,-0.2001495361328125
-0.5326995849609375,0.8323211669921875,-0.2309722900390625
-0.544464111328125,0.690277099609375,-0.210418701171875
-0.593109130859375,0.6845550537109375,-0.1741943359375
-0.5008544921875,0.7383270263671875,-0.1233978271484375
-0.4231719970703125,0.79180908203125,-0.1061553955078125
-0.4166412353515625,0.833831787109375,-0.031036376953125
-0.3946990966796875,0.83685302734375,0.0644073486328125
-0.3724517822265625,0.8646392822265625,0.001922607421875
-0.4156341552734375,0.8917694091796875,-0.111175537109375
-0.4754791259765625,1.0983123779296875,-0.1166839599609375
-0.457550048828125,0.898529052734375,-0.1584930419921875
-0.5760345458984375,0.6963958740234375,-0.0286865234375
-0.695526123046875,0.7803955078125,0.1167144775390625
-0.690887451171875,0.9285888671875,0.109588623046875
-0.6674346923828125,0.8630523681640625,-0.0578155517578125
-0.650299072265625,0.7525177001953125,-0.107635498046875
-0.6334381103515625,0.735748291015625,-0.135101318359375
-0.5502166748046875,0.7510986328125,-0.0313873291015625
-0.538330078125,0.7526397705078125,0.0222625732421875
-0.576690673828125,0.7759552001953125,0.03369140625
-0.63787841796875,0.8210906982421875,-0.0228118896484375
-0.6886138916015625,0.8133087158203125,-0.0785675048828125
-0.7315216064453125,0.805908203125,-0.0894775390625
-0.7317047119140625,0.814666748046875,-0.073577880859375
-0.820526123046875,1.0601348876953125,-0.107025146484375
-0.7904052734375,1.1371612548828125,-0.1804962158203125
-0.6737518310546875,0.7983245849609375,-0.18603515625
-0.74444580078125,0.7703704833984375,-0.1788177490234375
-0.6975555419921875,0.910369873046875,-0.1133270263671875
-0.603271484375,0.93792724609375,-0.1231231689453125
-0.552947998046875,0.8786773681640625,-0.194427490234375
-0.5169830322265625,0.836883544921875,-0.2255859375
-0.44256591796875,0.8108978271484375,-0.2066497802734375
-0.3567657470703125,0.7889251708984375,-0.1083831787109375
-0.3116302490234375,0.77587890625,-0.0615997314453125
-0.2957611083984375,0.7620086669921875,-0.0350189208984375
-0.371368408203125,0.8443450927734375,-0.0113525390625
-0.3988494873046875,0.8963775634765625,0.00897216796875
-0.507965087890625,0.89453125,0.01092529296875
-0.597198486328125,1.1266937255859375,0.080078125
-0.509674072265625,1.0354461669921875,-0.0931854248046875
-0.5360565185546875,0.791015625,-0.0899505615234375
-0.6851654052734375,0.798431396484375,0.0347442626953125
-0.7304534912109375,0.956512451171875,0.064727783203125
-0.700592041015625,0.8882293701171875,-0.0863037109375
-0.690093994140625,0.7053985595703125,-0.1196441650390625
-0.69464111328125,0.661895751953125,-0.15093994140625
-0.5786895751953125,0.6912994384765625,-0.0638580322265625
-0.531219482421875,0.724365234375,-0.0249176025390625
-0.5444793701171875,0.7514495849609375,-0.0570526123046875
-0.6121063232421875,0.7693634033203125,-0.1251678466796875
-0.702850341796875,0.843597412109375,-0.147491455078125
-0.746917724609375,0.858001708984375,-0.1707305908203125
-0.7577056884765625,0.8367462158203125,-0.1654815673828125
-0.7969818115234375,1.0318450927734375,-0.1281890869140625
-0.7450103759765625,1.109161376953125,-0.0998382568359375
-0.6294403076171875,0.9018707275390624,-0.143951416015625
-0.6912841796875,0.842193603515625,-0.148681640625
-0.6732177734375,0.963134765625,-0.1162567138671875
-0.558624267578125,1.0289154052734375,-0.15411376953125
-0.4605712890625,0.938201904296875,-0.221893310546875
-0.473297119140625,0.81610107421875,-0.2061309814453125
-0.4268646240234375,0.75714111328125,-0.1284637451171875
-0.34661865234375,0.7248077392578125,-0.0872344970703125
-0.2961273193359375,0.698028564453125,-0.042083740234375
-0.2707366943359375,0.7061920166015625,0.001129150390625
-0.3239593505859375,0.7764739990234375,0.0108489990234375
-0.4260406494140625,0.8623046875,0.02764892578125
-0.483154296875,0.8572540283203125,0.0774688720703125
-0.6582183837890625,0.917022705078125,0.024688720703125
-0.7497711181640625,1.1225738525390625,0.005279541015625
-0.70306396484375,0.9629669189453124,-0.1042938232421875
-0.72540283203125,0.77557373046875,-0.0936431884765625
-0.7820281982421875,0.7400054931640625,0.032470703125
-0.8497467041015625,0.82965087890625,-0.0090179443359375
-0.862030029296875,0.85986328125,-0.079437255859375
-0.8265380859375,0.7714691162109375,-0.16546630859375
-0.73291015625,0.721527099609375,-0.1915283203125
-0.6080322265625,0.708892822265625,-0.103118896484375
-0.561920166015625,0.74127197265625,-0.067840576171875
-0.5445098876953125,0.7625579833984375,-0.086517333984375
-0.5980377197265625,0.784698486328125,-0.0924835205078125
-0.6539459228515625,0.7919921875,-0.0601043701171875
-0.6692962646484375,0.7908782958984375,-0.059967041015625
-0.60791015625,0.835113525390625,-0.0803070068359375
-0.5460205078125,0.923797607421875,-0.1017608642578125
-0.5421142578125,0.991943359375,-0.1475982666015625
-0.5403289794921875,0.938201904296875,-0.173736572265625
-0.532745361328125,0.8273468017578125,-0.1543426513671875
-0.499481201171875,0.7608489990234375,-0.095550537109375
-0.451873779296875,0.7533111572265625,-0.109161376953125
-0.4533233642578125,0.8006439208984375,-0.162567138671875
-0.494049072265625,0.850982666015625,-0.2210693359375
-0.4422149658203125,0.83758544921875,-0.2128448486328125
-0.511993408203125,0.794891357421875,-0.1377410888671875
-0.5950469970703125,0.7852630615234375,-0.1004638671875
-0.6681060791015625,0.8047332763671875,-0.1286163330078125
-0.728546142578125,0.82666015625,-0.2269134521484375
-0.732452392578125,0.8133392333984375,-0.214019775390625
-0.7628631591796875,0.7904815673828125,-0.1766510009765625
-0.8577880859375,0.78814697265625,-0.211273193359375
-0.8427581787109375,0.7870635986328125,-0.1748199462890625
-0.7990264892578125,0.7866668701171875,-0.1274566650390625
-0.7624664306640625,0.7938079833984375,-0.152008056640625
-0.7224884033203125,0.8309173583984375,-0.1504058837890625
-0.66278076171875,0.884735107421875,-0.16033935546875
-0.5691680908203125,0.8809356689453125,-0.181793212890625
-0.51324462890625,0.7999420166015625,-0.1617431640625
-0.4691619873046875,0.76458740234375,-0.0972442626953125
-0.46435546875,0.8551025390625,-0.0709228515625
-0.3477325439453125,0.83978271484375,-0.049407958984375
-0.3894195556640625,0.784637451171875,-0.01690673828125
-0.4244232177734375,0.6700439453125,0.091583251953125
-0.4107513427734375,0.8339385986328125,-0.0731048583984375
-0.47723388671875,0.963104248046875,-0.1999664306640625
-0.52252197265625,0.86676025390625,0.0293426513671875
-0.5735626220703125,0.818603515625,0.1188201904296875
-0.5643157958984375,0.8077850341796875,0.0452117919921875
-0.586212158203125,0.7958526611328125,0.0608673095703125
-0.644073486328125,0.7978057861328125,0.1140289306640625
-0.68280029296875,0.822662353515625,0.08148193359375
-0.68646240234375,0.81097412109375,-0.0067291259765625
-0.7027740478515625,0.778350830078125,-0.0379180908203125
-0.72979736328125,0.8213653564453125,-0.035491943359375
-0.7008056640625,0.8621368408203125,-0.04638671875
-0.7560272216796875,0.9159088134765624,-0.084564208984375
-0.772003173828125,1.001861572265625,-0.1544036865234375
-0.710662841796875,0.881256103515625,-0.13775634765625
-0.761077880859375,0.810943603515625,-0.062835693359375
-0.7326507568359375,0.903564453125,-0.1068572998046875
-0.6612701416015625,0.97589111328125,-0.1219482421875
-0.5842437744140625,0.908203125,-0.15625
-0.5633697509765625,0.8216400146484375,-0.2161407470703125
-0.550689697265625,0.8375701904296875,-0.2405242919921875
-0.46075439453125,0.837738037109375,-0.11651611328125
-0.40618896484375,0.8185577392578125,-0.081878662109375
-0.35308837890625,0.821441650390625,-0.104461669921875
-0.3295745849609375,0.826568603515625,-0.1005859375
-0.3679046630859375,0.887176513671875,-0.0456695556640625
-0.3455352783203125,0.8968963623046875,-0.015625
-0.4686279296875,0.965972900390625,0.0210418701171875
-0.484619140625,1.060760498046875,0.1017913818359375
-0.4641265869140625,0.887420654296875,0.0471038818359375
-0.5897369384765625,0.745513916015625,0.0756683349609375
-0.6834259033203125,0.84014892578125,0.1810760498046875
-0.68682861328125,0.973968505859375,0.125152587890625
-0.654937744140625,0.8326873779296875,-0.0687103271484375
-0.66436767578125,0.6947479248046875,-0.110504150390625
-0.630035400390625,0.6645355224609375,-0.1566162109375
-0.5107421875,0.6719207763671875,-0.0753326416015625
-0.5180206298828125,0.690673828125,-0.0100555419921875
-0.5789794921875,0.773162841796875,-0.004241943359375
-0.6298675537109375,0.828887939453125,0.07623291015625
-0.7514801025390625,0.913360595703125,-0.0214080810546875
-0.81561279296875,0.9109649658203124,-0.1214141845703125
-0.964263916015625,1.0390472412109375,-0.0996551513671875
-0.8535614013671875,1.1434326171875,-0.039947509765625
-0.701263427734375,0.87786865234375,-0.03363037109375
-0.7644805908203125,0.83563232421875,-0.0277557373046875
-0.728851318359375,0.99810791015625,-0.0019073486328125
-0.589935302734375,1.0141448974609375,-0.0354461669921875
-0.52020263671875,0.8997344970703125,-0.078277587890625
-0.5105438232421875,0.823760986328125,-0.10845947265625
-0.4141387939453125,0.814178466796875,-0.0929718017578125
-0.32354736328125,0.7706756591796875,-0.035430908203125
-0.27740478515625,0.7062835693359375,0.020904541015625
-0.274322509765625,0.6959228515625,0.0249786376953125
-0.3025970458984375,0.7581939697265625,0.0376129150390625
-0.38348388671875,0.8571014404296875,-0.0092315673828125
-0.5167999267578125,0.895721435546875,-0.068115234375
-0.6128387451171875,1.201873779296875,-0.1167755126953125
-0.526458740234375,1.0587005615234375,-0.332122802734375
-0.5779876708984375,0.8672332763671875,-0.4098968505859375
-0.697113037109375,0.8022003173828125,-0.274444580078125
-0.6912078857421875,0.87261962890625,-0.1138916015625
-0.633270263671875,0.83251953125,-0.1095733642578125
-0.5939178466796875,0.718597412109375,-0.1222991943359375
-0.4957427978515625,0.6959991455078125,-0.12664794921875
-0.5119171142578125,0.731048583984375,-0.1383819580078125
-0.6318359375,0.727813720703125,-0.0658416748046875
-0.747711181640625,0.719207763671875,-0.002532958984375
-0.85162353515625,0.73187255859375,-0.1060943603515625
-0.894500732421875,0.804534912109375,-0.1225433349609375
-0.9188690185546876,0.8333892822265625,-0.0932769775390625
-0.84344482421875,0.822021484375,-0.041534423828125
-0.7551422119140625,0.833740234375,-0.0281829833984375
-0.7733917236328125,0.9967041015625,-0.036407470703125
-0.7181243896484375,1.002227783203125,-0.06048583984375
-0.64581298828125,0.794403076171875,-0.1471099853515625
-0.65966796875,0.7698974609375,-0.1669921875
-0.601318359375,0.8627471923828125,-0.0923614501953125
-0.4967498779296875,0.882537841796875,-0.0902252197265625
-0.424224853515625,0.76312255859375,-0.1057586669921875
-0.39520263671875,0.6969451904296875,-0.1362762451171875
-0.3334197998046875,0.7067718505859375,-0.1143951416015625
-0.400604248046875,0.6895599365234375,-0.198089599609375
-0.5050048828125,0.614959716796875,-0.2412261962890625
-0.44610595703125,0.654052734375,-0.161041259765625
-0.427490234375,0.737762451171875,-0.2105865478515625
-0.49725341796875,0.851287841796875,-0.21435546875
-0.57958984375,0.9011993408203124,-0.1878662109375
-0.6997222900390625,1.1840667724609375,-0.2398529052734375
-0.4996490478515625,1.1326751708984375,-0.4194183349609375
-0.4749603271484375,0.7493438720703125,-0.5182037353515625
-0.6329803466796875,0.606048583984375,-0.36181640625
-0.6629791259765625,0.6739044189453125,-0.357025146484375
-0.57220458984375,0.7360992431640625,-0.7006988525390625
-0.557098388671875,0.760589599609375,-0.768646240234375
-0.5832061767578125,0.6533966064453125,-0.51422119140625
-0.57733154296875,0.5797271728515625,-0.5351715087890625
-0.5010528564453125,0.5619049072265625,-0.46746826171875
-0.477203369140625,0.6506195068359375,-0.386932373046875
-0.4957122802734375,0.7847442626953125,-0.5265655517578125
-0.5123291015625,0.8746795654296875,-0.54510498046875
-0.5423736572265625,0.914886474609375,-0.4984588623046875
-0.5465240478515625,0.9213104248046876,-0.542816162109375
-0.549560546875,1.05218505859375,-0.5677490234375
-0.5331268310546875,1.0831451416015625,-0.4876251220703125
-0.4449310302734375,0.8470306396484375,-0.5164337158203125
-0.509246826171875,0.7536468505859375,-0.377655029296875
-0.412567138671875,0.89263916015625,-0.289703369140625
-0.2804412841796875,0.9036407470703124,-0.362518310546875
-0.27496337890625,0.715606689453125,-0.3111572265625
-0.303924560546875,0.6320648193359375,-0.2494049072265625
-0.232452392578125,0.679443359375,-0.2672271728515625
-0.2322235107421875,0.6957550048828125,-0.2117462158203125
-0.3390350341796875,0.686859130859375,-0.0557403564453125
-0.3921661376953125,0.802886962890625,-0.0623931884765625
-0.403961181640625,1.004791259765625,-0.11309814453125
-0.4138641357421875,1.0599517822265625,-0.1820526123046875
-0.6424102783203125,1.20166015625,-0.1576385498046875
-0.5721435546875,1.269256591796875,-0.21942138671875
-0.5290374755859375,0.9947662353515624,-0.3243560791015625
-0.735076904296875,0.8275146484375,-0.1666412353515625
-0.799102783203125,0.832855224609375,-0.1280364990234375
-0.7216949462890625,0.782684326171875,-0.144500732421875
-0.651275634765625,0.6590118408203125,-0.1581268310546875
-0.5769805908203125,0.6849517822265625,-0.16448974609375
-0.491485595703125,0.7710418701171875,-0.111297607421875
-0.4226226806640625,0.79083251953125,-0.0893402099609375
-0.419158935546875,0.8083953857421875,-0.0843353271484375
-0.5006256103515625,0.802337646484375,-0.0941162109375
-0.662445068359375,0.8826141357421875,-0.10675048828125
-0.746978759765625,0.9351654052734376,-0.1322174072265625
-0.739105224609375,0.9033966064453124,-0.11651611328125
-0.7395782470703125,1.0200653076171875,-0.1060333251953125
-0.644927978515625,1.165771484375,-0.1081390380859375
-0.5688323974609375,0.9927215576171876,-0.153350830078125
-0.602447509765625,0.9442291259765624,-0.13665771484375
-0.522430419921875,0.95355224609375,-0.1441192626953125
-0.4061431884765625,0.8497161865234375,-0.178314208984375
-0.378143310546875,0.73480224609375,-0.1562652587890625
-0.376708984375,0.7139892578125,-0.108642578125
-0.3545684814453125,0.7048187255859375,-0.06781005859375
-0.3225555419921875,0.69268798828125,-0.0370025634765625
-0.32122802734375,0.710418701171875,0.0073394775390625
-0.290435791015625,0.75018310546875,-0.0066986083984375
-0.3361968994140625,0.862701416015625,-0.0304412841796875
-0.3343505859375,0.952301025390625,-0.071136474609375
-0.4635009765625,0.96319580078125,-0.1061553955078125
-0.722503662109375,1.1814727783203125,-0.0432586669921875
-0.66656494140625,1.2301788330078125,-0.1078033447265625
-0.5632781982421875,0.9866485595703124,-0.2717132568359375
-0.6786346435546875,0.848907470703125,-0.25714111328125
-0.7454833984375,0.8124542236328125,-0.159088134765625
-0.732330322265625,0.766998291015625,-0.0871429443359375
-0.6610260009765625,0.691802978515625,-0.07269287109375
-0.5578765869140625,0.71820068359375,-0.093994140625
-0.46575927734375,0.75823974609375,-0.1055450439453125
-0.3946990966796875,0.7418670654296875,-0.110107421875
-0.4976959228515625,0.73822021484375,-0.0980377197265625
-0.6737060546875,0.84039306640625,-0.05902099609375
-0.7943572998046875,0.9945831298828124,-0.064422607421875
-0.8086700439453125,0.968658447265625,-0.1234130859375
-0.7993316650390625,0.91070556640625,-0.15057373046875
-0.7872772216796875,1.1012115478515625,-0.084716796875
-0.68798828125,1.2047882080078125,-0.0786285400390625
-0.528167724609375,0.9144744873046876,-0.0248870849609375
-0.596710205078125,0.8410186767578125,-0.0820770263671875
-0.55023193359375,0.9592742919921876,-0.05670166015625
-0.39605712890625,0.996368408203125,-0.0359954833984375
-0.3136138916015625,0.8720245361328125,-0.1222381591796875
-0.343597412109375,0.760894775390625,-0.1836700439453125
-0.32379150390625,0.7344818115234375,-0.1153717041015625
-0.3032073974609375,0.7274322509765625,-0.0189666748046875
-0.2982940673828125,0.735595703125,-0.003631591796875
-0.333892822265625,0.761993408203125,-0.031951904296875
-0.346923828125,0.8264923095703125,-0.0437164306640625
-0.341278076171875,0.93927001953125,-0.092742919921875
-0.3983001708984375,0.959075927734375,-0.1899566650390625
-0.6053619384765625,1.101776123046875,-0.1604156494140625
-0.5944976806640625,1.1764678955078125,-0.155364990234375
-0.5810699462890625,1.170501708984375,-0.2737274169921875
-0.61004638671875,0.95416259765625,-0.3668365478515625
-0.753387451171875,0.8375244140625,-0.259307861328125
-0.779632568359375,0.81341552734375,-0.1930694580078125
-0.696685791015625,0.7888946533203125,-0.1464385986328125
-0.5831451416015625,0.7642822265625,-0.12939453125
-0.4653167724609375,0.7725677490234375,-0.1409149169921875
-0.41705322265625,0.7929534912109375,-0.148590087890625
-0.41131591796875,0.7783050537109375,-0.1064453125
-0.4655914306640625,0.78173828125,-0.048248291015625
-0.547576904296875,0.8101043701171875,0.03057861328125
-0.64483642578125,0.8900909423828125,0.0283203125
-0.7594757080078125,0.9141693115234376,0.003326416015625
-0.768463134765625,0.870849609375,0.0712432861328125
-0.72332763671875,0.8137969970703125,0.0767059326171875
-0.695892333984375,0.976043701171875,0.0006103515625
-0.6756591796875,1.1409912109375,-0.062469482421875
-0.6298370361328125,0.909637451171875,-0.1500091552734375
-0.7263336181640625,0.7135467529296875,-0.1873626708984375
-0.77569580078125,0.7939605712890625,-0.071014404296875
-0.69635009765625,0.9925079345703124,0.0027008056640625
-0.6798858642578125,0.9542388916015624,-0.091400146484375
-0.6733551025390625,0.8232879638671875,-0.2834625244140625
-0.6859893798828125,0.6938323974609375,-0.357940673828125
-0.7534942626953125,0.6022491455078125,-0.409393310546875
-0.7860107421875,0.554107666015625,-0.564849853515625
-0.8028564453125,0.487274169921875,-0.5930328369140625
-0.7749176025390625,0.37384033203125,-0.681121826171875
-0.794097900390625,0.3337554931640625,-0.7755126953125
-0.789215087890625,0.3101043701171875,-0.962615966796875
-0.8043212890625,0.2630615234375,-0.9037933349609376
-0.8072509765625,0.3792266845703125,-0.8490142822265625
-0.535552978515625,0.2133636474609375,-0.9295196533203124
-0.554168701171875,0.099334716796875,-1.27288818359375
-0.66510009765625,0.2808380126953125,-1.454925537109375
-0.3695220947265625,0.327850341796875,-1.1034698486328125
-0.27178955078125,0.0771636962890625,-0.959381103515625
-0.449676513671875,0.1422119140625,-1.1207427978515625
-0.3148651123046875,0.1235809326171875,-1.0304412841796875
-0.1041107177734375,0.083526611328125,-1.064361572265625
-0.1793975830078125,0.10028076171875,-0.901092529296875
-0.1723785400390625,0.11505126953125,-0.7534942626953125
0.0269317626953125,-0.0213623046875,-0.8332061767578125
0.041290283203125,-0.055419921875,-0.7493896484375
-0.073150634765625,-0.0562744140625,-0.73797607421875
-0.1162567138671875,-0.0227508544921875,-0.89447021484375
-0.048004150390625,-0.1717681884765625,-0.7551727294921875
0.00897216796875,-0.2527618408203125,-0.643218994140625
-0.0353546142578125,-0.171295166015625,-0.7628021240234375
0.0733795166015625,-0.321197509765625,-0.8265228271484375
0.0306854248046875,-0.2337188720703125,-0.677764892578125
-0.173797607421875,-0.2277984619140625,-0.7986907958984375
-0.1068267822265625,-0.2321014404296875,-0.869598388671875
-0.0228118896484375,-0.1593780517578125,-0.7297515869140625
0.1200408935546875,-0.285400390625,-0.705474853515625
0.0115509033203125,-0.434661865234375,-0.63134765625
-0.0799713134765625,-0.374267578125,-0.718841552734375
0.0356903076171875,-0.3141326904296875,-0.4739990234375
0.131561279296875,-0.379486083984375,-0.4335784912109375
0.2830810546875,-0.387786865234375,-0.424560546875
0.120086669921875,-0.1270751953125,-0.2886962890625
0.053741455078125,0.0266265869140625,0.00341796875
0.05328369140625,0.0332794189453125,0.003204345703125
0.0507965087890625,0.0377349853515625,-0.0008697509765625
0.04681396484375,0.0406494140625,-0.0013885498046875
0.04022216796875,0.0420379638671875,0.002471923828125
0.0348358154296875,0.04449462890625,0.0033111572265625
0.030792236328125,0.0453948974609375,0.003814697265625
0.0264434814453125,0.0452728271484375,0.00494384765625
0.0254058837890625,0.046417236328125,0.00592041015625
0.023681640625,0.047882080078125,0.0174102783203125
-7.656143188476562,3.8501129150390634,0.5573883056640625
-0.6703643798828125,-1.25091552734375,3.177108764648437
0.5998077392578125,0.181732177734375,0.2645416259765625
0.4383087158203125,-0.0467529296875,0.03900146484375
0.5552978515625,-0.202423095703125,0.4434051513671875
1.058990478515625,-0.24713134765625,0.216033935546875
1.30157470703125,-0.19873046875,0.30975341796875
0.7930450439453125,-0.0879058837890625,0.2361602783203125
0.962005615234375,-0.1393585205078125,0.3487701416015625
0.74395751953125,-0.112640380859375,0.5040740966796875
0.6086883544921875,-0.108184814453125,0.6790313720703125
-0.3307647705078125,-0.2106475830078125,0.49749755859375
-0.806488037109375,-0.0322265625,1.375152587890625
0.063812255859375,-0.113311767578125,0.745208740234375
-0.2523651123046875,-0.1045989990234375,0.898834228515625
-0.2083892822265625,-0.0845489501953125,0.9991607666015624
-0.2411956787109375,-0.1079864501953125,0.9892120361328124
-0.2043304443359375,-0.1000213623046875,0.987945556640625
-0.215606689453125,-0.1131134033203125,0.9825286865234376
-0.210052490234375,-0.099945068359375,0.986480712890625
0.1395721435546875,-0.3706817626953125,0.6326141357421875
-0.18511962890625,0.009979248046875,1.17041015625
-0.4989471435546875,-0.199432373046875,1.1361083984375
0.077178955078125,-0.414947509765625,1.3760528564453125
-0.2780609130859375,-0.1873016357421875,2.12713623046875
-7.62939453125e-05,0.679931640625,0.9678802490234376
0.5857696533203125,0.3817291259765625,-0.0372772216796875
-0.0316925048828125,0.6239166259765625,-1.0162353515625
-0.43231201171875,0.88848876953125,-1.1942596435546875
-0.64337158203125,0.106414794921875,-0.87530517578125
-0.414398193359375,-0.629638671875,-0.644744873046875
0.0677337646484375,0.0789031982421875,-1.557464599609375
-0.1369781494140625,-0.0826263427734375,-1.016265869140625
-0.13226318359375,0.0159454345703125,-0.995941162109375
-0.1423492431640625,-0.0074310302734375,-0.9658966064453124
-0.1620330810546875,-0.0344085693359375,-0.97845458984375
-0.1089935302734375,-0.01605224609375,-0.9978179931640624
-0.1608734130859375,-0.02850341796875,-0.97161865234375
-0.1234588623046875,-0.0063323974609375,-0.999603271484375
-0.127593994140625,-0.029754638671875,-1.0010528564453125
-0.1505279541015625,-0.0274200439453125,-0.9748077392578124
-0.1477813720703125,-0.014190673828125,-0.962066650390625
-0.11309814453125,-0.0415191650390625,-1.0128631591796875
-0.1598052978515625,-0.0332794189453125,-0.988311767578125
-0.1051025390625,-0.0290679931640625,-0.9759521484375
