AccelerationX,AccelerationY,AccelerationZ
-0.36102294921875,0.7681121826171875,-0.4629058837890625
-0.4000701904296875,0.7628021240234375,-0.463714599609375
-0.4015350341796875,0.769287109375,-0.5156707763671875
-0.3808746337890625,0.76959228515625,-0.486572265625
-0.37744140625,0.7852935791015625,-0.467498779296875
-0.3801727294921875,0.7961883544921875,-0.4776153564453125
-0.3686370849609375,0.787994384765625,-0.4642181396484375
-0.3597259521484375,0.7900848388671875,-0.479949951171875
-0.367523193359375,0.786651611328125,-0.46917724609375
-0.386260986328125,0.773223876953125,-0.452972412109375
-0.3765106201171875,0.7936248779296875,-0.4763336181640625
-0.3751373291015625,0.7648468017578125,-0.414581298828125
-0.3598785400390625,0.7432861328125,-0.3150177001953125
-0.3403472900390625,0.8104400634765625,-0.216217041015625
-0.400909423828125,0.8321533203125,-0.2991943359375
-0.494110107421875,0.8606414794921875,-0.3413848876953125
-0.53753662109375,0.8853302001953125,-0.31304931640625
-0.551666259765625,0.8041229248046875,-0.3522491455078125
-0.5941162109375,0.787078857421875,-0.195098876953125
-0.60382080078125,0.780914306640625,-0.0916900634765625
-0.5470428466796875,0.7952423095703125,-0.0853271484375
-0.37298583984375,0.75982666015625,-0.1741180419921875
-0.5675048828125,0.774444580078125,-0.0978240966796875
-0.7187347412109375,0.7701873779296875,0.070465087890625
-0.7750396728515625,0.7713165283203125,0.09063720703125
-0.73931884765625,0.768218994140625,0.1404876708984375
-0.6996917724609375,0.7662506103515625,0.11572265625
-0.7381744384765625,0.7703857421875,0.082122802734375
-0.712005615234375,0.7439422607421875,0.076141357421875
-0.7318572998046875,0.7349853515625,0.1102294921875
-0.781829833984375,0.7704010009765625,0.0410308837890625
-0.87738037109375,0.867828369140625,0.004364013671875
-0.8610992431640625,0.8368988037109375,0.0294952392578125
-0.8209075927734375,0.6899261474609375,-0.03179931640625
-0.7520751953125,0.7824554443359375,-0.037017822265625
-0.70428466796875,0.85980224609375,0.131378173828125
-0.6546630859375,0.792266845703125,0.1329498291015625
-0.660308837890625,0.7083740234375,0.1077880859375
-0.5847930908203125,0.7113494873046875,0.051544189453125
-0.520904541015625,0.697906494140625,0.12347412109375
-0.4697265625,0.669097900390625,0.1759185791015625
-0.4595489501953125,0.66375732421875,0.1159820556640625
-0.425018310546875,0.7256622314453125,0.0641632080078125
-0.466339111328125,0.7983245849609375,0.1458282470703125
-0.4708251953125,0.8741912841796875,0.2114715576171875
-0.5200958251953125,0.9054412841796876,0.203155517578125
-0.5944061279296875,0.9268035888671876,0.1922149658203125
-0.6057586669921875,1.02838134765625,0.158905029296875
-0.6197662353515625,1.0322723388671875,0.0432586669921875
-0.6048431396484375,0.81268310546875,-0.003631591796875
-0.664794921875,0.704193115234375,0.070831298828125
-0.7208709716796875,0.8052825927734375,0.07568359375
-0.740081787109375,0.8610382080078125,0.0875396728515625
-0.7212371826171875,0.7530670166015625,0.015594482421875
-0.7311553955078125,0.667022705078125,-0.010498046875
-0.5943603515625,0.697540283203125,0.03814697265625
-0.5336761474609375,0.705108642578125,0.0758056640625
-0.5606231689453125,0.7281036376953125,0.0865325927734375
-0.6643218994140625,0.776092529296875,0.12371826171875
-0.7053375244140625,0.842010498046875,0.12237548828125
-0.721282958984375,0.91864013671875,0.0673065185546875
-0.6757049560546875,0.9304962158203124,0.0209808349609375
-0.6833953857421875,0.9759979248046876,0.0317840576171875
-0.6703948974609375,1.11895751953125,0.03607177734375
-0.5553436279296875,0.9449462890625,0.0318603515625
-0.649688720703125,0.8193511962890625,0.07366943359375
-0.6306304931640625,0.9195098876953124,0.0292816162109375
-0.4886627197265625,0.9623260498046876,-0.0142822265625
-0.422027587890625,0.8231201171875,-0.0211029052734375
-0.4819488525390625,0.7333984375,0.01190185546875
-0.45635986328125,0.7183074951171875,0.0382537841796875
-0.3970184326171875,0.703765869140625,0.062103271484375
-0.353302001953125,0.7155609130859375,0.060211181640625
-0.3451995849609375,0.767669677734375,0.03277587890625
-0.361328125,0.8408355712890625,0.00830078125
-0.401092529296875,0.9505157470703124,0.0230712890625
-0.4428253173828125,0.9552154541015624,0.0260467529296875
-0.641357421875,1.0966033935546875,0.038177490234375
-0.6172943115234375,1.1102447509765625,-0.0410003662109375
-0.5643463134765625,0.8537445068359375,-0.1476287841796875
-0.735931396484375,0.769927978515625,-0.0951995849609375
-0.7794189453125,0.822906494140625,-0.004486083984375
-0.73980712890625,0.845794677734375,0.0774078369140625
-0.6899566650390625,0.7529296875,-0.023193359375
-0.7379608154296875,0.7393798828125,-0.04840087890625
-0.70440673828125,0.7286834716796875,0.098785400390625
-0.58544921875,0.7068939208984375,0.161865234375
-0.53759765625,0.7469635009765625,0.062347412109375
-0.55548095703125,0.84918212890625,-0.0388641357421875
-0.5954132080078125,0.93975830078125,-0.04315185546875
-0.6265106201171875,0.951385498046875,-0.0914154052734375
-0.624481201171875,0.9170684814453124,-0.1426544189453125
-0.681427001953125,1.003570556640625,-0.151947021484375
-0.6238861083984375,1.1563262939453125,-0.1453094482421875
-0.5189971923828125,1.0102691650390625,-0.115753173828125
-0.616485595703125,0.833038330078125,-0.0791015625
-0.646240234375,0.8740386962890625,-0.0915374755859375
-0.4862518310546875,0.9529266357421876,-0.085174560546875
-0.3805389404296875,0.82025146484375,-0.1371917724609375
-0.4534149169921875,0.697052001953125,-0.151458740234375
-0.4446563720703125,0.7166900634765625,-0.15399169921875
-0.3621826171875,0.74810791015625,-0.0653228759765625
-0.3434906005859375,0.8076934814453125,0.0031890869140625
-0.309234619140625,0.88812255859375,0.058746337890625
-0.3131866455078125,0.940216064453125,0.0679168701171875
-0.3638763427734375,0.9725494384765624,0.0326080322265625
-0.4151458740234375,0.8768310546875,0.04656982421875
-0.5457916259765625,1.015228271484375,0.1396331787109375
-0.46282958984375,1.0823822021484375,0.0697784423828125
-0.4955596923828125,0.8400115966796875,-0.0555572509765625
-0.639312744140625,0.8487091064453125,-0.0001068115234375
-0.6899566650390625,0.9138946533203124,0.024322509765625
-0.665496826171875,0.817108154296875,0.036834716796875
-0.6616058349609375,0.7315673828125,0.0199432373046875
-0.627288818359375,0.7784881591796875,-0.037750244140625
-0.5294189453125,0.7904510498046875,-0.0409393310546875
-0.52197265625,0.7481536865234375,-0.0109405517578125
-0.5359954833984375,0.7926025390625,0.0135345458984375
-0.5947723388671875,0.8978424072265625,-0.0015869140625
-0.688690185546875,0.9598541259765624,-0.0226287841796875
-0.7222747802734375,0.966064453125,-0.0549774169921875
-0.6976776123046875,0.9326324462890624,-0.088226318359375
-0.66485595703125,1.1264495849609375,-0.094329833984375
-0.4987945556640625,1.1111297607421875,-0.1114959716796875
-0.5539093017578125,0.9198760986328124,-0.0433349609375
-0.5884246826171875,0.982452392578125,-0.026947021484375
-0.4868927001953125,1.00335693359375,-0.0865936279296875
-0.4508819580078125,0.8514862060546875,-0.1063385009765625
-0.4506988525390625,0.7699737548828125,-0.088592529296875
-0.40753173828125,0.824127197265625,-0.1212158203125
-0.32550048828125,0.8376922607421875,-0.00732421875
-0.25189208984375,0.815704345703125,0.0255126953125
-0.234710693359375,0.8199005126953125,0.004241943359375
-0.26678466796875,0.92901611328125,-0.0186614990234375
-0.30029296875,0.9989166259765624,-0.0051422119140625
-0.4246978759765625,0.9358367919921876,0.024658203125
-0.581878662109375,1.075286865234375,0.1572265625
-0.47222900390625,1.1201934814453125,0.0364227294921875
-0.4542083740234375,0.8782501220703125,-0.1058349609375
-0.5843963623046875,0.8556365966796875,-0.01226806640625
-0.5957794189453125,0.8733062744140625,0.0854644775390625
-0.5586090087890625,0.8150787353515625,0.08428955078125
-0.5648956298828125,0.7166748046875,0.04791259765625
-0.566864013671875,0.732666015625,0.0274200439453125
-0.5336151123046875,0.79486083984375,0.0033416748046875
-0.5150299072265625,0.786407470703125,-0.0406646728515625
-0.5670623779296875,0.7842559814453125,-0.04852294921875
-0.62603759765625,0.8149566650390625,-0.0050811767578125
-0.6797943115234375,0.90472412109375,0.0090789794921875
-0.679443359375,0.94635009765625,-0.0230865478515625
-0.723419189453125,0.9391937255859376,-0.0449371337890625
-0.6986236572265625,1.0838623046875,-0.0107269287109375
-0.5821685791015625,0.9831695556640624,-0.01300048828125
-0.65582275390625,0.8757171630859375,0.0606842041015625
-0.6529998779296875,0.9828948974609376,-0.0128173828125
-0.5570831298828125,1.06097412109375,-0.058135986328125
-0.4511566162109375,0.9642333984375,-0.0900421142578125
-0.427154541015625,0.8565521240234375,-0.0619659423828125
-0.377410888671875,0.837982177734375,-0.030181884765625
-0.3281707763671875,0.8173828125,0.0374298095703125
-0.27105712890625,0.7860870361328125,0.06829833984375
-0.25250244140625,0.78900146484375,0.055023193359375
-0.2749786376953125,0.8179473876953125,0.0258331298828125
-0.33001708984375,0.9192352294921876,0.05401611328125
-0.3263397216796875,0.9564361572265624,0.0115509033203125
-0.463470458984375,1.13116455078125,0.0108184814453125
-0.4569244384765625,1.1726837158203125,-0.0461883544921875
-0.51287841796875,0.95947265625,-0.059173583984375
-0.576507568359375,0.795257568359375,-0.0567626953125
-0.6293182373046875,0.86004638671875,-0.072357177734375
-0.6133575439453125,0.9338226318359376,-0.065093994140625
-0.6212615966796875,0.790679931640625,-0.0749053955078125
-0.6983795166015625,0.7031707763671875,-0.1216278076171875
-0.63238525390625,0.69970703125,-0.204071044921875
-0.5810699462890625,0.7178955078125,-0.0640869140625
-0.63104248046875,0.7741546630859375,0.0631866455078125
-0.69580078125,0.837493896484375,0.03765869140625
-0.7485504150390625,0.8778228759765625,-0.06695556640625
-0.761566162109375,1.0000152587890625,-0.078521728515625
-0.7388153076171875,1.0237884521484375,-0.0551605224609375
-0.7353363037109375,1.095611572265625,-0.0269317626953125
-0.6385040283203125,1.187713623046875,-0.083770751953125
-0.478607177734375,1.088348388671875,-0.1559906005859375
-0.39447021484375,0.841552734375,-0.1902313232421875
-0.4618072509765625,0.8258209228515625,-0.15997314453125
-0.46295166015625,0.91357421875,-0.122833251953125
-0.3164825439453125,0.891357421875,-0.174407958984375
-0.3296051025390625,0.785064697265625,-0.19140625
-0.3713531494140625,0.7401275634765625,-0.1634521484375
-0.3693084716796875,0.7353057861328125,-0.0926513671875
-0.3603057861328125,0.730010986328125,-0.0224151611328125
-0.34228515625,0.7625274658203125,0.064422607421875
-0.34326171875,0.8571319580078125,0.058868408203125
-0.3649444580078125,0.9506683349609376,0.0336456298828125
-0.4136505126953125,0.9896240234375,0.05474853515625
-0.5142974853515625,0.988525390625,0.097808837890625
-0.592498779296875,1.145904541015625,0.179779052734375
-0.501251220703125,1.0139923095703125,0.019683837890625
-0.5587615966796875,0.7549896240234375,-0.045318603515625
-0.6626739501953125,0.8191375732421875,-0.0145111083984375
-0.6516876220703125,0.9743804931640624,0.0341796875
-0.6365814208984375,0.8900146484375,-0.079437255859375
-0.6375732421875,0.775787353515625,-0.1495208740234375
-0.61212158203125,0.7934417724609375,-0.1997222900390625
-0.50054931640625,0.7890472412109375,-0.0858612060546875
-0.4813690185546875,0.776611328125,-0.0464630126953125
-0.5134735107421875,0.80419921875,-0.024871826171875
-0.5526275634765625,0.86627197265625,-0.0419921875
-0.588470458984375,0.9370269775390624,-0.1077880859375
-0.5956573486328125,0.9733123779296876,-0.1339874267578125
-0.6168365478515625,0.955963134765625,-0.0680084228515625
-0.6066741943359375,1.0829925537109375,-0.0769195556640625
-0.5349884033203125,1.1005096435546875,-0.1068267822265625
-0.5287628173828125,0.95367431640625,-0.1364288330078125
-0.6551361083984375,0.9635772705078124,-0.0791778564453125
-0.6007232666015625,1.06719970703125,-0.0919952392578125
-0.464813232421875,1.1135101318359375,-0.1749725341796875
-0.3838348388671875,1.010650634765625,-0.2325439453125
-0.3427734375,0.88861083984375,-0.217315673828125
-0.29937744140625,0.819671630859375,-0.164337158203125
-0.2622833251953125,0.7666778564453125,-0.057586669921875
-0.222442626953125,0.7427825927734375,0.00469970703125
-0.2141876220703125,0.7574005126953125,0.026947021484375
-0.2476959228515625,0.818817138671875,0.060089111328125
-0.32208251953125,0.926788330078125,0.1042938232421875
-0.3751373291015625,0.9992828369140624,0.070587158203125
-0.4820556640625,1.0719146728515625,0.02117919921875
-0.50640869140625,1.1282196044921875,0.01385498046875
-0.5450897216796875,1.151031494140625,-0.0657501220703125
-0.5439453125,1.00958251953125,-0.125396728515625
-0.6507415771484375,0.891204833984375,-0.063323974609375
-0.7130889892578125,0.89990234375,-0.0685272216796875
-0.71002197265625,0.8910980224609375,-0.11614990234375
-0.68585205078125,0.7966156005859375,-0.13543701171875
-0.638702392578125,0.78472900390625,-0.1201324462890625
-0.523956298828125,0.7996978759765625,-0.0407562255859375
-0.394195556640625,0.783447265625,-0.060821533203125
-0.3301239013671875,0.7857818603515625,-0.1092376708984375
-0.3754425048828125,0.7869415283203125,-0.04083251953125
-0.5352935791015625,0.860137939453125,0.06927490234375
-0.6284027099609375,0.9709625244140624,0.032684326171875
-0.70379638671875,0.955047607421875,-0.0558624267578125
-0.8165435791015625,1.0511932373046875,-0.0625457763671875
-0.74688720703125,1.1241607666015625,-0.075164794921875
-0.6105499267578125,1.0186004638671875,-0.103302001953125
-0.655548095703125,0.90704345703125,-0.1053466796875
-0.6373291015625,1.0502166748046875,-0.05621337890625
-0.4937286376953125,1.153411865234375,-0.0885772705078125
-0.3829193115234375,1.040313720703125,-0.141876220703125
-0.3706817626953125,0.89581298828125,-0.131622314453125
-0.2958526611328125,0.8355255126953125,-0.100494384765625
-0.215179443359375,0.7999267578125,-0.02471923828125
-0.160064697265625,0.741790771484375,0.0272369384765625
-0.1585540771484375,0.7096405029296875,0.047119140625
-0.207000732421875,0.7811279296875,0.010498046875
-0.2633056640625,0.93988037109375,0.0277252197265625
-0.3339691162109375,1.0045928955078125,0.07647705078125
-0.5242919921875,1.1341705322265625,0.1067352294921875
-0.5054473876953125,1.25811767578125,0.0157928466796875
-0.544708251953125,1.2356414794921875,-0.150543212890625
-0.596343994140625,0.994720458984375,-0.113525390625
-0.7246856689453125,0.8898468017578125,0.048675537109375
-0.7591705322265625,0.8989715576171875,0.053497314453125
-0.708251953125,0.8404388427734375,-0.0026092529296875
-0.647705078125,0.7584075927734375,-0.026824951171875
-0.5751495361328125,0.752166748046875,-0.0124359130859375
-0.498199462890625,0.7806549072265625,0.0209197998046875
-0.4641265869140625,0.79364013671875,0.0125885009765625
-0.460906982421875,0.7994232177734375,-0.0092010498046875
-0.51043701171875,0.816314697265625,-0.071563720703125
-0.6203765869140625,0.8927154541015625,-0.0333099365234375
-0.63885498046875,0.9221954345703124,-0.0088043212890625
-0.627105712890625,0.9621429443359376,-0.0009307861328125
-0.5740509033203125,1.046417236328125,-0.0331878662109375
-0.540802001953125,1.106719970703125,-0.1007080078125
-0.50665283203125,0.9606475830078124,-0.130859375
-0.5702972412109375,0.825653076171875,-0.03131103515625
-0.6295623779296875,0.9457244873046876,-0.0008697509765625
-0.558441162109375,1.1219940185546875,-0.0643310546875
-0.4178009033203125,1.0897064208984375,-0.14105224609375
-0.396240234375,0.93194580078125,-0.16741943359375
-0.3871612548828125,0.848785400390625,-0.110687255859375
-0.3016357421875,0.8291015625,-0.04888916015625
-0.2116851806640625,0.7715606689453125,-0.044464111328125
-0.2201385498046875,0.7445831298828125,0.01434326171875
-0.2550048828125,0.76654052734375,0.075408935546875
-0.29351806640625,0.7830963134765625,0.1129913330078125
-0.3836517333984375,0.866973876953125,0.133575439453125
-0.47918701171875,1.117218017578125,0.128814697265625
-0.471466064453125,1.2224273681640625,0.0054473876953125
-0.622894287109375,1.0604095458984375,-0.04803466796875
-0.71453857421875,0.866363525390625,0.0533905029296875
-0.701202392578125,0.746612548828125,0.1233673095703125
-0.713470458984375,0.8236541748046875,0.0703277587890625
-0.724273681640625,0.9917755126953124,-0.0209197998046875
-0.735687255859375,1.00653076171875,-0.0918121337890625
-0.7354583740234375,0.858245849609375,-0.104644775390625
-0.667083740234375,0.7311859130859375,-0.063232421875
-0.598663330078125,0.7587738037109375,0.010040283203125
-0.56988525390625,0.8194427490234375,-0.0222625732421875
-0.574798583984375,0.90625,-0.0155181884765625
-0.5306549072265625,0.957122802734375,-0.0428619384765625
-0.3611907958984375,0.9111480712890624,-0.0582733154296875
-0.295013427734375,0.917572021484375,-0.0498809814453125
-0.255096435546875,0.9003753662109375,0.0138397216796875
-0.320587158203125,0.89166259765625,-0.028778076171875
-0.4244232177734375,0.93798828125,-0.0321197509765625
-0.4347991943359375,0.9451141357421876,-0.037567138671875
-0.398590087890625,0.86419677734375,-0.0539093017578125
-0.4031524658203125,0.814849853515625,-0.077392578125
-0.4740142822265625,0.7909088134765625,-0.14471435546875
-0.48101806640625,0.8399658203125,-0.1761474609375
-0.4392852783203125,0.9178314208984376,-0.17626953125
-0.4534759521484375,0.890167236328125,-0.13372802734375
-0.65802001953125,0.84210205078125,-0.2275848388671875
-0.78009033203125,0.8285369873046875,-0.2986297607421875
-0.68359375,0.7881927490234375,-0.2320098876953125
-0.696929931640625,0.7954864501953125,-0.1808624267578125
-0.6563720703125,0.8866119384765625,-0.2688140869140625
-0.6385498046875,0.890838623046875,-0.2504425048828125
-0.603515625,0.9356842041015624,-0.2519683837890625
-0.585052490234375,0.98211669921875,-0.2595062255859375
-0.5575714111328125,0.95556640625,-0.3250274658203125
-0.5396728515625,0.935211181640625,-0.2988739013671875
-0.4700469970703125,0.9033050537109376,-0.242889404296875
-0.4582672119140625,0.854400634765625,-0.195831298828125
-0.44683837890625,0.822998046875,-0.1334075927734375
-0.46038818359375,0.8335723876953125,-0.0750274658203125
-0.4844207763671875,0.928863525390625,-0.0738067626953125
-0.4474945068359375,0.9173431396484376,-0.11279296875
-0.5034637451171875,0.760650634765625,-0.037139892578125
-0.3668975830078125,0.748626708984375,0.1386260986328125
-0.2547454833984375,0.857025146484375,0.0388946533203125
-0.2867889404296875,0.9678497314453124,-0.1283721923828125
-0.3790740966796875,0.9491424560546876,-0.099578857421875
-0.4550628662109375,0.872528076171875,0.0426788330078125
-0.4714508056640625,0.8361968994140625,0.1195526123046875
-0.4881591796875,0.838043212890625,0.1464080810546875
-0.4871673583984375,0.865234375,0.14288330078125
-0.5550384521484375,0.8603668212890625,0.0891265869140625
-0.63665771484375,0.853363037109375,0.0868988037109375
-0.7329864501953125,0.8353424072265625,0.1141815185546875
-0.7822265625,0.9006500244140625,0.1080474853515625
-0.7329559326171875,0.8934783935546875,0.0980987548828125
-0.69696044921875,0.887054443359375,0.0282440185546875
-0.7761688232421875,0.98712158203125,-0.0420074462890625
-0.7529754638671875,0.9445343017578124,-0.020782470703125
-0.7713623046875,0.768310546875,0.04150390625
-0.8219146728515625,0.871612548828125,-0.00787353515625
-0.7483367919921875,1.046783447265625,-0.0348358154296875
-0.6310882568359375,1.1026458740234375,-0.1186065673828125
-0.57415771484375,1.01507568359375,-0.2138824462890625
-0.565673828125,0.9568328857421876,-0.1807098388671875
-0.467041015625,0.97076416015625,-0.12054443359375
-0.3450469970703125,0.946044921875,-0.096923828125
-0.2715911865234375,0.8727264404296875,-0.05364990234375
-0.2431640625,0.800567626953125,-0.039703369140625
-0.27587890625,0.8079071044921875,0.0011138916015625
-0.2761383056640625,0.84698486328125,0.0482635498046875
-0.27374267578125,0.8724517822265625,0.0647735595703125
-0.4527130126953125,0.9868927001953124,0.13525390625
-0.481658935546875,1.0520477294921875,0.179290771484375
-0.5173797607421875,1.0242462158203125,0.0964202880859375
-0.64093017578125,0.9288177490234376,0.0635528564453125
-0.736968994140625,0.927642822265625,0.07464599609375
-0.742584228515625,0.93829345703125,0.0354766845703125
-0.676055908203125,0.800323486328125,-0.027984619140625
-0.677001953125,0.746429443359375,-0.0862274169921875
-0.606658935546875,0.76019287109375,-0.0946502685546875
-0.521453857421875,0.7442474365234375,-0.0325775146484375
-0.527587890625,0.7220001220703125,-0.0035247802734375
-0.5696563720703125,0.7767181396484375,0.0085601806640625
-0.6439361572265625,0.8932952880859375,-0.0087127685546875
-0.7257080078125,0.9247283935546876,-0.0519256591796875
-0.762939453125,0.8654937744140625,-0.0842132568359375
-0.847991943359375,0.92974853515625,-0.0812225341796875
-0.764068603515625,1.059356689453125,-0.0003204345703125
-0.6348419189453125,1.037750244140625,-0.0140838623046875
-0.6417083740234375,0.8888702392578125,-0.0261688232421875
-0.6259765625,0.9454803466796876,-0.0868377685546875
-0.4995574951171875,0.9869537353515624,-0.0876312255859375
-0.4280853271484375,0.9271087646484376,-0.09405517578125
-0.4429931640625,0.830535888671875,-0.0928192138671875
-0.4214935302734375,0.7971954345703125,-0.0820159912109375
-0.332550048828125,0.78375244140625,-0.055023193359375
-0.301727294921875,0.769317626953125,-0.0049285888671875
-0.3116455078125,0.7657012939453125,-0.0113067626953125
-0.3218994140625,0.7861328125,-0.0186767578125
-0.372467041015625,0.9017791748046876,0.0011444091796875
-0.3604583740234375,0.985015869140625,-0.0042724609375
-0.5201873779296875,1.0859527587890625,-0.0403900146484375
-0.512786865234375,1.1653289794921875,-0.1454315185546875
-0.5540771484375,1.04730224609375,-0.2313385009765625
-0.615386962890625,0.9131927490234376,-0.1702728271484375
-0.682861328125,0.8553009033203125,-0.04364013671875
-0.7584228515625,0.8896484375,-0.048583984375
-0.761688232421875,0.8276824951171875,-0.1012420654296875
-0.7267303466796875,0.7028961181640625,-0.173492431640625
-0.67596435546875,0.6797332763671875,-0.1440887451171875
-0.590057373046875,0.7250518798828125,-0.022247314453125
-0.528411865234375,0.756195068359375,0.042388916015625
-0.5129547119140625,0.79833984375,0.07421875
-0.5686492919921875,0.8358917236328125,0.01513671875
-0.6219940185546875,0.9215545654296876,-0.0827789306640625
-0.659881591796875,0.9561767578125,-0.1328125
-0.6780242919921875,0.9226531982421876,0.0251312255859375
-0.7449798583984375,1.064605712890625,0.0972442626953125
-0.6688079833984375,1.1686553955078125,-0.02874755859375
-0.5821990966796875,1.0091552734375,-0.136016845703125
-0.6474456787109375,0.9078369140625,-0.07989501953125
-0.60467529296875,0.9453582763671876,-0.007781982421875
-0.5275726318359375,1.001373291015625,0.018402099609375
-0.405792236328125,0.9153900146484376,-0.0833740234375
-0.35650634765625,0.7878265380859375,-0.1808929443359375
-0.3413848876953125,0.70355224609375,-0.110687255859375
-0.2850494384765625,0.6732635498046875,0.0011749267578125
-0.201568603515625,0.6720123291015625,0.021240234375
-0.235931396484375,0.69708251953125,0.0396270751953125
-0.376373291015625,0.762481689453125,0.0634765625
-0.4479827880859375,0.893218994140625,-0.0166015625
-0.5406341552734375,1.0538787841796875,-0.1190338134765625
-0.6441192626953125,1.1587066650390625,-0.23980712890625
-0.75738525390625,1.2729339599609375,-0.2931365966796875
-0.7207794189453125,1.1883697509765625,-0.38079833984375
-0.6392669677734375,0.8517303466796875,-0.3804779052734375
-0.7121429443359375,0.721923828125,-0.2336273193359375
-0.7209625244140625,0.737274169921875,-0.1567840576171875
-0.695037841796875,0.691375732421875,-0.123809814453125
-0.63623046875,0.6564788818359375,-0.135040283203125
-0.566864013671875,0.7195587158203125,-0.10418701171875
-0.5038909912109375,0.7523040771484375,-0.11700439453125
-0.51416015625,0.7583465576171875,-0.1224212646484375
-0.592864990234375,0.7760009765625,-0.1374053955078125
-0.7190399169921875,0.8222198486328125,-0.071197509765625
-0.7669525146484375,0.974517822265625,-0.1108245849609375
-0.7308807373046875,1.015625,-0.1990203857421875
-0.708740234375,1.0103759765625,-0.2595062255859375
-0.7093048095703125,1.16485595703125,-0.31585693359375
-0.5846405029296875,1.1899566650390625,-0.301025390625
-0.4382171630859375,0.917755126953125,-0.292022705078125
-0.5563812255859375,0.820770263671875,-0.18829345703125
-0.5121002197265625,0.871978759765625,-0.047637939453125
-0.3190155029296875,0.878753662109375,-0.0992279052734375
-0.2287139892578125,0.741607666015625,-0.126617431640625
-0.2834014892578125,0.690948486328125,-0.1272430419921875
-0.2991180419921875,0.685516357421875,-0.0574188232421875
-0.3197174072265625,0.7032470703125,0.0065460205078125
-0.3564910888671875,0.737396240234375,0.0457916259765625
-0.393157958984375,0.79412841796875,0.0713348388671875
-0.432098388671875,0.92962646484375,0.0730133056640625
-0.413848876953125,1.0638275146484375,-0.00286865234375
-0.4930877685546875,1.1208648681640625,-0.136444091796875
-0.682708740234375,1.2918548583984375,-0.107940673828125
-0.6608123779296875,1.243896484375,-0.1459808349609375
-0.61083984375,0.919281005859375,-0.190338134765625
-0.736480712890625,0.81951904296875,-0.095001220703125
-0.7446441650390625,0.8585968017578125,0.0102386474609375
-0.708770751953125,0.8131103515625,0.0392303466796875
-0.6746673583984375,0.6997222900390625,-0.0903472900390625
-0.630462646484375,0.7007293701171875,-0.1119842529296875
-0.5606536865234375,0.7491912841796875,-0.0476837158203125
-0.54559326171875,0.751495361328125,-0.0242462158203125
-0.5445098876953125,0.8182220458984375,0.04449462890625
-0.5554351806640625,0.898956298828125,-0.0069580078125
-0.6084136962890625,0.9342193603515624,-0.0763092041015625
-0.5973968505859375,0.9938812255859376,-0.09844970703125
-0.5502166748046875,0.9915924072265624,-0.1002197265625
-0.6071319580078125,1.1314849853515625,-0.088623046875
-0.5467681884765625,1.2266082763671875,-0.1029815673828125
-0.4403076171875,1.038360595703125,-0.13232421875
-0.5540771484375,0.847991943359375,-0.1096649169921875
-0.5723419189453125,0.8782196044921875,-0.05316162109375
-0.436126708984375,0.95196533203125,-0.0743408203125
-0.3214111328125,0.8404693603515625,-0.1080169677734375
-0.3579864501953125,0.7392578125,-0.1311798095703125
-0.3275299072265625,0.6972808837890625,-0.1121368408203125
-0.2816314697265625,0.72857666015625,-0.0335845947265625
-0.310089111328125,0.745880126953125,0.02838134765625
-0.3491058349609375,0.773468017578125,0.0630340576171875
-0.4119415283203125,0.875091552734375,-0.0240478515625
-0.4449005126953125,0.9984283447265624,-0.0545501708984375
-0.4925079345703125,0.992431640625,-0.07989501953125
-0.6014556884765625,0.975860595703125,-0.0814361572265625
-0.683746337890625,1.1548614501953125,-0.0431671142578125
-0.57415771484375,1.1023406982421875,-0.133087158203125
-0.530517578125,0.795318603515625,-0.1792755126953125
-0.6315155029296875,0.7597808837890625,-0.166107177734375
-0.638336181640625,0.8475799560546875,-0.09063720703125
-0.579742431640625,0.8026885986328125,-0.032257080078125
-0.5825347900390625,0.7027435302734375,-0.0838470458984375
-0.5275726318359375,0.7035675048828125,-0.04718017578125
-0.4666290283203125,0.7351531982421875,-0.01727294921875
-0.4214935302734375,0.7350616455078125,-0.012664794921875
-0.4761810302734375,0.761871337890625,0.012451171875
-0.5908203125,0.862548828125,-0.0184478759765625
-0.6686859130859375,0.9593353271484376,-0.017669677734375
-0.70440673828125,0.9746856689453124,-0.0620880126953125
-0.6926422119140625,0.9347686767578124,-0.06048583984375
-0.67724609375,1.072601318359375,-0.023223876953125
-0.5538177490234375,1.0700531005859375,-0.060028076171875
-0.5480194091796875,0.85693359375,-0.1009368896484375
-0.641082763671875,0.8991241455078125,-0.0646820068359375
-0.5655364990234375,1.0233306884765625,-0.0674591064453125
-0.4264373779296875,0.9552154541015624,-0.1002349853515625
-0.426239013671875,0.805694580078125,-0.1361541748046875
-0.4449920654296875,0.7540435791015625,-0.0685577392578125
-0.3936767578125,0.76861572265625,0.0160064697265625
-0.3757171630859375,0.758026123046875,0.0615997314453125
-0.394561767578125,0.757049560546875,0.0485076904296875
-0.39373779296875,0.8138580322265625,-0.019378662109375
-0.3985443115234375,0.9384613037109376,-0.0191497802734375
-0.3585052490234375,0.959014892578125,-0.0850677490234375
-0.404388427734375,0.88616943359375,-0.1776275634765625
-0.5206451416015625,1.0008544921875,-0.11505126953125
-0.457275390625,1.1229705810546875,-0.14141845703125
-0.388916015625,0.9524383544921876,-0.285064697265625
-0.5467071533203125,0.7878875732421875,-0.271697998046875
-0.68701171875,0.8101043701171875,-0.207550048828125
-0.6662445068359375,0.867706298828125,-0.0882720947265625
-0.5789794921875,0.7833099365234375,-0.0058135986328125
-0.5063629150390625,0.7187652587890625,-0.0431365966796875
-0.48150634765625,0.7533111572265625,-0.081146240234375
-0.471710205078125,0.764984130859375,-0.0339508056640625
-0.4917755126953125,0.778106689453125,0.0123443603515625
-0.5930938720703125,0.8546142578125,-0.0436553955078125
-0.7141876220703125,0.92889404296875,-0.02313232421875
-0.766998291015625,0.9855194091796876,-0.0157928466796875
-0.756500244140625,0.9751129150390624,-0.033843994140625
-0.76788330078125,0.9940643310546876,-0.104278564453125
-0.7065277099609375,1.0415496826171875,-0.110565185546875
-0.6644134521484375,0.976837158203125,-0.0999755859375
-0.6606292724609375,0.7617340087890625,-0.098480224609375
-0.6882171630859375,0.775054931640625,-0.07159423828125
-0.6406707763671875,0.950286865234375,-0.0934906005859375
-0.573333740234375,1.0934295654296875,-0.1468505859375
-0.4429779052734375,1.0094146728515625,-0.2078399658203125
-0.39300537109375,0.9145660400390624,-0.2477874755859375
-0.3463134765625,0.8469696044921875,-0.221405029296875
-0.2945098876953125,0.7771148681640625,-0.1177825927734375
-0.28436279296875,0.757843017578125,-0.083831787109375
-0.2989349365234375,0.751861572265625,-0.0286865234375
-0.3242950439453125,0.7736968994140625,0.0419464111328125
-0.37591552734375,0.859283447265625,0.0870361328125
-0.39361572265625,0.9103851318359376,0.0675048828125
-0.5004730224609375,1.0460968017578125,-0.0289459228515625
-0.4888916015625,1.188568115234375,-0.0778350830078125
-0.453033447265625,0.9946746826171876,-0.1478271484375
-0.6066741943359375,0.87445068359375,-0.1043853759765625
-0.698272705078125,0.9202423095703124,-0.037139892578125
-0.7389068603515625,0.9421234130859376,0.0009307861328125
-0.7008209228515625,0.7904052734375,-0.0612640380859375
-0.656524658203125,0.718780517578125,-0.143707275390625
-0.54937744140625,0.750396728515625,-0.1990814208984375
-0.459259033203125,0.7694549560546875,-0.160888671875
-0.437255859375,0.8053131103515625,-0.1516876220703125
-0.496185302734375,0.824981689453125,-0.1399383544921875
-0.5841827392578125,0.8599395751953125,-0.06915283203125
-0.644439697265625,0.9103851318359376,-0.032073974609375
-0.7011566162109375,0.947052001953125,-0.04107666015625
-0.7718963623046875,1.0241241455078125,-0.0407867431640625
-0.6988525390625,1.043914794921875,-0.0677032470703125
-0.665252685546875,1.072357177734375,-0.0995941162109375
-0.664764404296875,0.9854583740234376,-0.1300811767578125
-0.665557861328125,0.9796295166015624,-0.15771484375
-0.578369140625,1.0484619140625,-0.1664581298828125
-0.427154541015625,1.0377044677734375,-0.1913909912109375
-0.30078125,0.914764404296875,-0.196197509765625
-0.2842559814453125,0.7891845703125,-0.148345947265625
-0.345489501953125,0.7409820556640625,-0.066253662109375
-0.33489990234375,0.7121124267578125,0.0097503662109375
-0.3163604736328125,0.6945648193359375,0.0097503662109375
-0.320831298828125,0.7386322021484375,-0.079132080078125
-0.3298492431640625,0.8306427001953125,-0.106353759765625
-0.326385498046875,0.916595458984375,-0.081787109375
-0.3622894287109375,0.939727783203125,-0.0566558837890625
-0.4306640625,0.9176483154296876,-0.019927978515625
-0.5499725341796875,1.10357666015625,0.035491943359375
-0.5792388916015625,1.22625732421875,0.0598602294921875
-0.5400390625,1.0651702880859375,-0.023193359375
-0.6557464599609375,0.9387359619140624,-0.0881195068359375
-0.7465972900390625,0.892578125,-0.088287353515625
-0.788848876953125,0.8291168212890625,-0.030242919921875
-0.77642822265625,0.7388763427734375,-0.0007781982421875
-0.7430877685546875,0.7372589111328125,-0.0235443115234375
-0.6292572021484375,0.783966064453125,-0.0886077880859375
-0.542266845703125,0.7961273193359375,-0.140380859375
-0.5378875732421875,0.820526123046875,-0.0713043212890625
-0.5670623779296875,0.858123779296875,0.001251220703125
-0.56036376953125,0.9019622802734376,-0.0397491455078125
-0.5823516845703125,0.9175872802734376,-0.0806427001953125
-0.5891571044921875,0.933502197265625,-0.05426025390625
-0.5834197998046875,0.961273193359375,-0.039947509765625
-0.5408172607421875,0.9376220703125,-0.0661773681640625
-0.528961181640625,0.935699462890625,-0.061431884765625
-0.531494140625,1.0352935791015625,-0.063446044921875
-0.4591217041015625,1.0301666259765625,-0.0829620361328125
-0.4171142578125,0.902496337890625,-0.082977294921875
-0.4217987060546875,0.7160491943359375,-0.0908660888671875
-0.443145751953125,0.7078399658203125,-0.0447540283203125
-0.3701019287109375,0.8408355712890625,-0.093109130859375
-0.2908172607421875,0.8832855224609375,-0.141876220703125
-0.327728271484375,0.8515777587890625,-0.1365509033203125
-0.391876220703125,0.8368072509765625,-0.1043548583984375
-0.480926513671875,0.887451171875,-0.1200714111328125
-0.51043701171875,0.9538726806640624,-0.138427734375
-0.5048370361328125,0.947906494140625,-0.1791534423828125
-0.5614013671875,0.9037322998046876,-0.220947265625
-0.60198974609375,0.8586273193359375,-0.2215576171875
-0.60186767578125,0.89996337890625,-0.1739959716796875
-0.527008056640625,0.9535675048828124,-0.1381988525390625
-0.51226806640625,0.9606781005859376,-0.2215118408203125
-0.512054443359375,0.9833831787109376,-0.21807861328125
-0.51629638671875,0.96478271484375,-0.1556854248046875
-0.486724853515625,0.9272918701171876,-0.1182861328125
-0.4838104248046875,0.9717864990234376,-0.167755126953125
-0.4689178466796875,1.0395965576171875,-0.20220947265625
-0.450653076171875,1.0690155029296875,-0.23626708984375
-0.47113037109375,1.01470947265625,-0.244720458984375
-0.5011444091796875,0.9178009033203124,-0.215911865234375
-0.5010986328125,0.8560028076171875,-0.1673431396484375
-0.44317626953125,0.8113555908203125,-0.1723785400390625
-0.446533203125,0.839599609375,-0.229949951171875
-0.424896240234375,0.86053466796875,-0.1419219970703125
-0.35064697265625,0.928924560546875,-0.11907958984375
-0.2022857666015625,0.9584197998046876,-0.166229248046875
-0.173736572265625,0.8749237060546875,-0.0954132080078125
-0.2653961181640625,0.8140411376953125,0.074310302734375
-0.3079071044921875,0.8214111328125,0.234222412109375
-0.324066162109375,0.86767578125,0.3046722412109375
-0.3599700927734375,0.932830810546875,0.2554168701171875
-0.4404144287109375,0.9902191162109376,0.1341400146484375
-0.492919921875,1.0451507568359375,0.0756072998046875
-0.529754638671875,1.0675811767578125,0.064361572265625
-0.621856689453125,1.049774169921875,0.0758209228515625
-0.72412109375,1.0380096435546875,0.08709716796875
-0.8125152587890625,0.9804840087890624,-0.0225372314453125
-0.8075103759765625,0.8908233642578125,-0.145965576171875
-0.856964111328125,0.9226531982421876,-0.248809814453125
-0.817718505859375,1.024566650390625,-0.2825164794921875
-0.606048583984375,0.8405914306640625,-0.2382354736328125
-0.666717529296875,0.8254547119140625,-0.2173309326171875
-0.6487884521484375,0.9446563720703124,-0.1530914306640625
-0.5724639892578125,1.0594635009765625,-0.144866943359375
-0.4932403564453125,1.0577545166015625,-0.2541351318359375
-0.4885711669921875,0.9951171875,-0.33203125
-0.4650115966796875,0.975311279296875,-0.2939453125
-0.39715576171875,0.97686767578125,-0.1811065673828125
-0.3394927978515625,0.985748291015625,-0.1526336669921875
-0.3006591796875,0.956817626953125,-0.147857666015625
-0.3147430419921875,0.9329376220703124,-0.105987548828125
-0.306671142578125,0.9477691650390624,-0.0444488525390625
-0.2584686279296875,0.9422149658203124,-0.071319580078125
-0.310272216796875,0.9138946533203124,-0.0823974609375
-0.31610107421875,0.9651031494140624,0.0265350341796875
-0.27972412109375,0.9756622314453124,0.025909423828125
-0.3754119873046875,0.849761962890625,-0.0184326171875
-0.5169830322265625,0.859344482421875,0.064178466796875
-0.6156768798828125,0.95263671875,0.0656890869140625
-0.596435546875,0.92633056640625,0.0084991455078125
-0.5778656005859375,0.8196868896484375,-0.0558929443359375
-0.5687408447265625,0.8038787841796875,-0.0727691650390625
-0.503204345703125,0.842926025390625,-0.0606689453125
-0.47991943359375,0.842529296875,-0.0352325439453125
-0.497161865234375,0.8277740478515625,-0.03961181640625
-0.5765533447265625,0.8844146728515625,-0.0575408935546875
-0.6645660400390625,0.940460205078125,-0.1045379638671875
-0.708892822265625,0.9091949462890624,-0.1502838134765625
-0.729888916015625,0.8776702880859375,-0.19073486328125
-0.7148895263671875,1.0200042724609375,-0.1453094482421875
-0.6563720703125,1.1303863525390625,-0.1564483642578125
-0.5742340087890625,0.89208984375,-0.218719482421875
-0.6435699462890625,0.8189849853515625,-0.170654296875
-0.64251708984375,0.9303436279296876,-0.070159912109375
-0.5581207275390625,1.03094482421875,-0.1177215576171875
-0.482635498046875,1.007049560546875,-0.2451019287109375
-0.4862060546875,0.967926025390625,-0.26812744140625
-0.4408721923828125,0.9486236572265624,-0.1553955078125
-0.3636322021484375,0.9198760986328124,-0.0435943603515625
-0.266632080078125,0.8657989501953125,-0.0044708251953125
-0.235992431640625,0.82586669921875,-0.0131683349609375
-0.2566070556640625,0.83349609375,-0.0315399169921875
-0.2612152099609375,0.8654937744140625,-0.03973388671875
-0.302215576171875,0.8415069580078125,-0.041778564453125
-0.42144775390625,0.900054931640625,-0.0008544921875
-0.4309234619140625,1.0723419189453125,0.036224365234375
-0.34210205078125,1.0323028564453125,-0.081451416015625
-0.5060272216796875,0.8905181884765625,-0.1352081298828125
-0.649261474609375,0.9415435791015624,-0.0572357177734375
-0.7205657958984375,0.98699951171875,-0.009979248046875
-0.7061309814453125,0.8772430419921875,-0.061279296875
-0.7108917236328125,0.8181915283203125,-0.1160125732421875
-0.6424407958984375,0.8325958251953125,-0.14666748046875
-0.529998779296875,0.8130340576171875,-0.0960845947265625
-0.5103912353515625,0.8045806884765625,-0.093658447265625
-0.5315704345703125,0.808135986328125,-0.0872650146484375
-0.606781005859375,0.8649139404296875,-0.06842041015625
-0.6532745361328125,0.888916015625,-0.08892822265625
-0.658111572265625,0.8695526123046875,-0.1213531494140625
-0.673187255859375,0.9306488037109376,-0.1321563720703125
-0.678192138671875,1.1293792724609375,-0.164794921875
-0.600372314453125,1.11004638671875,-0.19659423828125
-0.543487548828125,0.8261566162109375,-0.2222137451171875
-0.632659912109375,0.86798095703125,-0.18951416015625
-0.5584716796875,1.0501708984375,-0.124603271484375
-0.3831329345703125,0.9942169189453124,-0.21490478515625
-0.3699798583984375,0.8072509765625,-0.29217529296875
-0.4058837890625,0.7935028076171875,-0.331634521484375
-0.348846435546875,0.8138427734375,-0.1757354736328125
-0.30926513671875,0.8462677001953125,-0.066864013671875
-0.290771484375,0.88507080078125,-0.030792236328125
-0.3114166259765625,0.97259521484375,-0.02801513671875
-0.34490966796875,1.0643463134765625,-0.0697784423828125
-0.3674468994140625,0.991912841796875,-0.0948028564453125
-0.491424560546875,0.9439849853515624,-0.0252227783203125
-0.4467926025390625,0.9766387939453124,0.068817138671875
-0.32452392578125,0.87371826171875,-0.0939483642578125
-0.4885406494140625,0.8968353271484375,-0.0443115234375
-0.561614990234375,1.0064239501953125,0.0448150634765625
-0.5902557373046875,0.990692138671875,-0.0848388671875
-0.583953857421875,0.8148040771484375,-0.1881866455078125
-0.6277618408203125,0.7205810546875,-0.20147705078125
-0.6187591552734375,0.736083984375,-0.1258697509765625
-0.571136474609375,0.77191162109375,-0.05889892578125
-0.567291259765625,0.8377532958984375,-0.0702667236328125
-0.5870361328125,0.9126739501953124,-0.127410888671875
-0.636138916015625,0.9487762451171876,-0.1620635986328125
-0.6957244873046875,0.958984375,-0.143829345703125
-0.73614501953125,0.9447479248046876,-0.1126556396484375
-0.7707366943359375,1.0991668701171875,-0.11602783203125
-0.6328125,1.116119384765625,-0.1448974609375
-0.603759765625,0.9124908447265624,-0.1720123291015625
-0.702301025390625,0.989776611328125,-0.1314239501953125
-0.6340179443359375,1.10076904296875,-0.1473541259765625
-0.5181427001953125,1.103302001953125,-0.183624267578125
-0.456329345703125,1.0228271484375,-0.2523956298828125
-0.4071807861328125,0.940765380859375,-0.245758056640625
-0.309295654296875,0.9145660400390624,-0.141937255859375
-0.1942901611328125,0.8585662841796875,-0.0965423583984375
-0.158782958984375,0.802215576171875,-0.094879150390625
-0.1856842041015625,0.7491302490234375,-0.08819580078125
-0.2397003173828125,0.733306884765625,-0.016876220703125
-0.2681121826171875,0.835845947265625,0.0406036376953125
-0.26934814453125,0.8832244873046875,-0.0451507568359375
-0.4710845947265625,1.08367919921875,-0.02685546875
-0.4521636962890625,1.2282257080078125,-0.0033721923828125
-0.4790496826171875,1.12457275390625,-0.1032257080078125
-0.6945953369140625,1.080108642578125,-0.1648406982421875
-0.8144378662109375,1.0279388427734375,-0.125732421875
-0.7966766357421875,0.8673553466796875,-0.0715179443359375
-0.7321624755859375,0.6831512451171875,-0.0507049560546875
-0.605560302734375,0.7285614013671875,-0.0489501953125
-0.4754486083984375,0.84124755859375,-0.05438232421875
-0.3900146484375,0.8445587158203125,-0.1176300048828125
-0.440887451171875,0.82135009765625,-0.2008209228515625
-0.5552520751953125,0.8241729736328125,-0.1582794189453125
-0.66943359375,0.9021453857421876,-0.078765869140625
-0.678497314453125,0.9280548095703124,-0.0926971435546875
-0.672027587890625,0.9186859130859376,-0.1422576904296875
-0.6470184326171875,1.0730743408203125,-0.1632843017578125
-0.5662384033203125,1.080108642578125,-0.1364593505859375
-0.555145263671875,0.888702392578125,-0.136383056640625
-0.62786865234375,0.93035888671875,-0.1453399658203125
-0.5718231201171875,1.007476806640625,-0.1386871337890625
-0.455657958984375,0.976470947265625,-0.1531829833984375
-0.4109344482421875,0.861572265625,-0.15997314453125
-0.4080963134765625,0.8126220703125,-0.135284423828125
-0.3751220703125,0.8279571533203125,-0.0771942138671875
-0.34075927734375,0.835205078125,-0.0318145751953125
-0.3092193603515625,0.8271942138671875,-0.0020751953125
-0.302276611328125,0.8201904296875,-0.0270233154296875
-0.304595947265625,0.9026947021484376,-0.026947021484375
-0.2765350341796875,0.9637298583984376,-0.0675811767578125
-0.3916778564453125,1.007171630859375,-0.1704864501953125
-0.409912109375,1.098388671875,-0.176422119140625
-0.4157257080078125,1.038787841796875,-0.25115966796875
-0.47705078125,0.8792572021484375,-0.16558837890625
-0.5890350341796875,0.8112945556640625,-0.0225372314453125
-0.640594482421875,0.86273193359375,-0.0704345703125
-0.61505126953125,0.8619232177734375,-0.133514404296875
-0.5744476318359375,0.7917327880859375,-0.0759735107421875
-0.568695068359375,0.802703857421875,-0.1291046142578125
-0.504974365234375,0.8153839111328125,-0.0452423095703125
-0.4878692626953125,0.8145294189453125,0.0296478271484375
-0.53839111328125,0.8509674072265625,0.061859130859375
-0.620819091796875,0.87579345703125,0.0095062255859375
-0.7006072998046875,0.92449951171875,-0.0427093505859375
-0.703765869140625,0.9532012939453124,-0.04962158203125
-0.694305419921875,0.9214019775390624,-0.0882415771484375
-0.7268829345703125,1.0720367431640625,-0.1206512451171875
-0.6042633056640625,1.1389312744140625,-0.1400146484375
-0.5386962890625,0.9126739501953124,-0.188079833984375
-0.6445159912109375,0.8840789794921875,-0.172576904296875
-0.5839996337890625,0.9814605712890624,-0.1750946044921875
-0.430419921875,0.9728851318359376,-0.2470245361328125
-0.3686065673828125,0.8363037109375,-0.313201904296875
-0.3984375,0.7867279052734375,-0.3236083984375
-0.35968017578125,0.791961669921875,-0.302947998046875
-0.3343658447265625,0.7736358642578125,-0.212890625
-0.347015380859375,0.820343017578125,-0.0621490478515625
-0.3441162109375,0.8673858642578125,0.0151824951171875
-0.3131866455078125,0.927276611328125,0.0823974609375
-0.278106689453125,0.93585205078125,0.040313720703125
-0.411956787109375,0.9389190673828124,0.0666961669921875
-0.439483642578125,1.1221466064453125,0.18353271484375
-0.373443603515625,1.0084075927734375,0.076080322265625
-0.517730712890625,0.7789306640625,0.0295867919921875
-0.614044189453125,0.85174560546875,0.1384735107421875
-0.5786895751953125,0.9635009765625,0.1156463623046875
-0.54461669921875,0.9057159423828124,-0.08978271484375
-0.537689208984375,0.8417816162109375,-0.168426513671875
-0.5210113525390625,0.8798370361328125,-0.2154541015625
-0.508758544921875,0.851776123046875,-0.163360595703125
-0.5746612548828125,0.801239013671875,-0.0547332763671875
-0.6413116455078125,0.818145751953125,-0.0378875732421875
-0.6667327880859375,0.855377197265625,-0.0533599853515625
-0.681488037109375,0.8416748046875,-0.1320037841796875
-0.6459808349609375,0.9035186767578124,-0.1651153564453125
-0.60357666015625,0.9394378662109376,-0.1240692138671875
-0.6516571044921875,1.1447906494140625,-0.14263916015625
-0.51153564453125,1.0914306640625,-0.2001800537109375
-0.5746307373046875,0.926513671875,-0.123260498046875
-0.6535186767578125,1.0505218505859375,-0.0616302490234375
-0.5777130126953125,1.1002960205078125,-0.1071929931640625
-0.4954833984375,1.0320892333984375,-0.186981201171875
-0.469879150390625,0.923095703125,-0.179595947265625
-0.4268646240234375,0.885711669921875,-0.1154327392578125
-0.320953369140625,0.8761749267578125,-0.06396484375
-0.2602996826171875,0.839569091796875,-0.0324249267578125
-0.23760986328125,0.8195037841796875,-0.0044097900390625
-0.23858642578125,0.8386993408203125,-0.046051025390625
-0.287567138671875,0.9475555419921876,-0.06085205078125
-0.2796783447265625,0.9646453857421876,-0.0565032958984375
-0.425384521484375,0.953399658203125,-0.0813751220703125
-0.4120941162109375,1.08331298828125,-0.050201416015625
-0.3437347412109375,0.997772216796875,-0.17626953125
-0.46954345703125,0.858154296875,-0.0888671875
-0.5791473388671875,0.9239959716796876,0.0325164794921875
-0.62371826171875,0.9802093505859376,0.0442047119140625
-0.617889404296875,0.85601806640625,-0.043243408203125
-0.603424072265625,0.7299346923828125,-0.05133056640625
-0.5387115478515625,0.749664306640625,-0.083251953125
-0.43408203125,0.80859375,-0.0299835205078125
-0.40753173828125,0.8222808837890625,-0.0182342529296875
-0.4686737060546875,0.8564910888671875,-0.0345611572265625
-0.54583740234375,0.8912811279296875,-0.0630950927734375
-0.6435699462890625,0.94866943359375,-0.0922393798828125
-0.6944427490234375,0.9227294921875,-0.1350860595703125
-0.7903289794921875,0.9523468017578124,-0.14788818359375
-0.7764892578125,1.1252593994140625,-0.1639556884765625
-0.6067962646484375,1.0418243408203125,-0.113372802734375
-0.6096038818359375,0.820465087890625,-0.1529693603515625
-0.641204833984375,0.8983917236328125,-0.0846099853515625
-0.573486328125,1.072479248046875,-0.0679931640625
-0.4502716064453125,1.0919342041015625,-0.1712493896484375
-0.4239654541015625,0.9834136962890624,-0.2596435546875
-0.434417724609375,0.9052886962890624,-0.188018798828125
-0.35430908203125,0.8719024658203125,-0.052978515625
-0.301788330078125,0.831634521484375,-0.029022216796875
-0.2522735595703125,0.804168701171875,-0.0185089111328125
-0.2215576171875,0.81982421875,-0.019989013671875
-0.2176971435546875,0.8375091552734375,-0.0123443603515625
-0.24603271484375,0.8607330322265625,0.0176544189453125
-0.304046630859375,0.850006103515625,0.0060882568359375
-0.4254913330078125,0.9694976806640624,0.059722900390625
-0.44708251953125,1.2629547119140625,0.02581787109375
-0.4387359619140625,1.1986846923828125,-0.111297607421875
-0.610076904296875,0.9165191650390624,-0.1279754638671875
-0.7649383544921875,0.8004302978515625,-0.0123748779296875
-0.78271484375,0.9044647216796876,0.0444183349609375
-0.767547607421875,0.9385833740234376,-0.069610595703125
-0.6817169189453125,0.84136962890625,-0.1840667724609375
-0.6099700927734375,0.79949951171875,-0.27374267578125
-0.4738922119140625,0.8305511474609375,-0.168182373046875
-0.4137115478515625,0.8254547119140625,-0.08709716796875
-0.42889404296875,0.8388519287109375,-0.045623779296875
-0.48382568359375,0.873504638671875,-0.0169677734375
-0.56268310546875,0.89166259765625,-0.0360870361328125
-0.637054443359375,0.896270751953125,-0.0819549560546875
-0.6115264892578125,0.9213104248046876,-0.0954437255859375
-0.549407958984375,0.9370269775390624,-0.1255035400390625
-0.50164794921875,0.9563446044921876,-0.153289794921875
-0.452301025390625,0.9718780517578124,-0.196197509765625
-0.4098663330078125,0.9080047607421876,-0.1392974853515625
-0.449462890625,0.881805419921875,-0.047393798828125
-0.446624755859375,0.8957672119140625,-0.1021575927734375
-0.4172515869140625,0.8885345458984375,-0.2433319091796875
-0.4090576171875,0.896759033203125,-0.3135986328125
-0.186798095703125,0.9339447021484376,-0.4135284423828125
-0.262969970703125,0.9034271240234376,-0.50433349609375
-0.3365936279296875,0.9106292724609376,-0.2411651611328125
-0.365570068359375,0.9378662109375,-0.2206268310546875
-0.4239654541015625,0.9658355712890624,-0.3160247802734375
-0.49127197265625,0.9705047607421876,-0.1920623779296875
-0.5811614990234375,0.9257659912109376,-0.078369140625
-0.65533447265625,0.8865814208984375,-0.1362457275390625
-0.6795196533203125,0.886444091796875,-0.1920166015625
-0.6177520751953125,0.9240264892578124,-0.263275146484375
-0.628753662109375,0.90673828125,-0.19598388671875
-0.5845489501953125,0.9229278564453124,-0.21875
-0.5797576904296875,0.901275634765625,-0.238800048828125
-0.55670166015625,0.9036712646484376,-0.3379364013671875
-0.4744415283203125,0.8982696533203125,-0.2932586669921875
-0.402618408203125,0.8892974853515625,-0.1612701416015625
-0.398101806640625,0.8684844970703125,-0.101226806640625
-0.40625,0.8863677978515625,-0.1238861083984375
-0.39691162109375,0.9510345458984376,-0.249237060546875
-0.428192138671875,0.9561004638671876,-0.2980804443359375
-0.412261962890625,0.9088592529296876,0.0094451904296875
-0.243988037109375,1.033447265625,0.2816314697265625
-0.0842132568359375,1.0705718994140625,0.079803466796875
-0.160247802734375,0.994384765625,-0.0052490234375
-0.1978759765625,0.9803466796875,0.2631378173828125
-0.2374114990234375,1.0074920654296875,0.2528228759765625
-0.2888946533203125,0.988037109375,0.148712158203125
-0.379974365234375,0.9951171875,0.12042236328125
-0.453033447265625,0.9930572509765624,0.1366729736328125
-0.5467376708984375,0.9516143798828124,0.0785369873046875
-0.5916900634765625,0.8662261962890625,0.039154052734375
-0.6233367919921875,0.879058837890625,0.042633056640625
-0.62738037109375,0.86627197265625,-0.0188140869140625
-0.7200927734375,0.869384765625,-0.1186981201171875
-0.847930908203125,1.0497894287109375,-0.2198486328125
-0.7906494140625,1.0037689208984375,-0.188140869140625
-0.71356201171875,0.817108154296875,-0.11505126953125
-0.64111328125,0.9212493896484376,-0.150848388671875
-0.5560760498046875,1.05609130859375,-0.184356689453125
-0.4707489013671875,1.006561279296875,-0.2319488525390625
-0.5306396484375,0.936553955078125,-0.2483367919921875
-0.5639190673828125,0.9560394287109376,-0.1742706298828125
-0.4972076416015625,0.9939117431640624,-0.1275787353515625
-0.4019317626953125,1.030364990234375,-0.166290283203125
-0.3128662109375,1.0297698974609375,-0.179412841796875
-0.2855072021484375,0.9868621826171876,-0.157623291015625
-0.298797607421875,0.946075439453125,-0.1309967041015625
-0.2602996826171875,0.926666259765625,-0.1096649169921875
-0.2815093994140625,0.90545654296875,-0.0444183349609375
-0.3460540771484375,1.073638916015625,0.0364532470703125
-0.2981109619140625,0.9477691650390624,-0.120391845703125
-0.382049560546875,0.792083740234375,-0.0455780029296875
-0.47930908203125,0.85626220703125,0.0977325439453125
-0.45941162109375,0.986602783203125,0.1039276123046875
-0.448577880859375,0.9632720947265624,-0.0471954345703125
-0.457794189453125,0.851104736328125,-0.0754852294921875
-0.48162841796875,0.8062896728515625,-0.067413330078125
-0.4626617431640625,0.83648681640625,-0.02960205078125
-0.4625244140625,0.8532562255859375,-0.060791015625
-0.4776153564453125,0.874267578125,-0.11236572265625
-0.5599822998046875,0.9020843505859376,-0.1016693115234375
-0.6540679931640625,0.9641876220703124,-0.07855224609375
-0.6764678955078125,0.9456024169921876,-0.06488037109375
-0.678619384765625,0.900360107421875,-0.110626220703125
-0.725738525390625,1.0311737060546875,-0.10601806640625
-0.672576904296875,1.1165618896484375,-0.0615234375
-0.6440277099609375,0.907257080078125,-0.0595855712890625
-0.725921630859375,0.8943634033203125,-0.09771728515625
-0.6849517822265625,0.9897613525390624,-0.043365478515625
-0.54736328125,1.0146331787109375,-0.1232452392578125
-0.4910125732421875,0.982177734375,-0.214996337890625
-0.428741455078125,0.9465179443359376,-0.1945343017578125
-0.3427886962890625,0.9105072021484376,-0.079986572265625
-0.2639617919921875,0.8668975830078125,-0.020660400390625
-0.21844482421875,0.810211181640625,-0.00469970703125
-0.224578857421875,0.809600830078125,-0.070343017578125
-0.2335662841796875,0.9034576416015624,-0.0705718994140625
-0.2496490478515625,0.961700439453125,-0.0680389404296875
-0.390716552734375,1.1611480712890625,-0.089508056640625
-0.3917083740234375,1.0973052978515625,-0.21368408203125
-0.4123992919921875,0.94915771484375,-0.1185150146484375
-0.480010986328125,0.820037841796875,-0.03485107421875
-0.607269287109375,0.8596038818359375,-0.0147705078125
-0.631866455078125,0.9069671630859376,-0.0040130615234375
-0.579803466796875,0.8764495849609375,-0.0562896728515625
-0.5422515869140625,0.80120849609375,-0.139984130859375
-0.485015869140625,0.7798004150390625,-0.13690185546875
-0.43914794921875,0.8094024658203125,-0.0157012939453125
-0.4641876220703125,0.829498291015625,0.0564727783203125
-0.6100921630859375,0.8293304443359375,-0.0029296875
-0.7294921875,0.853363037109375,-0.0855865478515625
-0.8087005615234375,0.8705596923828125,-0.076171875
-0.814361572265625,0.844451904296875,-0.035797119140625
-0.808624267578125,0.9683380126953124,-0.12579345703125
-0.793853759765625,1.3019256591796875,-0.137054443359375
-0.6087188720703125,1.14263916015625,-0.1442718505859375
-0.598602294921875,0.81982421875,-0.128753662109375
-0.61529541015625,0.8481597900390625,-0.0475311279296875
-0.5032806396484375,1.04473876953125,0.0305328369140625
-0.3041839599609375,1.0486602783203125,-0.0975799560546875
-0.2614898681640625,0.860931396484375,-0.2118072509765625
-0.3564605712890625,0.749359130859375,-0.178466796875
-0.3623809814453125,0.746429443359375,0.04266357421875
-0.334747314453125,0.7398834228515625,0.120758056640625
-0.3089447021484375,0.7557830810546875,0.0652008056640625
-0.3092498779296875,0.815826416015625,-0.0674285888671875
-0.36138916015625,0.8777008056640625,-0.1310882568359375
-0.4758148193359375,0.9650421142578124,-0.1185302734375
-0.518707275390625,0.9520263671875,-0.06829833984375
-0.5753631591796875,1.1616363525390625,-0.15362548828125
-0.39801025390625,1.078125,-0.3753509521484375
-0.497039794921875,0.831298828125,-0.3281402587890625
-0.65093994140625,0.9164886474609376,-0.1835479736328125
-0.6855621337890625,0.9971923828125,-0.2032012939453125
-0.64599609375,0.8121490478515625,-0.28839111328125
-0.628448486328125,0.6300048828125,-0.274993896484375
-0.6221923828125,0.6575775146484375,-0.1388092041015625
-0.5634002685546875,0.7267913818359375,-0.043365478515625
-0.5216217041015625,0.7764434814453125,-0.0184783935546875
-0.61480712890625,0.836517333984375,-0.118377685546875
-0.6849212646484375,0.8486175537109375,-0.1914825439453125
-0.7314453125,0.9153289794921876,-0.180999755859375
-0.6535491943359375,0.952667236328125,-0.19085693359375
-0.6507720947265625,1.0242919921875,-0.2040863037109375
-0.615875244140625,1.1729278564453125,-0.2386016845703125
-0.5333404541015625,1.129241943359375,-0.2590179443359375
-0.55322265625,0.93682861328125,-0.270538330078125
-0.5843353271484375,0.9597015380859376,-0.23822021484375
-0.5055999755859375,1.0430145263671875,-0.2099151611328125
-0.34912109375,0.9591064453125,-0.22991943359375
-0.306182861328125,0.793975830078125,-0.25408935546875
-0.2879180908203125,0.7075042724609375,-0.2139892578125
-0.2718505859375,0.7138214111328125,-0.1634979248046875
-0.2482147216796875,0.750701904296875,-0.0797271728515625
-0.2689361572265625,0.7427520751953125,-0.0370025634765625
-0.3177642822265625,0.771087646484375,-0.025634765625
-0.3658447265625,0.89434814453125,-0.0312042236328125
-0.384796142578125,1.005157470703125,-0.074951171875
-0.50653076171875,1.0452728271484375,-0.09722900390625
-0.5696563720703125,1.189453125,-0.08514404296875
-0.587890625,1.16094970703125,-0.231781005859375
-0.581695556640625,0.939483642578125,-0.2180328369140625
-0.6855316162109375,0.839813232421875,-0.1274566650390625
-0.743194580078125,0.84100341796875,-0.0845489501953125
-0.714691162109375,0.7842559814453125,-0.13250732421875
-0.640594482421875,0.7134857177734375,-0.1806640625
-0.546661376953125,0.7300872802734375,-0.182037353515625
-0.437835693359375,0.7427825927734375,-0.15313720703125
-0.4129486083984375,0.7408905029296875,-0.1272430419921875
-0.43292236328125,0.7648468017578125,-0.10858154296875
-0.52392578125,0.8148651123046875,-0.0964813232421875
-0.6296234130859375,0.89532470703125,-0.1297149658203125
-0.66357421875,0.9454345703125,-0.1863555908203125
-0.6845245361328125,0.907379150390625,-0.204559326171875
-0.7714996337890625,1.06781005859375,-0.14178466796875
-0.6519622802734375,1.129119873046875,-0.146392822265625
-0.4913787841796875,0.95660400390625,-0.2047271728515625
-0.5678253173828125,0.84716796875,-0.2000579833984375
-0.6166534423828125,0.950714111328125,-0.12774658203125
-0.5083770751953125,1.0096893310546875,-0.149017333984375
-0.430084228515625,0.9019927978515624,-0.2516021728515625
-0.4495849609375,0.77197265625,-0.2747344970703125
-0.43524169921875,0.7665557861328125,-0.21734619140625
-0.3486785888671875,0.795867919921875,-0.1001434326171875
-0.2713623046875,0.7810211181640625,-0.0771484375
-0.22430419921875,0.753448486328125,-0.065216064453125
-0.2418670654296875,0.755279541015625,-0.0390625
-0.28466796875,0.85205078125,0.000335693359375
-0.321319580078125,0.96075439453125,-0.00848388671875
-0.45123291015625,1.0083465576171875,-0.077880859375
-0.595062255859375,1.166900634765625,-0.08978271484375
-0.606903076171875,1.2371063232421875,-0.2075347900390625
-0.5618438720703125,1.0022430419921875,-0.2977142333984375
-0.6992950439453125,0.8857574462890625,-0.268341064453125
-0.76788330078125,0.8668212890625,-0.205322265625
-0.7278289794921875,0.83929443359375,-0.236297607421875
-0.6300048828125,0.733734130859375,-0.254241943359375
-0.55731201171875,0.72900390625,-0.2535858154296875
-0.4775543212890625,0.7554931640625,-0.1991119384765625
-0.414947509765625,0.7374267578125,-0.1669464111328125
-0.4336700439453125,0.758087158203125,-0.142181396484375
-0.5165252685546875,0.8321685791015625,-0.0923309326171875
-0.627166748046875,0.900970458984375,-0.074127197265625
-0.683258056640625,0.93145751953125,-0.1665496826171875
-0.6775665283203125,0.9063720703125,-0.16217041015625
-0.7054901123046875,0.9879150390625,-0.0827178955078125
-0.6417388916015625,1.1767578125,-0.099273681640625
-0.47918701171875,1.042816162109375,-0.160400390625
-0.610748291015625,0.918212890625,-0.1635284423828125
-0.6352386474609375,0.98486328125,-0.1202850341796875
-0.5255279541015625,1.0662994384765625,-0.1300048828125
-0.4018096923828125,0.9525604248046876,-0.1764068603515625
-0.381256103515625,0.82568359375,-0.166290283203125
-0.3444366455078125,0.76214599609375,-0.066009521484375
-0.2937164306640625,0.740234375,0.0048675537109375
-0.252838134765625,0.7352142333984375,0.0279541015625
-0.270782470703125,0.746734619140625,-0.048980712890625
-0.2801361083984375,0.79425048828125,-0.1100311279296875
-0.3226165771484375,0.9019622802734376,-0.1727447509765625
-0.3591766357421875,0.9914093017578124,-0.2003021240234375
-0.45965576171875,1.0026702880859375,-0.206573486328125
-0.5402679443359375,1.135833740234375,-0.155059814453125
-0.466949462890625,1.136474609375,-0.3088226318359375
-0.4949798583984375,1.0530548095703125,-0.39080810546875
-0.603424072265625,0.8865509033203125,-0.3544464111328125
-0.7257537841796875,0.8408050537109375,-0.2850799560546875
-0.7484130859375,0.8363189697265625,-0.2469329833984375
-0.5821533203125,0.77239990234375,-0.1806182861328125
-0.47027587890625,0.732269287109375,-0.1660919189453125
-0.412139892578125,0.734527587890625,-0.1351318359375
-0.3582611083984375,0.738037109375,-0.1156005859375
-0.401336669921875,0.7467498779296875,-0.1343536376953125
-0.4753265380859375,0.83978271484375,-0.162322998046875
-0.5677032470703125,0.9417266845703124,-0.143829345703125
-0.618438720703125,0.9870147705078124,-0.1094970703125
-0.656036376953125,0.9168548583984376,-0.1068115234375
-0.7003936767578125,0.842010498046875,-0.0911865234375
-0.72552490234375,0.9916229248046876,-0.0284271240234375
-0.6688232421875,1.0766754150390625,-0.0766754150390625
-0.6854095458984375,0.895660400390625,-0.1775970458984375
-0.78375244140625,0.8846588134765625,-0.1833343505859375
-0.731903076171875,1.000640869140625,-0.114776611328125
-0.6149139404296875,1.1263275146484375,-0.2254486083984375
-0.482177734375,1.097442626953125,-0.344635009765625
-0.4170684814453125,0.9650421142578124,-0.351409912109375
-0.3383026123046875,0.877105712890625,-0.2548980712890625
-0.311767578125,0.8047332763671875,-0.15972900390625
-0.2679901123046875,0.7924346923828125,-0.078338623046875
-0.2012481689453125,0.7324981689453125,-0.078277587890625
-0.2505340576171875,0.70550537109375,-0.0853118896484375
-0.322174072265625,0.7548065185546875,-0.0814056396484375
-0.363922119140625,0.871795654296875,-0.0671234130859375
-0.3977813720703125,0.9501190185546876,-0.1112823486328125
-0.517913818359375,1.076263427734375,-0.134307861328125
-0.543853759765625,1.1430511474609375,-0.1695098876953125
-0.54193115234375,1.1326141357421875,-0.2658233642578125
-0.5820465087890625,1.023284912109375,-0.3180084228515625
-0.685791015625,0.8957061767578125,-0.21917724609375
-0.832763671875,0.884063720703125,-0.1260833740234375
-0.895294189453125,0.885009765625,-0.089691162109375
-0.862884521484375,0.7920379638671875,-0.0905303955078125
-0.8279876708984375,0.7487945556640625,-0.15069580078125
-0.75286865234375,0.7554779052734375,-0.16943359375
-0.801849365234375,0.773834228515625,-0.13275146484375
-0.9018096923828124,0.7853851318359375,-0.0739288330078125
-1.1050262451171875,0.8298797607421875,-0.1704559326171875
-1.085052490234375,0.7947845458984375,-0.4722747802734375
-1.187103271484375,0.8779144287109375,-0.6185150146484375
-1.1585693359375,0.883514404296875,-0.61834716796875
-1.0759124755859375,0.83685302734375,-0.6754302978515625
-0.9669189453125,0.7645721435546875,-0.6810455322265625
-0.8363494873046875,0.6489715576171875,-0.854248046875
-0.7292938232421875,0.59686279296875,-0.870758056640625
-0.6171722412109375,0.5319061279296875,-0.8081512451171875
-0.5001373291015625,0.365386962890625,-0.9031524658203124
-0.39263916015625,0.2513885498046875,-1.0113983154296875
-0.3555145263671875,0.1800079345703125,-0.955596923828125
-0.3730926513671875,0.083343505859375,-0.9020233154296876
-0.41571044921875,0.101470947265625,-0.96600341796875
-0.301177978515625,0.024444580078125,-1.0439910888671875
-0.2069549560546875,-0.0408935546875,-1.0703125
-0.2159576416015625,-0.0710906982421875,-0.9228057861328124
-0.2993011474609375,-0.1946868896484375,-0.6641082763671875
-0.5153656005859375,-0.178955078125,-0.4744720458984375
-0.4952392578125,-0.1556396484375,-0.582977294921875
-0.4105377197265625,-0.2171630859375,-0.6989288330078125
-0.2427520751953125,-0.2551727294921875,-0.635833740234375
-0.1857757568359375,-0.21600341796875,-0.5199432373046875
-0.194549560546875,-0.3366241455078125,-0.4202880859375
-0.3588104248046875,-0.3406829833984375,-0.51153564453125
-0.2759246826171875,-0.3386077880859375,-0.6697845458984375
-0.19610595703125,-0.323150634765625,-0.8184356689453125
-0.1599578857421875,-0.3197784423828125,-0.7688140869140625
-0.2110137939453125,-0.3505096435546875,-0.9059906005859376
-0.3868408203125,-0.2457733154296875,-1.109405517578125
-0.2186126708984375,-0.420257568359375,-1.032806396484375
-0.211395263671875,-0.2907867431640625,-0.8651885986328125
-0.1464691162109375,-0.4282684326171875,-0.7961578369140625
-0.143463134765625,-0.40472412109375,-0.652069091796875
-0.08563232421875,-0.577239990234375,-0.5854339599609375
-0.1979522705078125,-0.4595794677734375,-0.6473388671875
-0.288665771484375,-0.5843048095703125,-0.6382598876953125
-0.3630218505859375,-0.614593505859375,-0.7260894775390625
-0.3590545654296875,-0.6519622802734375,-0.7537994384765625
-0.297149658203125,-0.5117645263671875,-0.7214508056640625
-0.2968597412109375,-0.415313720703125,-0.720184326171875
-0.03460693359375,-0.279022216796875,-0.5379638671875
-0.2256927490234375,-0.1736297607421875,-0.6453857421875
-0.304168701171875,-0.019073486328125,-0.251556396484375
0.06219482421875,0.0240478515625,0.0105743408203125
0.0601806640625,0.0260772705078125,0.0102691650390625
0.0572357177734375,0.028289794921875,0.011474609375
0.056396484375,0.0294342041015625,0.0132904052734375
0.0594024658203125,0.03228759765625,0.0163116455078125
0.066802978515625,0.0341796875,0.0243682861328125
0.0778350830078125,0.0401458740234375,0.044921875
0.0893402099609375,0.046539306640625,0.0690765380859375
0.0950469970703125,0.04791259765625,0.0899200439453125
0.0988616943359375,0.045806884765625,0.1058502197265625
0.098114013671875,0.0403289794921875,0.1585845947265625
-2.874114990234375,0.7602691650390625,7.944900512695312
0.11737060546875,0.049102783203125,-0.4860687255859375
0.01226806640625,0.0164794921875,-0.0003662109375
0.01092529296875,0.0162811279296875,0.0148468017578125
0.1308135986328125,0.04144287109375,1.0459136962890625
0.1815948486328125,0.6136322021484375,1.0330352783203125
-0.5106201171875,-0.3195343017578125,1.9145660400390625
-0.005859375,0.1154022216796875,0.6605072021484375
-0.22613525390625,0.032501220703125,1.11578369140625
-0.1222686767578125,0.0423583984375,1.016876220703125
-0.1364898681640625,0.0400390625,0.981414794921875
-0.131927490234375,0.032196044921875,0.989990234375
-0.1166534423828125,0.0578460693359375,0.9846649169921876
-0.138458251953125,0.033782958984375,0.995574951171875
-0.1259918212890625,0.0559539794921875,0.9963531494140624
-0.1284637451171875,0.0371856689453125,0.998504638671875
-0.0370330810546875,0.0478973388671875,1.0739593505859375
-0.37481689453125,-0.018524169921875,1.0161285400390625
-0.294586181640625,0.066680908203125,0.851043701171875
-0.2516937255859375,0.0809478759765625,1.0437469482421875
-0.2820281982421875,0.078094482421875,0.9241485595703124
-0.0529632568359375,-0.028289794921875,0.899261474609375
-0.091156005859375,0.2143707275390625,1.03472900390625
-0.4202880859375,-0.1202850341796875,1.057830810546875
-0.1917572021484375,-0.1355133056640625,1.4606170654296875
-0.1973724365234375,-0.1058502197265625,1.5609283447265625
-0.22918701171875,0.0714111328125,0.7824554443359375
-0.4048614501953125,0.129852294921875,0.419769287109375
-0.1619720458984375,0.250244140625,0.0099639892578125
0.080047607421875,0.2830047607421875,-0.222076416015625
-0.4554443359375,1.0635986328125,-3.5863037109375
-0.06927490234375,0.084686279296875,-1.14239501953125
-0.1615753173828125,-0.1044769287109375,-0.9548797607421876
-0.2048187255859375,0.0194244384765625,-1.0154571533203125
-0.2326812744140625,0.2136993408203125,-0.936920166015625
-0.30938720703125,0.1783294677734375,-0.90948486328125
-0.22772216796875,0.0963897705078125,-0.9886322021484376
-0.2256927490234375,0.094268798828125,-0.9745941162109376
-0.2082366943359375,0.0921478271484375,-0.9790496826171876
-0.21942138671875,0.0929718017578125,-0.96630859375
-0.2115631103515625,0.108367919921875,-0.9621429443359376
-0.223724365234375,0.0943756103515625,-0.9659423828125
-0.2066192626953125,0.107147216796875,-0.9574432373046876
-0.191864013671875,0.079010009765625,-0.9492340087890624
-0.216156005859375,0.094268798828125,-0.9630279541015624
-0.2187042236328125,0.1074981689453125,-0.96990966796875
