AccelerationX,AccelerationY,AccelerationZ
0.1007080078125,-0.3479461669921875,-0.9494171142578124
0.1220855712890625,-0.3159637451171875,-1.001739501953125
0.1058197021484375,-0.2763671875,-0.9641265869140624
0.0789794921875,-0.25213623046875,-0.977691650390625
0.0917510986328125,-0.2271881103515625,-0.935882568359375
0.1107940673828125,-0.252960205078125,-0.921661376953125
0.085205078125,-0.22705078125,-0.893096923828125
0.129302978515625,-0.1926422119140625,-0.912078857421875
0.159637451171875,-0.321502685546875,-0.8702850341796875
0.2486724853515625,-0.4559326171875,-0.8681488037109375
0.16949462890625,-0.3117828369140625,-0.864166259765625
0.21490478515625,-0.529754638671875,-0.521453857421875
0.1623077392578125,0.067535400390625,-0.8614501953125
-0.074005126953125,0.0131378173828125,-0.88690185546875
-0.0958099365234375,0.14654541015625,-0.9104766845703124
-0.3920440673828125,0.0730438232421875,-0.630126953125
-0.2822265625,-0.1388702392578125,-1.09564208984375
-0.622711181640625,-0.2027130126953125,-0.9968414306640624
-0.6280670166015625,-0.1212310791015625,-0.782135009765625
-1.06805419921875,-0.3288421630859375,-0.4737701416015625
-0.703765869140625,-0.822479248046875,-0.3784942626953125
-0.481292724609375,-0.4328155517578125,-0.4290008544921875
-0.902008056640625,-0.43463134765625,-0.1026458740234375
-0.8789825439453125,-0.8575897216796875,-0.075469970703125
-1.36279296875,-0.978668212890625,-0.128875732421875
-1.4298248291015625,-1.2793731689453125,-0.048736572265625
-1.6788482666015625,-1.0988616943359375,-0.139251708984375
-2.040740966796875,-0.7154693603515625,-0.0843963623046875
-1.91107177734375,-0.4328460693359375,-0.1765594482421875
-1.98724365234375,-0.3035430908203125,-0.0547637939453125
-2.029937744140625,-0.1982574462890625,0.211395263671875
-1.5906829833984375,-0.0527496337890625,0.2142791748046875
-1.15948486328125,0.05670166015625,0.155548095703125
-0.7582244873046875,0.1317901611328125,0.0371246337890625
-0.3716583251953125,0.3372039794921875,-0.050018310546875
-0.0978851318359375,0.287445068359375,-0.1036224365234375
0.0431060791015625,0.2508697509765625,-0.0430145263671875
0.15631103515625,0.187591552734375,0.024078369140625
0.138671875,0.1078033447265625,0.0718536376953125
-0.2245941162109375,0.1199798583984375,0.18572998046875
-1.1307830810546875,0.119842529296875,0.39154052734375
-1.978973388671875,-0.3086090087890625,0.522216796875
-2.243026733398437,-0.674163818359375,1.105377197265625
-1.6722412109375,-0.5008087158203125,0.9715728759765624
-1.2663116455078125,-0.4204864501953125,0.814727783203125
-0.991729736328125,-0.4095306396484375,0.74603271484375
-0.7384490966796875,-0.4341583251953125,0.606292724609375
-0.6652374267578125,-0.489410400390625,0.474578857421875
-0.7007598876953125,-0.6321563720703125,0.4123992919921875
-1.341888427734375,-0.8992462158203125,0.6389617919921875
-1.143707275390625,-1.006805419921875,0.670623779296875
-0.9481658935546876,-0.960784912109375,0.63433837890625
-1.187469482421875,-0.8956146240234375,0.6983795166015625
-1.4587860107421875,-0.885467529296875,0.649200439453125
-2.2643280029296875,-0.7288970947265625,0.5775299072265625
-2.1444244384765625,-0.517242431640625,0.6283111572265625
-1.831207275390625,-0.325103759765625,0.48529052734375
-1.435455322265625,-0.1309051513671875,0.2667388916015625
-0.8656768798828125,0.0615081787109375,0.0547332763671875
-0.411590576171875,0.199615478515625,-0.0834808349609375
-0.066680908203125,0.2326507568359375,-0.1308441162109375
0.225738525390625,0.2675933837890625,-0.1700897216796875
0.2624053955078125,0.2457122802734375,-0.1620941162109375
0.141571044921875,0.2637939453125,-0.08599853515625
-0.1330718994140625,0.2933197021484375,0.0477294921875
-0.6826934814453125,0.3912200927734375,0.24859619140625
-1.533233642578125,0.4985504150390625,0.824371337890625
-2.286727905273437,0.287139892578125,0.8153839111328125
-2.945404052734375,-0.0776214599609375,1.07562255859375
-2.337020874023437,-0.514739990234375,0.611328125
-2.182891845703125,-0.8827362060546875,0.2524871826171875
-1.6481781005859375,-1.1310577392578125,0.4261322021484375
-1.03009033203125,-1.129791259765625,0.4010467529296875
-1.030517578125,-1.0171966552734375,0.339508056640625
-1.129913330078125,-0.79156494140625,0.2384185791015625
-1.13555908203125,-0.546600341796875,0.0999603271484375
-1.4786529541015625,-0.358062744140625,0.1106109619140625
-1.45880126953125,-0.2706756591796875,0.2993927001953125
-1.5759429931640625,-0.2983551025390625,0.4576416015625
-1.87823486328125,-0.3738861083984375,0.6151123046875
-2.4113922119140625,-0.418426513671875,0.7192840576171875
-2.647811889648437,-0.362762451171875,0.945220947265625
-1.7303314208984375,-0.1464385986328125,0.63934326171875
-0.967742919921875,0.1708221435546875,0.26885986328125
-0.4524993896484375,0.3309173583984375,0.061492919921875
-0.19219970703125,0.373260498046875,-0.0317230224609375
-0.04876708984375,0.4016571044921875,-0.0615081787109375
-0.01025390625,0.358734130859375,-0.0684051513671875
-0.0294647216796875,0.2955169677734375,0.02789306640625
0.0050201416015625,0.2639312744140625,0.021087646484375
-0.35943603515625,0.35089111328125,-0.0226898193359375
-1.319915771484375,0.449798583984375,0.275299072265625
-2.0454559326171875,0.60186767578125,0.4932403564453125
-2.619125366210937,0.3955841064453125,0.9497528076171876
-2.8246612548828125,-0.099212646484375,1.07086181640625
-2.4627838134765625,-0.611297607421875,0.921875
-1.8372650146484373,-0.8401031494140625,0.707122802734375
-1.1832733154296875,-0.9794921875,0.486083984375
-0.7728118896484375,-0.97796630859375,0.2955322265625
-0.574188232421875,-0.902923583984375,0.160064697265625
-0.579742431640625,-0.8485107421875,0.0746307373046875
-0.7718658447265625,-0.790313720703125,0.0740203857421875
-1.272552490234375,-0.75927734375,0.1784515380859375
-1.7493438720703125,-0.6401824951171875,0.2592315673828125
-2.596542358398437,-0.3592529296875,0.4726104736328125
-3.0089111328125,-0.0699462890625,0.927154541015625
-2.5543365478515625,0.5805206298828125,1.1282958984375
-1.82269287109375,0.4907989501953125,0.9343719482421876
-1.4100494384765625,0.7186737060546875,0.714141845703125
-0.785186767578125,0.6728363037109375,0.3013458251953125
-0.4593353271484375,0.6688385009765625,0.158172607421875
-0.1851654052734375,0.48602294921875,0.0710296630859375
-0.021087646484375,0.384613037109375,0.0747528076171875
0.1193084716796875,0.2999267578125,0.10491943359375
0.218353271484375,0.256561279296875,0.092559814453125
-0.13067626953125,0.4364013671875,0.0839080810546875
-0.9552001953125,0.543365478515625,0.1816864013671875
-2.033203125,0.59100341796875,0.398468017578125
-2.90863037109375,-0.105621337890625,0.6438751220703125
-2.619598388671875,-0.5828399658203125,0.7290496826171875
-2.100677490234375,-0.596954345703125,0.250091552734375
-1.6907958984375,-0.608612060546875,0.0731201171875
-1.1000213623046875,-0.5510101318359375,-0.0483856201171875
-0.8012542724609375,-0.4181671142578125,-0.04217529296875
-0.8079681396484375,-0.49542236328125,0.0177154541015625
-0.86376953125,-0.6352081298828125,0.1107177734375
-1.2317047119140625,-0.7814483642578125,0.21893310546875
-1.1813812255859375,-1.034942626953125,0.32647705078125
-1.236724853515625,-0.991180419921875,0.5284271240234375
-1.588348388671875,-0.8739013671875,0.6495361328125
-2.0284881591796875,-0.679931640625,0.4411468505859375
-2.38397216796875,-0.4488677978515625,0.068756103515625
-2.646636962890625,-0.342620849609375,-0.08013916015625
-2.4835205078125,0.157440185546875,-0.2514495849609375
-1.7868194580078125,0.507080078125,-0.1531219482421875
-1.272308349609375,0.5470428466796875,0.07940673828125
-0.7193603515625,0.5009765625,0.2042999267578125
-0.3798675537109375,0.53887939453125,0.12396240234375
-0.0900421142578125,0.308868408203125,-0.08026123046875
-0.084014892578125,0.2156982421875,-0.126190185546875
-0.1446380615234375,0.16290283203125,-0.061370849609375
-0.2437286376953125,0.099945068359375,0.02996826171875
-0.5425262451171875,0.0391693115234375,0.0244903564453125
-0.959197998046875,0.0184783935546875,0.075714111328125
-2.015472412109375,-0.23919677734375,0.054473876953125
-2.3072052001953125,-0.68157958984375,0.4999237060546875
-1.62823486328125,-0.8369293212890625,0.4756317138671875
-1.3145751953125,-0.772064208984375,0.26007080078125
-1.08319091796875,-0.67877197265625,0.0672607421875
-0.828765869140625,-0.800018310546875,-0.0327606201171875
-0.6744537353515625,-1.0457763671875,0.028411865234375
-0.453765869140625,-1.1258544921875,0.027374267578125
-0.4769134521484375,-1.0298309326171875,0.1148681640625
-0.639739990234375,-0.9056549072265624,0.10467529296875
-1.084136962890625,-1.01251220703125,0.18280029296875
-1.44085693359375,-1.0382232666015625,0.20416259765625
-1.8031463623046875,-1.1570587158203125,0.255157470703125
-2.440704345703125,-1.0749969482421875,0.3619842529296875
-2.2397918701171875,-0.7062530517578125,0.4762725830078125
-1.659576416015625,-0.4830780029296875,0.4477691650390625
-1.1596832275390625,-0.251312255859375,0.3357696533203125
-0.6326751708984375,-0.0741119384765625,0.1871185302734375
-0.242645263671875,0.0597991943359375,0.10784912109375
-0.0121612548828125,0.13677978515625,0.0765228271484375
0.2035064697265625,0.1381683349609375,0.047149658203125
0.307098388671875,0.1163330078125,0.0594024658203125
0.3899993896484375,0.092926025390625,0.0908203125
0.3695220947265625,0.1446533203125,0.1177825927734375
-0.021881103515625,0.345428466796875,0.14971923828125
-1.2693939208984375,0.3988189697265625,0.4659881591796875
-2.3867950439453125,0.3281707763671875,0.6187591552734375
-3.0147857666015625,-0.4379119873046875,0.8836517333984375
-2.600830078125,-0.6841278076171875,0.9639892578125
-1.8323211669921875,-0.8061370849609375,0.8253631591796875
-1.0788116455078125,-0.7826690673828125,0.6332855224609375
-0.9114532470703124,-0.9423065185546876,0.5029754638671875
-0.7788543701171875,-1.1245880126953125,0.3393707275390625
-0.673309326171875,-1.1757659912109375,0.2465972900390625
-0.624237060546875,-1.324737548828125,0.3905792236328125
-0.824798583984375,-1.0878143310546875,0.2972412109375
-1.5230255126953125,-0.44915771484375,-0.7347869873046875
-2.01800537109375,-0.41107177734375,-0.8699798583984375
-3.061676025390625,-0.540313720703125,-0.7484893798828125
-2.99969482421875,-0.22247314453125,-0.7041168212890625
-2.38970947265625,-0.103851318359375,-0.6209716796875
-1.8309326171875,0.04168701171875,-0.2743377685546875
-1.1660919189453125,0.141510009765625,-0.0372467041015625
-0.6573333740234375,0.2014312744140625,-0.01922607421875
-0.3911590576171875,0.2299346923828125,-0.061859130859375
-0.166107177734375,0.283172607421875,-0.0703582763671875
0.0268707275390625,0.1971435546875,-0.140167236328125
0.0118408203125,0.17010498046875,-0.1075286865234375
-0.0868988037109375,0.229217529296875,-0.058197021484375
-0.168426513671875,0.2821197509765625,-0.03411865234375
-0.4672393798828125,0.4050445556640625,0.0345916748046875
-1.2584381103515625,0.44189453125,0.4226837158203125
-2.00634765625,0.12774658203125,0.7545013427734375
-2.237411499023437,-0.3161773681640625,1.711700439453125
-1.82745361328125,-0.4701080322265625,1.5539093017578125
-1.6135101318359375,-0.3603515625,1.28765869140625
-1.4611663818359375,-0.4035797119140625,0.9225921630859376
-1.289764404296875,-0.51416015625,0.692657470703125
-1.3436126708984375,-0.7934417724609375,0.5932464599609375
-1.0095367431640625,-0.9642181396484376,0.5265350341796875
-0.6743927001953125,-0.94036865234375,0.4781341552734375
-0.7445220947265625,-0.90667724609375,0.4705657958984375
-1.1315460205078125,-0.833892822265625,0.5452880859375
-1.4065093994140625,-0.7318267822265625,0.6261749267578125
-1.9331817626953125,-0.5952301025390625,0.766387939453125
-2.395782470703125,-0.4207000732421875,1.112884521484375
-2.2400665283203125,0.2850189208984375,0.9873504638671876
-1.9985198974609373,0.3880462646484375,0.8922119140625
-1.403900146484375,0.33099365234375,0.53955078125
-0.832855224609375,0.317169189453125,0.2865447998046875
-0.390594482421875,0.340301513671875,0.1756744384765625
-0.1146087646484375,0.2838897705078125,0.0872039794921875
0.0956878662109375,0.1771240234375,-0.0224151611328125
0.0447540283203125,0.05267333984375,-0.0964202880859375
0.064605712890625,0.05389404296875,-0.010650634765625
0.1853485107421875,-0.00457763671875,0.0058441162109375
0.0948638916015625,0.0800018310546875,-0.01458740234375
-0.3614349365234375,0.2628021240234375,0.1440582275390625
-1.1699981689453125,0.4213409423828125,0.7988433837890625
-2.2348175048828125,0.7992401123046875,0.7709197998046875
-2.8978729248046875,0.2881317138671875,1.3215484619140625
-2.546295166015625,0.01556396484375,0.9687042236328124
-1.90771484375,-0.352691650390625,0.48492431640625
-1.3848876953125,-0.5426177978515625,0.1896820068359375
-1.006317138671875,-0.6134185791015625,0.1369171142578125
-0.7670745849609375,-0.650390625,0.0745391845703125
-1.0027008056640625,-0.5248260498046875,0.070709228515625
-1.109954833984375,-0.6436309814453125,0.218292236328125
-1.34423828125,-0.5828399658203125,0.04388427734375
-1.602508544921875,-0.661529541015625,0.0442962646484375
-1.7926025390625,-0.60443115234375,0.1087188720703125
-2.02520751953125,-0.4464111328125,0.1892547607421875
-2.0874786376953125,-0.2086029052734375,-0.0350189208984375
-1.79437255859375,0.098907470703125,-0.071014404296875
-1.4254608154296875,0.2955474853515625,-0.2105255126953125
-1.057647705078125,0.2859039306640625,-0.21881103515625
-0.72625732421875,0.288665771484375,-0.1399383544921875
-0.58026123046875,0.2755889892578125,-0.1539306640625
-0.4213714599609375,0.1253509521484375,-0.0505828857421875
-0.2362213134765625,0.0352935791015625,-0.0809783935546875
-0.1510467529296875,-0.0692596435546875,-0.0899200439453125
-0.1257476806640625,-0.17987060546875,-0.0654144287109375
-0.105224609375,-0.286712646484375,-0.0889739990234375
-0.1414031982421875,-0.228668212890625,-0.0720062255859375
-0.265777587890625,-0.0749664306640625,-0.11212158203125
-0.6768341064453125,0.1830291748046875,-0.1207275390625
-1.3564300537109375,0.282989501953125,-0.19110107421875
-1.971160888671875,0.3560028076171875,0.0090179443359375
-2.138671875,0.3650054931640625,0.14093017578125
-2.013778686523437,0.2690887451171875,0.091552734375
-1.629486083984375,0.1313323974609375,0.0453643798828125
-1.435791015625,-0.1439361572265625,0.093719482421875
-1.5225372314453125,-0.190032958984375,-0.1854248046875
-1.61181640625,-0.5023193359375,-0.3536529541015625
-1.2708892822265625,-0.59466552734375,-0.308746337890625
-1.0024261474609375,-0.58013916015625,-0.263824462890625
-1.024078369140625,-0.5207366943359375,-0.0059967041015625
-1.1720123291015625,-0.36248779296875,0.04327392578125
-1.405487060546875,-0.36383056640625,-0.1173095703125
-1.5272674560546875,-0.3536529541015625,-0.076568603515625
-1.6281585693359375,-0.2660369873046875,-0.1653594970703125
-1.82763671875,-0.4929656982421875,-0.55718994140625
-2.177215576171875,-0.3649749755859375,-0.608551025390625
-2.324798583984375,0.253509521484375,-0.8477020263671875
-1.7266693115234375,0.495452880859375,-1.0299224853515625
-1.5208892822265625,0.5713958740234375,-1.0197296142578125
-1.2501220703125,0.3736572265625,-0.6887359619140625
-0.8212127685546875,0.2824249267578125,-0.5651702880859375
-0.5579986572265625,0.2799835205078125,-0.225433349609375
-0.376708984375,0.22869873046875,-0.00360107421875
-0.188385009765625,0.2338104248046875,0.04150390625
-0.05419921875,0.211578369140625,0.004547119140625
-0.096954345703125,0.224639892578125,-0.0561370849609375
-0.14422607421875,0.260650634765625,-0.07489013671875
-0.135528564453125,0.2002410888671875,-0.0351409912109375
-0.399932861328125,0.26409912109375,0.01495361328125
-1.2008819580078125,0.26849365234375,0.00494384765625
-1.84979248046875,-0.0402374267578125,-0.1862335205078125
-2.936874389648437,-0.028076171875,-0.8537750244140625
-2.6848907470703125,-0.551910400390625,-0.6735382080078125
-2.049667358398437,-0.5783538818359375,-0.2853546142578125
-1.541290283203125,-0.577789306640625,-0.3593597412109375
-1.254730224609375,-0.5829010009765625,-0.481781005859375
-0.99456787109375,-0.733428955078125,-0.5174407958984375
-0.893707275390625,-0.8834686279296875,-0.430267333984375
-0.8758697509765625,-0.948638916015625,-0.4622344970703125
-1.0604400634765625,-0.9456024169921876,-0.3105926513671875
-1.2826385498046875,-0.6029510498046875,-0.653228759765625
-1.35943603515625,-0.304779052734375,-1.0662841796875
-1.5631866455078125,-0.2337646484375,-1.0766754150390625
-1.9841461181640625,-0.3448944091796875,-1.362884521484375
-2.3223419189453125,-0.08868408203125,-1.3248748779296875
-1.86053466796875,0.0123138427734375,-1.170135498046875
-1.497283935546875,0.1308746337890625,-1.0394287109375
-1.0733184814453125,0.1847076416015625,-0.734954833984375
-0.6534576416015625,0.245819091796875,-0.4174041748046875
-0.37091064453125,0.2694854736328125,-0.2210235595703125
-0.18817138671875,0.2370758056640625,-0.2269134521484375
-0.1435699462890625,0.248443603515625,-0.21649169921875
-0.0201873779296875,0.178955078125,-0.157928466796875
-0.0067138671875,0.1303253173828125,-0.1639251708984375
-0.0686187744140625,0.1333770751953125,-0.1533966064453125
-0.307525634765625,0.1348724365234375,-0.2507781982421875
-0.869873046875,0.2406158447265625,-0.337432861328125
-1.830841064453125,0.3997650146484375,-0.0860443115234375
-2.7067108154296875,0.489593505859375,-0.1253814697265625
-2.8022918701171875,0.19952392578125,-0.266082763671875
-2.31903076171875,-0.3972015380859375,0.1959075927734375
-1.69451904296875,-0.6446075439453125,0.5654449462890625
-1.1927490234375,-0.700439453125,0.1078948974609375
-1.0505218505859375,-0.6763763427734375,-0.1208648681640625
-0.9554595947265624,-0.7310333251953125,-0.2458953857421875
-0.95330810546875,-0.6206512451171875,-0.328033447265625
-0.9149322509765624,-0.4593048095703125,-0.4708251953125
-1.0197296142578125,-0.3424530029296875,-0.4142303466796875
-1.263916015625,-0.378997802734375,-0.3544921875
-1.5991973876953125,-0.522125244140625,-0.4044036865234375
-2.4208221435546875,-0.5785369873046875,-0.3426971435546875
-2.84393310546875,-0.573486328125,-0.4852294921875
-2.180389404296875,-0.0726470947265625,-0.4852752685546875
-2.0670928955078125,0.0448760986328125,-0.55157470703125
-1.592926025390625,0.1858978271484375,-0.3119659423828125
-0.994415283203125,0.2295989990234375,-0.212982177734375
-0.624969482421875,0.372344970703125,-0.2562255859375
-0.344970703125,0.308929443359375,-0.2548370361328125
-0.277557373046875,0.2859344482421875,-0.22735595703125
-0.2119598388671875,0.2241973876953125,-0.157745361328125
-0.19561767578125,0.120208740234375,-0.1058807373046875
-0.1791839599609375,0.092010498046875,-0.0985260009765625
-0.3857574462890625,0.1483306884765625,-0.14520263671875
-0.7489471435546875,0.2683868408203125,-0.07879638671875
-1.05401611328125,0.1572418212890625,0.04058837890625
-1.6862945556640625,0.235382080078125,0.24493408203125
-2.1595458984375,0.0973358154296875,0.527923583984375
-2.256744384765625,-0.016387939453125,0.424224853515625
-2.31927490234375,0.09039306640625,0.18731689453125
-1.8584136962890625,-0.248016357421875,0.1809844970703125
-1.5999755859375,-0.580078125,0.2250213623046875
-1.2813873291015625,-0.8213348388671875,0.3254241943359375
-1.0829010009765625,-0.9983062744140624,0.1515350341796875
-1.0331878662109375,-0.94366455078125,0.04962158203125
-1.069732666015625,-0.865386962890625,-0.0603179931640625
-1.392486572265625,-0.7654266357421875,-0.1522674560546875
-1.7481689453125,-0.679046630859375,-0.133544921875
-2.0000152587890625,-0.578704833984375,-0.240447998046875
-2.108245849609375,-0.3768768310546875,-0.37017822265625
-2.038177490234375,-0.23004150390625,-0.611968994140625
-1.9699554443359373,0.073394775390625,-0.583343505859375
-1.8935089111328125,0.08538818359375,-0.48828125
-1.47418212890625,0.175445556640625,-0.4012603759765625
-1.068206787109375,0.1518096923828125,-0.263885498046875
-0.672088623046875,0.1755828857421875,-0.126922607421875
-0.391387939453125,0.2515106201171875,-0.0449371337890625
-0.23345947265625,0.3073272705078125,-0.0057830810546875
-0.0843048095703125,0.2733001708984375,0.0337677001953125
-0.01995849609375,0.251190185546875,0.0124359130859375
-0.14324951171875,0.3433990478515625,0.0344085693359375
-0.4240570068359375,0.447967529296875,0.0914459228515625
-1.0119476318359375,0.48443603515625,0.32830810546875
-1.741790771484375,0.13409423828125,0.42333984375
-2.139068603515625,-0.19775390625,0.3175506591796875
-2.1917724609375,-0.0849151611328125,0.2150726318359375
-2.152618408203125,-0.1978302001953125,0.0814056396484375
-1.899627685546875,-0.2651214599609375,0.0682525634765625
-1.6082000732421875,-0.40765380859375,0.1368255615234375
-1.457550048828125,-0.525421142578125,0.1829071044921875
-1.2902679443359375,-0.5904693603515625,0.12109375
-1.0938720703125,-0.6857757568359375,0.1160736083984375
-0.899017333984375,-0.731170654296875,0.1077117919921875
-0.892974853515625,-0.712738037109375,0.176483154296875
-0.874908447265625,-0.700103759765625,0.120819091796875
-1.217498779296875,-0.732025146484375,0.3125457763671875
-1.602203369140625,-0.6433563232421875,0.2238311767578125
-2.1650390625,-0.4674835205078125,0.100433349609375
-2.958358764648437,-0.5819091796875,0.0975799560546875
-2.5784454345703125,-0.09844970703125,-0.1947021484375
-2.500961303710937,-0.19659423828125,-0.2802734375
-2.2867584228515625,-0.0200347900390625,-0.224761962890625
-1.8071441650390625,0.02880859375,-0.2322540283203125
-1.2346038818359375,0.2203826904296875,-0.2460479736328125
-0.7533416748046875,0.34466552734375,-0.2321624755859375
-0.3882293701171875,0.346221923828125,-0.1958465576171875
-0.1652679443359375,0.2919921875,-0.165802001953125
-0.073699951171875,0.301788330078125,-0.1705780029296875
-0.0357818603515625,0.312286376953125,-0.2174224853515625
0.0830230712890625,0.3226776123046875,-0.2749481201171875
-0.1051483154296875,0.3255462646484375,-0.2470703125
-0.50787353515625,0.4444427490234375,-0.042022705078125
-0.9897003173828124,0.4993743896484375,0.68212890625
-1.673736572265625,0.5153961181640625,0.586883544921875
-2.51666259765625,0.448089599609375,0.8316192626953125
-2.6607208251953125,0.3373565673828125,0.8711700439453125
-2.43377685546875,0.0514984130859375,0.7074127197265625
-2.078216552734375,-0.1861419677734375,0.560821533203125
-1.7872467041015625,-0.510955810546875,0.507232666015625
-1.5836181640625,-0.873077392578125,0.48175048828125
-1.1634063720703125,-1.135498046875,0.584014892578125
-0.82244873046875,-1.0642242431640625,0.5486297607421875
-0.786468505859375,-0.944580078125,0.3277587890625
-1.054840087890625,-0.76068115234375,0.06121826171875
-1.4001617431640625,-0.698883056640625,-0.1151885986328125
-1.7615509033203125,-0.5230255126953125,-0.2114715576171875
-2.1604766845703125,-0.700531005859375,-0.4936981201171875
-2.682723999023437,-0.5803985595703125,-0.3946685791015625
-2.303817749023437,-0.456390380859375,-0.2317352294921875
-2.3178863525390625,-0.4715118408203125,-0.1654510498046875
-2.13720703125,-0.427459716796875,-0.192718505859375
-1.771331787109375,-0.2659759521484375,-0.2169036865234375
-1.3159942626953125,-0.0569000244140625,-0.209869384765625
-0.8898162841796875,0.106903076171875,-0.18798828125
-0.59002685546875,0.25372314453125,-0.1197967529296875
-0.34161376953125,0.28106689453125,-0.1366119384765625
-0.269622802734375,0.3091888427734375,-0.1509552001953125
-0.205413818359375,0.31390380859375,-0.1131591796875
-0.2122039794921875,0.249908447265625,-0.0407562255859375
-0.256683349609375,0.2635650634765625,0.1291046142578125
-0.5546417236328125,0.064788818359375,-0.10308837890625
-1.3164215087890625,-0.135772705078125,0.6205291748046875
-1.12396240234375,-0.3851776123046875,0.6829681396484375
-1.576324462890625,-0.488037109375,0.584136962890625
-2.021270751953125,-0.0879058837890625,0.5409698486328125
-1.717315673828125,-0.01361083984375,0.365814208984375
-1.44219970703125,-0.1005096435546875,0.3640594482421875
-1.6201019287109375,-0.195068359375,0.502960205078125
-1.4030914306640625,-0.35626220703125,0.4738006591796875
-1.297210693359375,-0.534942626953125,0.398345947265625
-1.3990020751953125,-0.6391143798828125,0.454498291015625
-1.4481201171875,-0.7722930908203125,0.4939117431640625
-1.2815399169921875,-0.6907501220703125,0.405792236328125
-1.259521484375,-0.56964111328125,0.250579833984375
-1.3391876220703125,-0.443206787109375,0.13983154296875
-1.5150909423828125,-0.3203277587890625,0.092071533203125
-2.0093536376953125,-0.1690673828125,0.1583099365234375
-2.7788238525390625,-0.2707366943359375,0.40789794921875
-2.5565643310546875,0.14990234375,0.3218841552734375
-2.34478759765625,0.333526611328125,0.245208740234375
-2.200424194335937,0.339080810546875,0.240692138671875
-1.7464141845703125,0.3855438232421875,0.1767120361328125
-1.1800079345703125,0.45068359375,0.1049041748046875
-0.6931610107421875,0.4228515625,0.024871826171875
-0.4176177978515625,0.4102325439453125,0.0213775634765625
-0.1648101806640625,0.3759765625,0.0243377685546875
-0.080078125,0.3236083984375,-0.0001220703125
-0.1146392822265625,0.3115692138671875,0.012786865234375
-0.1859588623046875,0.27752685546875,0.025634765625
-0.30029296875,0.30816650390625,0.01922607421875
-0.626434326171875,0.4653778076171875,0.0850982666015625
-1.1687164306640625,0.5363922119140625,0.183929443359375
-2.1548614501953125,0.6366119384765625,0.2778778076171875
-2.710601806640625,0.3646087646484375,0.4598846435546875
-2.649261474609375,-0.124176025390625,0.4363555908203125
-2.1317901611328125,-0.4353485107421875,0.4684600830078125
-1.623992919921875,-0.6159210205078125,0.452972412109375
-1.1762847900390625,-0.8000946044921875,0.5663909912109375
-1.0286865234375,-0.649383544921875,0.5201416015625
-0.9694061279296876,-0.546905517578125,-0.00885009765625
-1.023834228515625,-0.5157623291015625,-0.1973876953125
-1.131256103515625,-0.46563720703125,-0.0349884033203125
-1.37078857421875,-0.4238128662109375,0.2926788330078125
-1.86712646484375,-0.135772705078125,0.4772796630859375
-2.458282470703125,0.0250396728515625,0.47698974609375
-2.5360565185546875,0.301971435546875,0.5337982177734375
-2.1105499267578125,0.69818115234375,0.59796142578125
-1.542938232421875,0.69000244140625,0.533203125
-1.0879669189453125,0.621002197265625,0.343017578125
-0.7369232177734375,0.5339508056640625,0.16705322265625
-0.5,0.4449920654296875,0.0592041015625
-0.4301605224609375,0.399444580078125,0.0643310546875
-0.374542236328125,0.2810211181640625,0.01104736328125
-0.395233154296875,0.2665557861328125,-0.0788726806640625
-0.321929931640625,0.1534576416015625,-0.1318511962890625
-0.5322418212890625,0.0677032470703125,-0.27679443359375
-0.93560791015625,0.093505859375,-0.2610931396484375
-1.186920166015625,-0.0874176025390625,-0.305450439453125
-1.7526397705078125,-0.085174560546875,-0.2261810302734375
-2.23968505859375,-0.0752410888671875,-0.4097137451171875
-2.0782470703125,-0.2351226806640625,-0.564666748046875
-1.8970947265625,-0.341461181640625,-0.630340576171875
-1.687957763671875,-0.3788909912109375,-0.7971649169921875
-1.29119873046875,-0.4877471923828125,-0.6103515625
-1.0399169921875,-0.511322021484375,-0.5424652099609375
-0.958648681640625,-0.646484375,-0.33319091796875
-0.8824310302734375,-0.77142333984375,-0.1217498779296875
-0.90753173828125,-0.66888427734375,0.0312347412109375
-1.1707305908203125,-0.6289520263671875,0.1754150390625
-1.48858642578125,-0.4464874267578125,0.4528961181640625
-1.9058380126953125,-0.41119384765625,0.6349945068359375
-2.4739532470703125,-0.1127471923828125,0.8673095703125
-2.176788330078125,-0.044952392578125,0.547760009765625
-1.5327606201171875,0.078765869140625,0.1658477783203125
-1.013702392578125,0.0325775146484375,0.1365814208984375
-0.70928955078125,-0.01690673828125,0.246795654296875
-0.3856201171875,0.1051177978515625,0.1129302978515625
-0.1343536376953125,0.1502685546875,0.06988525390625
0.0930938720703125,0.1041107177734375,0.0093536376953125
0.000701904296875,0.2746734619140625,0.028594970703125
-0.0868682861328125,0.36480712890625,0.00091552734375
-0.41693115234375,0.53021240234375,-0.0012359619140625
-0.863494873046875,0.5897369384765625,0.07916259765625
-1.5282135009765625,0.584259033203125,0.10626220703125
-2.069854736328125,0.5203399658203125,0.2948760986328125
-1.9444122314453125,0.2220611572265625,0.416412353515625
-1.9586944580078125,-0.074493408203125,0.430755615234375
-1.686920166015625,-0.0412750244140625,0.2764129638671875
-1.435333251953125,-0.1036376953125,-0.008087158203125
-1.4482421875,-0.2193145751953125,-0.0869598388671875
-1.1736602783203125,-0.4308319091796875,-0.231781005859375
-1.132080078125,-0.5647735595703125,-0.349365234375
-1.1150054931640625,-0.734466552734375,-0.2918243408203125
-1.188446044921875,-0.809417724609375,-0.1184234619140625
-1.4351959228515625,-0.6408843994140625,-0.086669921875
-1.6389007568359375,-0.3806915283203125,-0.0098876953125
-1.808624267578125,-0.10699462890625,0.0158233642578125
-2.1243438720703125,0.23828125,0.2008514404296875
-2.2132720947265625,0.6037445068359375,0.45916748046875
-2.1874542236328125,0.3779296875,0.38458251953125
-1.962677001953125,0.3889617919921875,0.3768768310546875
-1.304718017578125,0.2976226806640625,0.208465576171875
-0.647216796875,0.3294830322265625,0.1123199462890625
-0.2120361328125,0.315826416015625,0.11773681640625
0.0230712890625,0.2471771240234375,0.0887451171875
0.0964508056640625,0.237548828125,0.113861083984375
0.1573486328125,0.19329833984375,0.091644287109375
0.103790283203125,0.1854248046875,0.0735931396484375
-0.5101776123046875,0.1188201904296875,-0.0645294189453125
-0.946624755859375,0.119232177734375,0.0498199462890625
-1.2786102294921875,0.1763763427734375,0.22918701171875
-1.7909393310546875,0.333892822265625,0.2863311767578125
-2.134872436523437,0.3984832763671875,0.454925537109375
-1.923248291015625,0.274932861328125,0.4818115234375
-1.6937255859375,0.132293701171875,0.326171875
-1.35345458984375,0.099639892578125,0.12939453125
-1.5355224609375,-0.0986480712890625,-0.002166748046875
-1.3490447998046875,-0.4582061767578125,-0.1094970703125
-1.217620849609375,-0.5064544677734375,-0.2473602294921875
-1.0505218505859375,-0.4771575927734375,-0.4072723388671875
-0.9239044189453124,-0.4721221923828125,-0.3466796875
-0.9122467041015624,-0.4545745849609375,-0.115875244140625
-0.9263916015625,-0.383026123046875,0.03790283203125
-1.0594940185546875,-0.329742431640625,0.124786376953125
-1.2128143310546875,-0.2546539306640625,0.2238922119140625
-1.2688446044921875,-0.2657470703125,0.2949371337890625
-1.569091796875,-0.2215728759765625,0.358856201171875
-2.30242919921875,-0.1236572265625,0.400421142578125
-2.9307098388671875,0.3123931884765625,0.2117919921875
-2.699691772460937,0.8687744140625,0.1349639892578125
-1.7703857421875,0.852020263671875,0.0279998779296875
-1.1070098876953125,0.62591552734375,0.060394287109375
-0.674468994140625,0.519195556640625,0.14593505859375
-0.29345703125,0.368743896484375,0.2247161865234375
-0.0311737060546875,0.235687255859375,0.2244415283203125
0.1757354736328125,0.118682861328125,0.2024383544921875
0.210662841796875,0.0804595947265625,0.1340484619140625
0.0485382080078125,0.1452484130859375,0.000457763671875
-0.27386474609375,0.1759796142578125,0.0089569091796875
-0.5239715576171875,0.1720733642578125,0.0646514892578125
-1.1189117431640625,0.2180633544921875,0.0435028076171875
-1.9476776123046875,0.540618896484375,0.125
-2.5028076171875,-0.0755767822265625,0.1432952880859375
-2.30511474609375,0.0641326904296875,0.1750946044921875
-1.9567413330078125,0.0005340576171875,-0.105865478515625
-1.611480712890625,-0.1841583251953125,-0.0754241943359375
-1.215057373046875,-0.252044677734375,0.0333709716796875
-0.896148681640625,-0.2520751953125,-0.0175018310546875
-0.836212158203125,-0.3101959228515625,-0.0272369384765625
-0.9169769287109376,-0.44244384765625,-0.191802978515625
-1.1177215576171875,-0.63909912109375,-0.0645294189453125
-1.187957763671875,-0.6834259033203125,0.0404510498046875
-1.3961334228515625,-0.539794921875,0.081207275390625
-1.7697601318359375,-0.3583526611328125,0.3118438720703125
-2.3119659423828125,-0.2716827392578125,0.4499664306640625
-2.2856597900390625,0.0737152099609375,0.3321075439453125
-2.07000732421875,0.32696533203125,0.1550445556640625
-1.84368896484375,0.4813385009765625,0.1182708740234375
-1.326171875,0.4178619384765625,0.040740966796875
-0.9788665771484376,0.404296875,0.073516845703125
-0.696807861328125,0.35638427734375,0.07952880859375
-0.4149932861328125,0.307861328125,0.1171417236328125
-0.24029541015625,0.197479248046875,0.0169525146484375
-0.2235107421875,0.193328857421875,-0.0495452880859375
-0.2027740478515625,0.09033203125,-0.09857177734375
-0.3149871826171875,0.0099334716796875,-0.1024932861328125
-0.5435791015625,-0.1327056884765625,-0.1417236328125
-0.9337158203125,0.07373046875,-0.3670654296875
-0.9033966064453124,-0.06591796875,-0.5732421875
-0.99652099609375,0.2353973388671875,-0.702423095703125
-0.9534454345703124,0.5933990478515625,-0.7072296142578125
-1.084381103515625,0.5055999755859375,-0.833892822265625
-1.1167144775390625,0.5244903564453125,-0.604705810546875
-1.1501312255859375,0.2773590087890625,-0.508544921875
-1.2800750732421875,0.2570953369140625,-0.493316650390625
-1.340850830078125,0.0934906005859375,-0.6473846435546875
-1.3798828125,-0.130706787109375,-0.603668212890625
-1.3358306884765625,-0.373260498046875,-0.6390228271484375
-1.3267669677734375,-0.463287353515625,-0.7577056884765625
-1.2250823974609375,-0.6495208740234375,-0.6464080810546875
-1.30084228515625,-0.6575927734375,-0.4470367431640625
-1.521728515625,-0.4560394287109375,-0.2717132568359375
-1.79058837890625,-0.2606658935546875,-0.118804931640625
-2.4346160888671875,0.1636505126953125,0.16412353515625
-2.7329864501953125,0.60479736328125,0.3408050537109375
-2.6781158447265625,1.1519012451171875,0.34844970703125
-2.213623046875,1.157379150390625,0.187591552734375
-1.6187744140625,0.9530029296875,0.1699371337890625
-0.9510345458984376,0.693450927734375,0.2561798095703125
-0.3721771240234375,0.411346435546875,0.243011474609375
-0.073944091796875,0.2935638427734375,0.1905670166015625
0.0609283447265625,0.1923370361328125,0.1057281494140625
0.1108551025390625,0.1425323486328125,0.0258026123046875
0.0967254638671875,0.1177520751953125,-0.0007781982421875
-0.0101776123046875,0.0621795654296875,0.029510498046875
-0.2183074951171875,0.1138153076171875,0.09820556640625
-0.5210418701171875,0.1849822998046875,0.11724853515625
-1.095916748046875,0.408477783203125,0.135833740234375
-1.628662109375,0.641693115234375,0.409027099609375
-1.803558349609375,0.6598052978515625,0.44036865234375
-2.2052764892578125,0.4134979248046875,0.468017578125
-2.311676025390625,0.221099853515625,0.373382568359375
-2.3730621337890625,-0.0782928466796875,0.579254150390625
-2.023956298828125,-0.2516632080078125,0.2971343994140625
-1.4058380126953125,-0.214263916015625,0.045501708984375
-1.0698699951171875,-0.2652130126953125,-0.0473175048828125
-0.9918975830078124,-0.33453369140625,-0.092803955078125
-0.928253173828125,-0.4031524658203125,-0.212738037109375
-0.967041015625,-0.56268310546875,-0.1473846435546875
-1.0404052734375,-0.6267242431640625,0.074005126953125
-1.188385009765625,-0.6259307861328125,0.1909332275390625
-1.1334381103515625,-0.4644622802734375,0.18328857421875
-1.39434814453125,-0.3234100341796875,0.011016845703125
-1.9799346923828125,-0.0592803955078125,0.063934326171875
-2.389999389648437,0.187835693359375,0.1233978271484375
-2.2338409423828125,0.37847900390625,0.2159423828125
-1.580230712890625,0.5047149658203125,0.20867919921875
-0.74810791015625,0.3994293212890625,0.1192779541015625
-0.2650299072265625,0.2473907470703125,0.14801025390625
-0.08917236328125,0.1909027099609375,0.187469482421875
0.0515899658203125,0.12213134765625,0.206817626953125
0.1316375732421875,0.1373138427734375,0.1691741943359375
0.1077423095703125,0.1877288818359375,0.1472320556640625
0.0505828857421875,0.173187255859375,0.1541290283203125
-0.4370574951171875,0.2617950439453125,0.113677978515625
-1.31854248046875,0.5072021484375,-0.0373992919921875
-1.9991455078125,0.40716552734375,0.0536041259765625
-2.2964324951171875,0.1349029541015625,0.122283935546875
-2.19891357421875,0.2215118408203125,0.191314697265625
-2.093536376953125,0.177520751953125,0.1900482177734375
-1.72052001953125,0.08746337890625,0.130584716796875
-1.40887451171875,0.0327911376953125,-0.076812744140625
-1.2440643310546875,-0.0295867919921875,-0.198760986328125
-1.12139892578125,-0.11505126953125,-0.2168121337890625
-1.16436767578125,-0.415252685546875,-0.2232513427734375
-1.2514495849609375,-0.58612060546875,-0.1455841064453125
-1.1207733154296875,-0.7284393310546875,-0.187652587890625
-1.10821533203125,-0.7840118408203125,-0.0335845947265625
-1.193267822265625,-0.8274993896484375,0.0336456298828125
-1.989715576171875,-0.8148193359375,0.093658447265625
-2.3394012451171875,-0.5946502685546875,0.2209625244140625
-2.1242218017578125,-0.1965789794921875,0.3002471923828125
-2.072860717773437,0.1321563720703125,0.25860595703125
-1.6637420654296875,0.353485107421875,0.2400360107421875
-1.1267852783203125,0.3286895751953125,0.0505218505859375
-0.79803466796875,0.272674560546875,-0.084197998046875
-0.4924774169921875,0.2590789794921875,-0.092620849609375
-0.2960968017578125,0.1859130859375,-0.0351409912109375
-0.2012786865234375,0.0905609130859375,0.0391998291015625
-0.076080322265625,-0.02398681640625,0.0207061767578125
-0.1125030517578125,-0.1025848388671875,0.0117645263671875
-0.1929779052734375,-0.1359100341796875,-0.09832763671875
-0.5086212158203125,-0.0829925537109375,-0.3267059326171875
-0.7400665283203125,0.0089263916015625,-0.124542236328125
-0.7760162353515625,0.0787506103515625,-0.1752471923828125
-1.4705047607421875,0.236968994140625,-0.1806488037109375
-1.7179718017578125,0.3462066650390625,-0.1523590087890625
-1.711761474609375,0.160369873046875,0.08819580078125
-1.6209564208984375,0.0531463623046875,0.1676025390625
-1.5440826416015625,0.0195770263671875,0.1519012451171875
-1.572418212890625,-0.1276092529296875,0.1389617919921875
-1.5699005126953125,-0.2219696044921875,0.1544036865234375
-1.5442657470703125,-0.4222259521484375,0.114593505859375
-1.3373260498046875,-0.5564727783203125,0.0196685791015625
-1.15069580078125,-0.580596923828125,-0.0712127685546875
-1.138916015625,-0.530792236328125,-0.0226898193359375
-1.7385406494140625,-0.2451019287109375,0.2670745849609375
-1.935577392578125,-0.2258758544921875,0.35247802734375
-1.9050750732421875,0.1824951171875,0.5209808349609375
-2.0246124267578125,0.3627471923828125,0.5659637451171875
-2.0312042236328125,0.5536346435546875,0.4422149658203125
-1.7637786865234375,0.6440277099609375,0.2980499267578125
-1.3010101318359375,0.4899139404296875,0.1175537109375
-0.9121856689453124,0.3788604736328125,0.0754547119140625
-0.5216064453125,0.2642669677734375,0.1058502197265625
-0.2108001708984375,0.1931304931640625,0.099212646484375
-0.0885009765625,0.2470703125,0.0850830078125
0.0086212158203125,0.247161865234375,0.0008697509765625
-0.165496826171875,0.3180389404296875,-0.05926513671875
-0.3988189697265625,0.4048004150390625,0.01123046875
-0.7779083251953125,0.3298797607421875,0.0894927978515625
-1.1624298095703125,0.4924163818359375,0.324371337890625
-1.537628173828125,0.3631591796875,0.519683837890625
-1.6738128662109375,0.33013916015625,0.3795318603515625
-1.753753662109375,0.279937744140625,0.385345458984375
-1.6877288818359375,0.2059173583984375,0.3118438720703125
-1.5991363525390625,0.16497802734375,0.13751220703125
-1.6639404296875,0.060272216796875,0.0450897216796875
-1.5625457763671875,-0.1253662109375,-0.234222412109375
-1.3074493408203125,-0.1261444091796875,-0.240570068359375
-1.1280059814453125,-0.230621337890625,-0.3071441650390625
-1.095794677734375,-0.2647247314453125,-0.2056427001953125
-1.1446380615234375,-0.4082794189453125,-0.06036376953125
-1.186431884765625,-0.3525390625,0.082489013671875
-1.2435150146484375,-0.377166748046875,0.1499176025390625
-1.2920074462890625,-0.11920166015625,0.013397216796875
-2.0559539794921875,0.0828857421875,0.0675048828125
-2.7903594970703125,0.397247314453125,0.4857635498046875
-2.2558135986328125,0.6203155517578125,0.56494140625
-1.875701904296875,0.7049713134765625,0.47784423828125
-1.4677734375,0.64178466796875,0.3608856201171875
-1.043792724609375,0.520416259765625,0.2371063232421875
-0.71575927734375,0.475341796875,0.2324676513671875
-0.3960418701171875,0.270599365234375,0.0770416259765625
-0.2354736328125,0.2803192138671875,0.0419158935546875
-0.2480316162109375,0.2620849609375,-0.07757568359375
-0.2676544189453125,0.1700286865234375,-0.1048583984375
-0.216400146484375,0.1192626953125,-0.08563232421875
-0.260833740234375,0.19708251953125,-0.00921630859375
-0.525543212890625,0.1945648193359375,-0.0917510986328125
-0.7983245849609375,0.4767913818359375,0.01275634765625
-1.5799713134765625,0.561279296875,-0.117584228515625
-2.1652984619140625,0.6879730224609375,0.213348388671875
-2.1498260498046875,0.669219970703125,0.1902923583984375
-1.98876953125,0.4694671630859375,0.18231201171875
-1.9662017822265625,0.266082763671875,0.045562744140625
-1.832733154296875,-0.084136962890625,0.012603759765625
-1.861846923828125,-0.2416839599609375,0.1259918212890625
-1.64471435546875,-0.3227996826171875,-0.049896240234375
-1.0763397216796875,-0.3681640625,-0.2564544677734375
-0.8048858642578125,-0.494232177734375,-0.326385498046875
-0.84954833984375,-0.5619964599609375,-0.327880859375
-1.1552276611328125,-0.48004150390625,-0.2014923095703125
-1.5074615478515625,-0.4213409423828125,0.01080322265625
-1.81158447265625,-0.3649139404296875,0.0803985595703125
-2.3824462890625,0.0799407958984375,0.349822998046875
-2.6168975830078125,0.3924407958984375,0.38531494140625
-2.4034576416015625,0.639373779296875,0.477325439453125
-1.8110198974609373,0.6089935302734375,0.312255859375
-1.161224365234375,0.4674072265625,0.1197662353515625
-0.748626708984375,0.478607177734375,0.1403656005859375
-0.349395751953125,0.386474609375,0.12506103515625
-0.1404571533203125,0.2689361572265625,0.0806427001953125
-0.031982421875,0.2161712646484375,0.0587310791015625
0.0731048583984375,0.1398468017578125,0.046661376953125
0.2387847900390625,0.0637054443359375,0.0781707763671875
0.1546478271484375,0.19744873046875,0.1293487548828125
-0.0880889892578125,0.415374755859375,0.1574249267578125
-0.799774169921875,0.7546539306640625,0.3327789306640625
-2.4265594482421875,0.495513916015625,0.4709014892578125
-2.9907379150390625,0.1586151123046875,0.6821136474609375
-2.654388427734375,0.03277587890625,0.64471435546875
-2.048828125,0.16302490234375,0.6985626220703125
-1.37115478515625,0.0609283447265625,0.7065277099609375
-1.1392364501953125,-0.1026458740234375,0.6248779296875
-1.0709228515625,-0.2856292724609375,0.49737548828125
-1.1878662109375,-0.5946502685546875,0.43927001953125
-1.1110382080078125,-0.7085418701171875,0.34906005859375
-1.0150146484375,-0.808197021484375,0.2367706298828125
-0.9758148193359376,-0.7325286865234375,0.2213134765625
-1.02520751953125,-0.6340179443359375,0.228973388671875
-1.1622161865234375,-0.4745330810546875,0.2858734130859375
-1.6886444091796875,-0.237640380859375,0.3568572998046875
-2.669296264648437,0.050689697265625,0.7232818603515625
-2.51776123046875,0.35748291015625,0.8695526123046875
-2.3875274658203125,0.5707855224609375,0.8583984375
-2.139617919921875,0.7672882080078125,0.7808837890625
-1.5942840576171875,0.65057373046875,0.5328216552734375
-1.047760009765625,0.6576995849609375,0.40130615234375
-0.5476837158203125,0.660888671875,0.20709228515625
-0.2137603759765625,0.483856201171875,0.151153564453125
-0.0497894287109375,0.4688568115234375,0.12567138671875
0.0860443115234375,0.256439208984375,0.05218505859375
-0.0070343017578125,0.191314697265625,0.0120391845703125
-0.1136474609375,0.198638916015625,0.02362060546875
-0.4938507080078125,0.2660675048828125,-0.0335235595703125
-1.1499481201171875,0.2098236083984375,-0.07708740234375
-1.98974609375,0.3035125732421875,-0.17169189453125
-2.260726928710937,-0.20806884765625,-0.4176788330078125
-2.3217010498046875,0.00286865234375,-0.31640625
-2.198333740234375,0.072418212890625,-0.0965423583984375
-1.807098388671875,-0.111328125,-0.140380859375
-1.1784515380859375,-0.2230377197265625,-0.0195465087890625
-1.0935516357421875,-0.36566162109375,-0.1197509765625
-1.056976318359375,-0.496490478515625,-0.146331787109375
-1.3429412841796875,-0.7226715087890625,-0.2562408447265625
-1.31964111328125,-1.2031402587890625,-0.172698974609375
-1.3744964599609375,-1.1070556640625,0.163055419921875
-1.3941497802734375,-0.9241943359375,0.3152313232421875
-1.7977294921875,-0.5068511962890625,0.432647705078125
-2.7449951171875,-0.1234283447265625,0.6283721923828125
-2.9516754150390625,0.536651611328125,0.9956817626953124
-2.43701171875,0.860137939453125,0.677276611328125
-1.915283203125,0.98822021484375,0.524169921875
-1.0655670166015625,0.970428466796875,0.2657012939453125
-0.380645751953125,0.6663970947265625,0.125213623046875
0.0445556640625,0.4891815185546875,0.0606536865234375
0.242462158203125,0.29833984375,0.0232696533203125
0.318328857421875,0.2135467529296875,0.0895843505859375
0.3655548095703125,0.1231231689453125,0.157012939453125
0.1956939697265625,0.188446044921875,0.14898681640625
-0.372344970703125,0.3772735595703125,0.1128387451171875
-1.30120849609375,0.563201904296875,0.06292724609375
-2.1166229248046875,0.65203857421875,0.0722808837890625
-2.757904052734375,0.49468994140625,-0.2812652587890625
-3.0409088134765625,0.1287384033203125,-0.0578765869140625
-2.188232421875,0.033355712890625,-0.0528564453125
-1.3897247314453125,-0.0135650634765625,-0.1712188720703125
-0.956024169921875,-0.1204376220703125,-0.2469940185546875
-0.85882568359375,-0.2206878662109375,-0.237396240234375
-0.8958892822265625,-0.36126708984375,-0.11932373046875
-0.94195556640625,-0.4788360595703125,-0.049468994140625
-1.0172882080078125,-0.5421600341796875,-0.044830322265625
-1.0981597900390625,-0.495513916015625,-0.1327667236328125
-1.2608795166015625,-0.4279327392578125,-0.272430419921875
-1.544403076171875,-0.4062347412109375,-0.1779327392578125
-2.2376251220703125,-0.3649749755859375,0.0929718017578125
-2.59356689453125,-0.1467742919921875,0.8239288330078125
-2.3377685546875,0.1009368896484375,1.1659088134765625
-1.9517974853515625,0.3492889404296875,0.87225341796875
-1.421417236328125,0.5278472900390625,0.395263671875
-0.837310791015625,0.53619384765625,0.1451568603515625
-0.4150238037109375,0.4895172119140625,0.0741424560546875
-0.101959228515625,0.4330291748046875,0.025299072265625
0.1361541748046875,0.3028411865234375,-0.0115814208984375
0.2352294921875,0.247955322265625,-0.0159454345703125
0.1578521728515625,0.3336944580078125,0.0020751953125
-0.1831207275390625,0.5276947021484375,0.0645294189453125
-0.8137054443359375,0.9724884033203124,0.3416290283203125
-1.4090728759765625,0.8478240966796875,0.6388702392578125
-2.166610717773437,0.6969146728515625,1.3541412353515625
-2.46929931640625,0.3256378173828125,1.455596923828125
-2.066558837890625,0.096588134765625,1.0952301025390625
-1.8238677978515625,-0.0595550537109375,0.7824554443359375
-1.512603759765625,-0.146728515625,0.5070037841796875
-1.25018310546875,-0.311492919921875,0.398773193359375
-1.0490264892578125,-0.409881591796875,0.2969512939453125
-1.1070098876953125,-0.593994140625,0.343475341796875
-1.0290374755859375,-0.6393890380859375,0.4665374755859375
-0.9532470703125,-0.6458740234375,0.4224395751953125
-1.02520751953125,-0.6110382080078125,0.43084716796875
-1.2557830810546875,-0.5454864501953125,0.3954010009765625
-1.6067657470703125,-0.47210693359375,0.3618621826171875
-2.025390625,-0.3007965087890625,0.3003997802734375
-3.031982421875,0.1748504638671875,0.4834136962890625
-2.812042236328125,0.8200225830078125,0.4798431396484375
-2.3121337890625,0.734649658203125,0.4207305908203125
-1.82415771484375,0.6909332275390625,0.349700927734375
-1.2171630859375,0.638397216796875,0.182647705078125
-0.7022247314453125,0.5605010986328125,0.0409393310546875
-0.4743804931640625,0.444610595703125,-0.0415496826171875
-0.3076171875,0.30499267578125,0.0259552001953125
-0.205780029296875,0.207855224609375,0.0807952880859375
-0.1556396484375,0.171783447265625,-0.0148162841796875
-0.18524169921875,0.1806488037109375,-0.0069732666015625
-0.279876708984375,0.209442138671875,-0.0015106201171875
-0.5928192138671875,0.2523956298828125,0.2215118408203125
-0.9057769775390624,0.164703369140625,0.3568115234375
-1.3930816650390625,0.008941650390625,0.784637451171875
-1.7122039794921875,0.1471405029296875,0.7847747802734375
-1.9629058837890625,0.062530517578125,0.700347900390625
-1.7393035888671875,0.058319091796875,0.5046234130859375
-1.6238861083984375,-0.043121337890625,0.2592620849609375
-1.43084716796875,-0.131439208984375,0.1573333740234375
-1.449859619140625,-0.3535614013671875,0.0746917724609375
-1.35400390625,-0.50604248046875,0.0291595458984375
-1.3253326416015625,-0.630279541015625,0.0029754638671875
-1.31756591796875,-0.5741424560546875,-0.0149078369140625
-1.5829925537109375,-0.388702392578125,0.0914306640625
-2.108016967773437,-0.04180908203125,0.3073272705078125
-2.2567901611328125,0.106689453125,0.3383331298828125
-1.79498291015625,0.3970184326171875,0.3282470703125
-1.8257904052734373,0.436492919921875,0.2938995361328125
-1.77069091796875,0.2992401123046875,0.3203125
-1.445343017578125,0.3478240966796875,0.2327880859375
-0.9955291748046876,0.374420166015625,0.142120361328125
-0.7667694091796875,0.3229827880859375,0.0526275634765625
-0.6798248291015625,0.4556732177734375,0.0605621337890625
-0.573455810546875,0.53955078125,0.0806884765625
-0.32427978515625,0.4422607421875,0.0008087158203125
-0.1831817626953125,0.31591796875,-0.0767059326171875
-0.1297607421875,0.2550048828125,-0.0725555419921875
-0.4147796630859375,0.27789306640625,0.1424560546875
-1.0723114013671875,-0.003387451171875,0.3458404541015625
-1.807525634765625,0.0115814208984375,0.5467529296875
-1.86541748046875,0.1141510009765625,0.6367950439453125
-1.7627716064453125,0.205352783203125,0.4676513671875
-1.589263916015625,0.10198974609375,0.210693359375
-1.34014892578125,-0.008026123046875,0.0157318115234375
-1.0911102294921875,-0.2154541015625,0.0134735107421875
-0.93292236328125,-0.3826141357421875,0.0211639404296875
-0.9788665771484376,-0.418609619140625,0.0136871337890625
-1.21160888671875,-0.47650146484375,0.1050567626953125
-1.3954010009765625,-0.37249755859375,0.077301025390625
-1.59991455078125,-0.1923065185546875,0.0784759521484375
-1.76788330078125,0.0587615966796875,0.2755126953125
-2.17596435546875,0.3082122802734375,0.5185546875
-2.102081298828125,0.5140380859375,0.6233673095703125
-1.8874359130859373,0.8260498046875,0.6089630126953125
-1.3651123046875,0.540740966796875,0.3883056640625
-0.969329833984375,0.34613037109375,0.272308349609375
-0.6996612548828125,0.322357177734375,0.2538299560546875
-0.3970794677734375,0.2883453369140625,0.2193145751953125
-0.229339599609375,0.3252410888671875,0.1811370849609375
-0.1236572265625,0.351654052734375,0.1085662841796875
-0.038543701171875,0.267578125,0.0269317626953125
-0.1317596435546875,0.287384033203125,0.013916015625
-0.353607177734375,0.2636566162109375,0.0393829345703125
-0.8508148193359375,0.2737274169921875,0.192047119140625
-1.4048614501953125,0.2752227783203125,0.53521728515625
-1.87542724609375,0.2689971923828125,0.4869842529296875
-2.038116455078125,0.477203369140625,0.6122283935546875
-1.63970947265625,0.629364013671875,0.28369140625
-1.3691253662109375,0.3860626220703125,0.113739013671875
-1.599853515625,0.22137451171875,0.1630706787109375
-1.5633392333984375,-0.02484130859375,0.2346343994140625
-1.198486328125,-0.01666259765625,-0.212066650390625
-1.223052978515625,-0.3089447021484375,-0.3814544677734375
-1.3560791015625,-0.7185516357421875,-0.2649078369140625
-1.4342193603515625,-1.00048828125,-0.0091094970703125
-1.4933013916015625,-0.993804931640625,0.07037353515625
-1.7615509033203125,-0.749298095703125,0.1036376953125
-2.030242919921875,-0.4625701904296875,0.2745513916015625
-2.0242919921875,-0.1569976806640625,0.389495849609375
-2.292266845703125,0.0841217041015625,0.4207611083984375
-2.2949676513671875,0.3848876953125,0.278656005859375
-1.835479736328125,0.5493927001953125,0.2192230224609375
-1.1719207763671875,0.4611663818359375,0.2200927734375
-0.6806640625,0.3896331787109375,0.227874755859375
-0.2672576904296875,0.3055267333984375,0.04168701171875
-0.064361572265625,0.33349609375,-0.05908203125
0.039703369140625,0.2648773193359375,-0.05474853515625
0.05072021484375,0.2526397705078125,-0.021026611328125
0.0096893310546875,0.2449188232421875,0.0190277099609375
-0.2378387451171875,0.3664703369140625,0.0940093994140625
-0.8228759765625,0.5522918701171875,0.2914276123046875
-1.7926025390625,0.641387939453125,0.550567626953125
-2.5418243408203125,0.2963409423828125,0.840484619140625
-2.388916015625,0.159912109375,0.7955169677734375
-2.076889038085937,-0.155029296875,0.6881103515625
-1.758209228515625,-0.19537353515625,0.5484619140625
-1.4759063720703125,-0.5062408447265625,0.4347381591796875
-1.1604766845703125,-0.6279296875,0.3347625732421875
-1.0337066650390625,-0.691680908203125,0.121795654296875
-1.0797576904296875,-0.71258544921875,0.1223907470703125
-1.087554931640625,-0.6599273681640625,0.2019805908203125
-1.1711273193359375,-0.546295166015625,0.2572174072265625
-1.344970703125,-0.375457763671875,0.1756591796875
-1.6213531494140625,-0.1261138916015625,0.0747222900390625
-2.0907135009765625,0.1892242431640625,-0.0440673828125
-2.352508544921875,0.5723114013671875,-0.0128173828125
-2.110687255859375,0.556182861328125,0.1508331298828125
-1.828338623046875,0.6553955078125,0.4256439208984375
-1.3273162841796875,0.5059661865234375,0.395965576171875
-0.9437408447265624,0.589263916015625,0.2630615234375
-0.49151611328125,0.5693511962890625,0.185028076171875
-0.2031402587890625,0.4709625244140625,0.1486053466796875
-0.0666351318359375,0.3560333251953125,0.1623382568359375
0.0395660400390625,0.2326507568359375,0.1720123291015625
-0.0384521484375,0.262115478515625,0.1602020263671875
-0.3700103759765625,0.340728759765625,0.148406982421875
-0.9050140380859376,0.384765625,0.35443115234375
-1.4575653076171875,0.5268402099609375,0.332611083984375
-2.165374755859375,0.65045166015625,0.2997589111328125
-2.502349853515625,0.4507598876953125,0.4617919921875
-2.25604248046875,0.1907958984375,0.388153076171875
-1.771820068359375,-0.047271728515625,0.2146148681640625
-1.1636810302734375,-0.2959136962890625,0.0948028564453125
-0.925079345703125,-0.529876708984375,0.0476531982421875
-0.846282958984375,-0.71795654296875,-0.05096435546875
-0.919677734375,-0.845062255859375,-0.0535736083984375
-1.1522979736328125,-0.7885284423828125,-0.0279541015625
-1.4099884033203125,-0.564453125,-0.02532958984375
-1.896331787109375,-0.28240966796875,-0.0028076171875
-2.1685333251953125,0.046356201171875,-0.0233154296875
-2.240325927734375,0.29254150390625,0.0771942138671875
-1.8531951904296875,0.4097137451171875,-0.0758514404296875
-1.9942474365234373,0.29656982421875,0.0771942138671875
-1.9605255126953125,0.159271240234375,0.449005126953125
-1.46917724609375,0.022216796875,0.2896270751953125
-1.110198974609375,0.0986328125,0.24853515625
-0.725860595703125,0.2901763916015625,0.1324462890625
-0.46539306640625,0.3486785888671875,0.0328826904296875
-0.2725677490234375,0.4327239990234375,-0.040130615234375
-0.1956329345703125,0.3608551025390625,-0.02313232421875
-0.1250152587890625,0.3366546630859375,0.0164031982421875
-0.235015869140625,0.3031463623046875,-0.0150146484375
-0.825775146484375,0.409820556640625,0.1558380126953125
-1.6198272705078125,0.6303558349609375,-0.092041015625
-2.4752349853515625,0.407012939453125,0.0727081298828125
-2.4276123046875,-0.10626220703125,0.1197509765625
-2.0356903076171875,-0.390472412109375,0.30621337890625
-1.650115966796875,-0.515167236328125,0.1141815185546875
-1.283721923828125,-0.4682769775390625,-0.0278472900390625
-0.90447998046875,-0.533782958984375,-0.1185760498046875
-0.8492279052734375,-0.6777801513671875,-0.0220184326171875
-0.867706298828125,-0.83648681640625,0.0312652587890625
-1.21075439453125,-0.7436065673828125,-0.025665283203125
-1.570648193359375,-0.51300048828125,0.0045166015625
-1.834686279296875,-0.3438720703125,0.13470458984375
-2.116455078125,-0.2234649658203125,0.2487640380859375
-2.0196075439453125,0.0520782470703125,0.4716644287109375
-2.1629638671875,0.306121826171875,0.5465545654296875
-2.022247314453125,0.3405914306640625,0.5555419921875
-1.8350067138671875,0.478546142578125,0.5437469482421875
-1.2879791259765625,0.5528411865234375,0.5093994140625
-0.5953826904296875,0.45672607421875,0.2667236328125
-0.2132568359375,0.3319244384765625,0.06536865234375
-0.096649169921875,0.3061065673828125,-0.045562744140625
0.01300048828125,0.2816314697265625,-0.1332855224609375
0.1631622314453125,0.2044219970703125,-0.1214141845703125
0.160308837890625,0.212249755859375,-0.07373046875
-0.0634613037109375,0.2520599365234375,-0.0552978515625
-0.7480926513671875,0.60833740234375,0.2349090576171875
-1.8273773193359373,0.83099365234375,0.260009765625
-2.4154205322265625,0.5813140869140625,0.7313079833984375
-2.3016510009765625,0.4764556884765625,0.559173583984375
-2.180404663085937,0.0839385986328125,0.5406341552734375
-1.9217681884765625,-0.275665283203125,0.39697265625
-1.4967193603515625,-0.48089599609375,0.3021087646484375
-1.2610626220703125,-0.591522216796875,0.1848602294921875
-1.2152862548828125,-0.6660614013671875,0.0949249267578125
-1.1560516357421875,-0.740570068359375,0.1446075439453125
-1.0738372802734375,-0.7123565673828125,0.1197052001953125
-1.194427490234375,-0.639007568359375,0.156005859375
-1.3022613525390625,-0.5436248779296875,0.3326873779296875
-1.278778076171875,-0.354217529296875,0.4939422607421875
-1.8000335693359375,-0.0422515869140625,0.7961273193359375
-1.9162139892578125,0.0477447509765625,0.87493896484375
-1.82159423828125,0.2267303466796875,0.734588623046875
-2.024383544921875,0.2626190185546875,0.904266357421875
-1.58245849609375,0.352691650390625,0.761932373046875
-1.0504608154296875,0.4424591064453125,0.48175048828125
-0.571319580078125,0.4134521484375,0.1892242431640625
-0.2193756103515625,0.379974365234375,0.07513427734375
-0.0319366455078125,0.3064422607421875,0.018585205078125
0.022064208984375,0.26202392578125,0.045318603515625
0.0484161376953125,0.1920928955078125,0.07257080078125
-0.1499786376953125,0.1738128662109375,0.1401519775390625
-0.598785400390625,0.1763153076171875,0.2927703857421875
-1.1427764892578125,0.2855682373046875,0.4933624267578125
-1.5692596435546875,0.13970947265625,0.7376861572265625
-1.755218505859375,-0.198699951171875,0.9481658935546876
-1.646453857421875,-0.191192626953125,0.8078155517578125
-1.457550048828125,-0.1626129150390625,0.5492401123046875
-1.4222412109375,-0.2373046875,0.4918975830078125
-1.2691192626953125,-0.3636627197265625,0.422454833984375
-1.0430908203125,-0.41937255859375,0.31744384765625
-0.951446533203125,-0.4640655517578125,0.282318115234375
-0.95770263671875,-0.571990966796875,0.2965087890625
-1.0577239990234375,-0.6204833984375,0.3309478759765625
-1.27880859375,-0.6764984130859375,0.3350372314453125
-1.5570831298828125,-0.4327545166015625,0.139404296875
-1.4824371337890625,-0.385528564453125,0.0234375
-1.461029052734375,-0.198150634765625,0.0415496826171875
-1.244049072265625,-0.1430816650390625,-0.0465087890625
-0.954132080078125,0.073883056640625,-0.2753143310546875
-0.52911376953125,0.091949462890625,-0.114959716796875
0.070159912109375,0.0361175537109375,-0.024322509765625
0.096405029296875,0.0238494873046875,0.00079345703125
0.097686767578125,0.019439697265625,-0.0031890869140625
0.1043701171875,0.014892578125,-0.0089263916015625
0.1107940673828125,0.00677490234375,-0.0208740234375
0.112457275390625,-0.0006561279296875,-0.034088134765625
0.1097869873046875,-0.00958251953125,-0.0472564697265625
0.1024322509765625,-0.0161285400390625,-0.0542144775390625
0.096160888671875,-0.01947021484375,-0.0526580810546875
0.08917236328125,-0.020721435546875,-0.0376129150390625
4.502243041992188,2.4522857666015625,-4.286788940429688
5.6674346923828125,0.6021270751953125,-3.7869873046875
-1.0819854736328125,0.089324951171875,-0.3550262451171875
-0.05596923828125,0.199066162109375,-0.035064697265625
0.0144195556640625,0.0683441162109375,-0.3909454345703125
0.2769317626953125,-0.5470428466796875,-1.2618255615234375
0.400421142578125,-0.381011962890625,-1.124755859375
0.05096435546875,-0.0700836181640625,-0.92364501953125
0.03546142578125,-0.0071868896484375,-1.0177154541015625
0.1378631591796875,-0.1298828125,-0.9764862060546876
0.0662841796875,-0.1243438720703125,-0.98773193359375
0.1205291748046875,-0.1195831298828125,-1.003631591796875
0.0792694091796875,-0.065338134765625,-1.0076751708984375
0.1115264892578125,-0.1474761962890625,-1.0095977783203125
0.079925537109375,-0.102783203125,-0.9708709716796876
0.1219940185546875,-0.08856201171875,-1.0247802734375
0.0971221923828125,-0.1064605712890625,-0.9816741943359376
0.0965118408203125,-0.1086273193359375,-0.9977874755859376
0.09320068359375,-0.1141204833984375,-0.9401092529296876
0.102142333984375,-0.11541748046875,-1.040771484375
0.1341705322265625,-0.096099853515625,-1.0087432861328125
0.110748291015625,-0.1290283203125,-0.9730224609375
0.084869384765625,-0.1083526611328125,-1.0049896240234375
0.1240234375,-0.1102142333984375,-0.983184814453125
0.1035614013671875,-0.1038055419921875,-0.9886322021484376
0.1044158935546875,-0.1229400634765625,-0.985015869140625
0.127410888671875,-0.098480224609375,-1.0006103515625
0.1013031005859375,-0.1085357666015625,-0.964141845703125
0.1377105712890625,-0.12103271484375,-0.9951171875
0.093017578125,-0.1406402587890625,-0.92681884765625
0.1505126953125,-0.1577606201171875,-1.02069091796875
0.1634063720703125,-0.1521148681640625,-1.0585784912109375
0.1201629638671875,-0.14752197265625,-0.9203948974609376
0.13507080078125,-0.144989013671875,-0.9944305419921876
0.1345672607421875,-0.1330413818359375,-0.99871826171875
0.13897705078125,-0.12847900390625,-0.995208740234375
0.11810302734375,-0.14007568359375,-0.9841461181640624
0.115814208984375,-0.1273345947265625,-0.9760894775390624
0.1221466064453125,-0.1257171630859375,-0.98828125
0.1156158447265625,-0.1309814453125,-0.98858642578125
0.1201629638671875,-0.1258697509765625,-0.9906463623046876
0.1168060302734375,-0.12811279296875,-0.9913330078125
0.1163482666015625,-0.1242828369140625,-0.983123779296875
0.1205902099609375,-0.1308746337890625,-0.997833251953125
0.11785888671875,-0.126068115234375,-0.98834228515625
0.121063232421875,-0.129364013671875,-0.9886474609375
0.1196746826171875,-0.1281585693359375,-0.9921112060546876
0.1289825439453125,-0.10906982421875,-0.96221923828125
0.1133880615234375,-0.1508331298828125,-1.0656280517578125
0.1057281494140625,-0.147125244140625,-0.9996337890625
