AccelerationX,AccelerationY,AccelerationZ
0.1397552490234375,-0.2386016845703125,-0.8935699462890625
0.1550445556640625,-0.2822113037109375,-0.799591064453125
0.1795501708984375,-0.3007354736328125,-0.802978515625
0.1362152099609375,-0.243438720703125,-0.847259521484375
0.10595703125,-0.2303314208984375,-0.910125732421875
0.0859527587890625,-0.2250518798828125,-0.8524627685546875
0.0379486083984375,-0.1793060302734375,-0.8669281005859375
0.0595855712890625,-0.13043212890625,-0.8475799560546875
0.0976104736328125,-0.1063385009765625,-0.806549072265625
0.2572174072265625,-0.167205810546875,-0.9102325439453124
0.3193511962890625,-0.18536376953125,-0.8436431884765625
0.3775177001953125,-0.144378662109375,-0.9139862060546876
0.4196929931640625,-0.04803466796875,-0.9648284912109376
0.48443603515625,-0.048065185546875,-0.920989990234375
0.73443603515625,0.0675506591796875,-0.935516357421875
0.703857421875,-0.080291748046875,-1.0865936279296875
0.672027587890625,-0.0367431640625,-0.93902587890625
0.6320953369140625,-0.0693206787109375,-0.8139801025390625
0.6251373291015625,-0.1073455810546875,-0.8519287109375
0.56036376953125,-0.12518310546875,-0.7857208251953125
0.5579833984375,-0.099212646484375,-0.76611328125
0.6422576904296875,-0.1027374267578125,-0.749786376953125
0.526458740234375,-0.0459442138671875,-0.7184906005859375
0.603668212890625,-0.072509765625,-0.6704864501953125
0.6204681396484375,0.0163726806640625,-0.6627960205078125
0.6741943359375,-0.0387115478515625,-0.6993408203125
0.680419921875,-0.069183349609375,-0.7715911865234375
0.6896820068359375,0.0468597412109375,-0.711669921875
0.6141510009765625,-0.010162353515625,-0.845489501953125
0.5760650634765625,-0.0058746337890625,-0.82537841796875
0.437042236328125,0.131744384765625,-0.8744659423828125
0.3996124267578125,0.258148193359375,-0.8115081787109375
0.3166961669921875,0.173858642578125,-0.7760772705078125
0.3272552490234375,0.172576904296875,-0.841461181640625
0.2724761962890625,0.181793212890625,-0.939361572265625
0.3948516845703125,0.3577728271484375,-1.1874237060546875
0.35302734375,0.30792236328125,-1.1645355224609375
0.2805633544921875,0.2979736328125,-1.1706085205078125
0.2961273193359375,0.308380126953125,-1.0101470947265625
0.3286285400390625,0.339691162109375,-0.9504852294921876
0.300048828125,0.415802001953125,-0.9001617431640625
0.3584136962890625,0.4616546630859375,-0.9432220458984376
0.442535400390625,0.5455780029296875,-0.9632720947265624
0.536346435546875,0.4787445068359375,-0.90948486328125
0.5912933349609375,0.3979339599609375,-0.8269195556640625
0.600494384765625,0.4124908447265625,-0.828125
0.63958740234375,0.4018096923828125,-0.83978271484375
0.6717529296875,0.4179534912109375,-0.8278350830078125
0.6971282958984375,0.4066925048828125,-0.7579345703125
0.795257568359375,0.45672607421875,-0.832427978515625
0.785125732421875,0.52178955078125,-0.7814178466796875
0.7529144287109375,0.47332763671875,-0.653472900390625
0.6439056396484375,0.4461822509765625,-0.629058837890625
0.5467681884765625,0.384765625,-0.6278533935546875
0.4638824462890625,0.2624053955078125,-0.66033935546875
0.375457763671875,0.2697906494140625,-0.7527618408203125
0.3910980224609375,0.3732147216796875,-0.8226776123046875
0.44207763671875,0.3967437744140625,-0.826812744140625
0.4604644775390625,0.356109619140625,-0.774078369140625
0.495208740234375,0.2680206298828125,-0.7908782958984375
0.494293212890625,0.22393798828125,-0.9544525146484376
0.4539794921875,0.3014984130859375,-0.936187744140625
0.47052001953125,0.2950897216796875,-0.8898468017578125
0.44061279296875,0.2560882568359375,-0.887481689453125
0.3926239013671875,0.17877197265625,-0.926116943359375
0.36865234375,0.1653594970703125,-0.9954071044921876
0.3540802001953125,0.1727447509765625,-1.0212249755859375
0.3697357177734375,0.1634521484375,-1.0194091796875
0.378143310546875,0.1723480224609375,-1.0219879150390625
0.3906097412109375,0.2682342529296875,-1.109039306640625
0.3053131103515625,0.2604827880859375,-1.0936737060546875
0.3020782470703125,0.274505615234375,-1.0916290283203125
0.3115234375,0.3479156494140625,-1.0727691650390625
0.2791900634765625,0.288482666015625,-0.99322509765625
0.22265625,0.23101806640625,-0.9584808349609376
0.138702392578125,0.38226318359375,-1.0457000732421875
0.3034210205078125,0.429840087890625,-1.0939483642578125
0.3543243408203125,0.5999298095703125,-1.0391082763671875
0.308624267578125,0.5655670166015625,-0.94781494140625
0.2644500732421875,0.445709228515625,-0.84429931640625
0.2206878662109375,0.458343505859375,-0.8095703125
0.189727783203125,0.475830078125,-0.7793121337890625
0.180572509765625,0.4404449462890625,-0.7050323486328125
0.0778045654296875,0.5211181640625,-0.6692657470703125
0.1483917236328125,0.4146270751953125,-0.6131439208984375
0.1118927001953125,0.5017547607421875,-0.639007568359375
0.104888916015625,0.519073486328125,-0.6822357177734375
0.132415771484375,0.5091400146484375,-0.7928619384765625
0.146087646484375,0.6479339599609375,-0.957611083984375
0.23809814453125,0.700042724609375,-1.0899505615234375
0.3830413818359375,0.894134521484375,-1.3341064453125
0.3779144287109375,0.6518707275390625,-1.106536865234375
0.400482177734375,0.4628143310546875,-1.108154296875
0.2986297607421875,0.47357177734375,-1.1311187744140625
0.278472900390625,0.2877197265625,-0.98193359375
0.254974365234375,0.1444549560546875,-0.813385009765625
0.2373809814453125,0.1797943115234375,-0.7999420166015625
0.2493133544921875,0.3982391357421875,-0.906005859375
0.240081787109375,0.5555267333984375,-0.9510955810546876
0.268890380859375,0.4730377197265625,-0.9095611572265624
0.243316650390625,0.43017578125,-0.9074859619140624
0.2172698974609375,0.4644622802734375,-0.909454345703125
0.230072021484375,0.517669677734375,-0.9185791015625
0.26409912109375,0.5289306640625,-0.8769073486328125
0.2686767578125,0.536865234375,-0.84930419921875
0.2476806640625,0.5284271240234375,-0.83599853515625
0.251068115234375,0.515625,-0.8263397216796875
0.2448577880859375,0.4989471435546875,-0.81005859375
0.2436676025390625,0.46917724609375,-0.813934326171875
0.255950927734375,0.4919891357421875,-0.8563385009765625
0.3042144775390625,0.64300537109375,-0.964569091796875
0.30084228515625,0.606353759765625,-0.8582305908203125
0.268310546875,0.493316650390625,-0.768463134765625
0.2100067138671875,0.5360565185546875,-0.8455657958984375
0.2168731689453125,0.535491943359375,-0.8418426513671875
0.2653961181640625,0.44830322265625,-0.74017333984375
0.2973785400390625,0.4105377197265625,-0.705810546875
0.3351593017578125,0.4376373291015625,-0.7627410888671875
0.3543701171875,0.524688720703125,-0.864105224609375
0.358551025390625,0.5170440673828125,-0.9054718017578124
0.3440704345703125,0.4403228759765625,-0.95062255859375
0.391815185546875,0.3382415771484375,-0.97576904296875
0.438507080078125,0.302459716796875,-0.96917724609375
0.48431396484375,0.300323486328125,-0.952911376953125
0.540557861328125,0.303680419921875,-0.9214324951171876
0.550567626953125,0.3329315185546875,-0.888275146484375
0.5354766845703125,0.388641357421875,-0.891387939453125
0.5109710693359375,0.4134063720703125,-0.85760498046875
0.48828125,0.4286041259765625,-0.8206787109375
0.4761962890625,0.4555511474609375,-0.8126220703125
0.4675750732421875,0.4601287841796875,-0.819488525390625
0.452239990234375,0.4751739501953125,-0.879150390625
0.4561309814453125,0.47308349609375,-0.913848876953125
0.4508209228515625,0.4191436767578125,-0.846099853515625
0.383880615234375,0.3635101318359375,-0.8038787841796875
0.29437255859375,0.3187713623046875,-0.851959228515625
0.19427490234375,0.3778076171875,-0.981353759765625
0.1821746826171875,0.4581146240234375,-0.964447021484375
0.2202911376953125,0.4481353759765625,-0.8225555419921875
0.250701904296875,0.4333038330078125,-0.76934814453125
0.23699951171875,0.3649139404296875,-0.7581024169921875
0.229827880859375,0.331573486328125,-0.7961273193359375
0.2416229248046875,0.3560638427734375,-0.8699188232421875
0.285980224609375,0.3686676025390625,-0.9097900390625
0.3317413330078125,0.341705322265625,-0.953277587890625
0.3564910888671875,0.31427001953125,-0.9870147705078124
0.348419189453125,0.2957916259765625,-1.0087890625
0.333038330078125,0.2739410400390625,-1.0008087158203125
0.3311614990234375,0.2360382080078125,-0.9414825439453124
0.3407440185546875,0.2473297119140625,-0.91558837890625
0.3622894287109375,0.2865142822265625,-0.9313201904296876
0.3881072998046875,0.3154144287109375,-0.9781646728515624
0.451141357421875,0.3542633056640625,-1.0823974609375
0.511138916015625,0.4134674072265625,-1.114501953125
0.4971771240234375,0.243804931640625,-0.9718017578125
0.50872802734375,0.21795654296875,-0.9585418701171876
0.4218902587890625,0.2408294677734375,-0.8447265625
0.373504638671875,0.204010009765625,-0.770965576171875
0.413909912109375,0.328033447265625,-0.9173431396484376
0.5088958740234375,0.507537841796875,-1.04095458984375
0.588592529296875,0.5286102294921875,-1.0692291259765625
0.6032867431640625,0.45166015625,-0.9441070556640624
0.536407470703125,0.368896484375,-0.8193817138671875
0.450408935546875,0.3945770263671875,-0.8166046142578125
0.4163970947265625,0.426025390625,-0.83551025390625
0.440704345703125,0.4535064697265625,-0.836456298828125
0.4388580322265625,0.469635009765625,-0.775909423828125
0.388763427734375,0.4296722412109375,-0.6779937744140625
0.33587646484375,0.3769989013671875,-0.6451263427734375
0.3052825927734375,0.3423309326171875,-0.6681671142578125
0.2996368408203125,0.3787078857421875,-0.7689666748046875
0.3095550537109375,0.39349365234375,-0.8225250244140625
0.3414459228515625,0.42572021484375,-0.943145751953125
0.351654052734375,0.516571044921875,-1.0258636474609375
0.34625244140625,0.462188720703125,-0.9787445068359376
0.3174896240234375,0.372283935546875,-0.9321746826171876
0.2578277587890625,0.2247314453125,-0.8561859130859375
0.2813873291015625,0.1599578857421875,-0.9029998779296876
0.3432159423828125,0.253143310546875,-1.00775146484375
0.3931732177734375,0.4033203125,-1.0517730712890625
0.384185791015625,0.3683929443359375,-0.98193359375
0.3278961181640625,0.2553558349609375,-0.9180755615234376
0.26025390625,0.2175140380859375,-0.935089111328125
0.2330322265625,0.2573089599609375,-0.980560302734375
0.302337646484375,0.2725372314453125,-0.9725189208984376
0.3648681640625,0.264373779296875,-0.9196014404296876
0.3867950439453125,0.25848388671875,-0.8931121826171875
0.40777587890625,0.274688720703125,-0.9086151123046876
0.4534454345703125,0.3612213134765625,-1.00982666015625
0.4818572998046875,0.371917724609375,-0.9722747802734376
0.47711181640625,0.3392181396484375,-0.84063720703125
0.4673919677734375,0.3506622314453125,-0.77783203125
0.4715118408203125,0.4080657958984375,-0.8043975830078125
0.5352325439453125,0.439971923828125,-0.78826904296875
0.587738037109375,0.46209716796875,-0.76495361328125
0.5875396728515625,0.489105224609375,-0.7808837890625
0.5886993408203125,0.44940185546875,-0.780487060546875
0.609130859375,0.406341552734375,-0.7884063720703125
0.5989532470703125,0.404937744140625,-0.79034423828125
0.6030426025390625,0.4589691162109375,-0.805816650390625
0.6311798095703125,0.474639892578125,-0.7638092041015625
0.6328582763671875,0.4549713134765625,-0.71746826171875
0.6011505126953125,0.460723876953125,-0.7368621826171875
0.572113037109375,0.4410400390625,-0.7755889892578125
0.5403594970703125,0.4148101806640625,-0.791473388671875
0.5139312744140625,0.4248046875,-0.80938720703125
0.46966552734375,0.4358673095703125,-0.820526123046875
0.4353790283203125,0.4247894287109375,-0.8258819580078125
0.39111328125,0.392425537109375,-0.8404693603515625
0.3786773681640625,0.3325653076171875,-0.8417510986328125
0.3261566162109375,0.3184967041015625,-0.92376708984375
0.3412017822265625,0.25982666015625,-0.9716339111328124
0.3747711181640625,0.26763916015625,-1.0249481201171875
0.416900634765625,0.394134521484375,-1.0778961181640625
0.4198760986328125,0.299285888671875,-0.944366455078125
0.3615875244140625,0.3016815185546875,-0.9333343505859376
0.2978973388671875,0.2852325439453125,-0.90740966796875
0.2490234375,0.2191314697265625,-0.8593902587890625
0.2493133544921875,0.178924560546875,-0.8172760009765625
0.2890625,0.2540283203125,-0.8243255615234375
0.3432159423828125,0.3764801025390625,-0.8675537109375
0.3658905029296875,0.413726806640625,-0.890869140625
0.3247528076171875,0.3590850830078125,-0.856903076171875
0.2667694091796875,0.287872314453125,-0.824371337890625
0.245574951171875,0.2968902587890625,-0.8288726806640625
0.276214599609375,0.3259429931640625,-0.8404693603515625
0.3189697265625,0.3416748046875,-0.8484039306640625
0.3371429443359375,0.33331298828125,-0.8471221923828125
0.3220977783203125,0.28570556640625,-0.8704376220703125
0.311859130859375,0.263885498046875,-0.9068603515625
0.322967529296875,0.24908447265625,-0.9060211181640624
0.357086181640625,0.277984619140625,-0.9439239501953124
0.378326416015625,0.31756591796875,-0.9996490478515624
0.3998870849609375,0.29498291015625,-1.0242919921875
0.4720916748046875,0.4091796875,-1.236114501953125
0.475494384765625,0.27642822265625,-1.0160369873046875
0.518768310546875,0.232421875,-1.0299072265625
0.4847869873046875,0.271240234375,-0.962646484375
0.438720703125,0.207122802734375,-0.8110198974609375
0.398468017578125,0.25030517578125,-0.755157470703125
0.456512451171875,0.3832855224609375,-0.7706146240234375
0.5403900146484375,0.5109710693359375,-0.81524658203125
0.6033477783203125,0.5226287841796875,-0.7813873291015625
0.6118316650390625,0.455657958984375,-0.80487060546875
0.5843048095703125,0.39117431640625,-0.8145294189453125
0.582550048828125,0.34466552734375,-0.787872314453125
0.546234130859375,0.4158782958984375,-0.838623046875
0.55267333984375,0.514312744140625,-0.86248779296875
0.5565643310546875,0.513916015625,-0.7906341552734375
0.503265380859375,0.4815673828125,-0.75164794921875
0.4364776611328125,0.4202728271484375,-0.755523681640625
0.3809356689453125,0.38592529296875,-0.749725341796875
0.3583221435546875,0.3577728271484375,-0.7607421875
0.350311279296875,0.3693084716796875,-0.7809600830078125
0.3406982421875,0.3936920166015625,-0.80419921875
0.3409423828125,0.4124908447265625,-0.86865234375
0.38232421875,0.4700775146484375,-0.9882049560546876
0.4057159423828125,0.4366607666015625,-0.9412689208984376
0.3622589111328125,0.425994873046875,-0.9483642578125
0.3289947509765625,0.3683319091796875,-0.90045166015625
0.343963623046875,0.2970428466796875,-0.8222198486328125
0.3390960693359375,0.2160491943359375,-0.7771148681640625
0.3326873779296875,0.214019775390625,-0.845001220703125
0.4333343505859375,0.4113922119140625,-1.030120849609375
0.4599151611328125,0.4180450439453125,-1.043243408203125
0.502227783203125,0.30194091796875,-0.8750457763671875
0.410003662109375,0.2303314208984375,-0.87359619140625
0.317230224609375,0.224212646484375,-0.9224090576171876
0.34515380859375,0.2500457763671875,-0.9228668212890624
0.417938232421875,0.3137054443359375,-0.873992919921875
0.4292755126953125,0.32373046875,-0.834381103515625
0.399749755859375,0.296844482421875,-0.82647705078125
0.409332275390625,0.3113861083984375,-0.8334808349609375
0.4729156494140625,0.354034423828125,-0.83209228515625
0.538116455078125,0.3985443115234375,-0.8657073974609375
0.5712890625,0.405303955078125,-0.8493804931640625
0.56817626953125,0.366546630859375,-0.80029296875
0.5532684326171875,0.401031494140625,-0.7977142333984375
0.55499267578125,0.4228057861328125,-0.773651123046875
0.554901123046875,0.421356201171875,-0.7455596923828125
0.5660400390625,0.4530181884765625,-0.7544403076171875
0.5742645263671875,0.466064453125,-0.7601776123046875
0.6005096435546875,0.4675750732421875,-0.8098907470703125
0.6243133544921875,0.42547607421875,-0.84027099609375
0.630523681640625,0.3856964111328125,-0.8563079833984375
0.6103363037109375,0.3562469482421875,-0.795989990234375
0.5724334716796875,0.356414794921875,-0.7679595947265625
0.5250091552734375,0.3613433837890625,-0.8114776611328125
0.473236083984375,0.3530120849609375,-0.82305908203125
0.452911376953125,0.3443756103515625,-0.812744140625
0.42041015625,0.353271484375,-0.80181884765625
0.4203948974609375,0.3606109619140625,-0.791839599609375
0.4173736572265625,0.3694915771484375,-0.744659423828125
0.3864593505859375,0.3572235107421875,-0.749420166015625
0.39898681640625,0.453399658203125,-0.919097900390625
0.4197540283203125,0.5008087158203125,-0.9480743408203124
0.4318695068359375,0.3748779296875,-0.9655914306640624
0.35174560546875,0.362030029296875,-0.942108154296875
0.2932891845703125,0.3233489990234375,-0.8921051025390625
0.2596893310546875,0.2561798095703125,-0.839447021484375
0.245452880859375,0.3054656982421875,-0.846893310546875
0.25390625,0.4355621337890625,-0.8549652099609375
0.2603759765625,0.512237548828125,-0.86102294921875
0.29473876953125,0.4073028564453125,-0.8173980712890625
0.319793701171875,0.2943878173828125,-0.7883148193359375
0.3170318603515625,0.359405517578125,-0.80950927734375
0.36187744140625,0.3824310302734375,-0.845947265625
0.3975677490234375,0.3614349365234375,-0.869049072265625
0.40087890625,0.337890625,-0.8804168701171875
0.3809661865234375,0.306243896484375,-0.8973846435546875
0.364776611328125,0.2813262939453125,-0.9031219482421876
0.3612213134765625,0.2707672119140625,-0.9086761474609376
0.376190185546875,0.298797607421875,-0.943450927734375
0.4163360595703125,0.3298187255859375,-0.980926513671875
0.48455810546875,0.3774871826171875,-1.0937957763671875
0.522430419921875,0.43585205078125,-1.0781402587890625
0.5291595458984375,0.33819580078125,-1.07843017578125
0.4989471435546875,0.33721923828125,-1.020355224609375
0.3723297119140625,0.2158660888671875,-0.79461669921875
0.3121337890625,0.1396636962890625,-0.77069091796875
0.4152984619140625,0.357940673828125,-0.9732666015625
0.49688720703125,0.5826416015625,-1.0439910888671875
0.5618133544921875,0.538848876953125,-0.961822509765625
0.5261077880859375,0.387908935546875,-0.867950439453125
0.4529571533203125,0.3896331787109375,-0.868804931640625
0.441314697265625,0.4295501708984375,-0.8411407470703125
0.43182373046875,0.46795654296875,-0.838897705078125
0.4355010986328125,0.4618682861328125,-0.79571533203125
0.4194793701171875,0.4299163818359375,-0.7323760986328125
0.373809814453125,0.40252685546875,-0.7276611328125
0.3514404296875,0.3884429931640625,-0.71929931640625
0.3282012939453125,0.3662261962890625,-0.7093658447265625
0.3500518798828125,0.5020599365234375,-0.8950347900390625
0.3530426025390625,0.6305084228515625,-0.9935760498046876
0.2977294921875,0.3959808349609375,-0.75054931640625
0.2386322021484375,0.289520263671875,-0.792236328125
0.171661376953125,0.291168212890625,-0.9208526611328124
0.1656951904296875,0.2310028076171875,-0.9884185791015624
0.2043304443359375,0.185150146484375,-1.019775390625
0.3005828857421875,0.3544921875,-1.1494598388671875
0.3735809326171875,0.4073028564453125,-1.12420654296875
0.3398284912109375,0.258697509765625,-1.0267181396484375
0.255035400390625,0.2051849365234375,-0.9980010986328124
0.29132080078125,0.233734130859375,-0.9626617431640624
0.3730316162109375,0.2755889892578125,-0.9124755859375
0.4202728271484375,0.29541015625,-0.8794097900390625
0.4078521728515625,0.2891387939453125,-0.8395538330078125
0.3863067626953125,0.303924560546875,-0.837921142578125
0.404296875,0.3649749755859375,-0.8741912841796875
0.44903564453125,0.4408416748046875,-0.904937744140625
0.5255584716796875,0.495880126953125,-0.88665771484375
0.5424346923828125,0.4208221435546875,-0.7187652587890625
0.5315399169921875,0.436279296875,-0.6907958984375
0.583831787109375,0.476165771484375,-0.7249298095703125
0.6519775390625,0.5797271728515625,-0.784759521484375
0.6782684326171875,0.6246185302734375,-0.7965850830078125
0.706146240234375,0.5432586669921875,-0.7342529296875
0.6510772705078125,0.5111541748046875,-0.7371063232421875
0.556915283203125,0.4662017822265625,-0.733978271484375
0.5467376708984375,0.4391021728515625,-0.8135986328125
0.5451507568359375,0.4109344482421875,-0.8015289306640625
0.530059814453125,0.3835906982421875,-0.8212432861328125
0.5256805419921875,0.39324951171875,-0.8785400390625
0.4931182861328125,0.4244384765625,-0.9049530029296876
0.37725830078125,0.5394439697265625,-1.0300750732421875
0.3402099609375,0.5635986328125,-1.0132293701171875
0.2998199462890625,0.4732818603515625,-0.8508758544921875
0.1940460205078125,0.3459930419921875,-0.78765869140625
0.115142822265625,0.227203369140625,-0.864013671875
0.0806884765625,0.2682952880859375,-0.9540863037109376
0.122283935546875,0.3764495849609375,-0.9875640869140624
0.183807373046875,0.4896392822265625,-0.991790771484375
0.1610870361328125,0.5087432861328125,-0.87994384765625
0.135772705078125,0.37884521484375,-0.860015869140625
0.0978240966796875,0.316253662109375,-0.903564453125
0.116485595703125,0.314849853515625,-0.889801025390625
0.1678924560546875,0.3394622802734375,-0.89544677734375
0.2305145263671875,0.336273193359375,-0.855804443359375
0.2708892822265625,0.3279571533203125,-0.84906005859375
0.2835540771484375,0.279754638671875,-0.8499298095703125
0.2733154296875,0.2671966552734375,-0.855743408203125
0.266326904296875,0.288665771484375,-0.8809356689453125
0.3183746337890625,0.316802978515625,-0.896209716796875
0.3598480224609375,0.3313751220703125,-0.8983612060546875
0.39697265625,0.3165435791015625,-0.8833770751953125
0.4315643310546875,0.3133392333984375,-0.9485015869140624
0.4494171142578125,0.3931884765625,-1.029449462890625
0.4342193603515625,0.4178466796875,-0.991668701171875
0.37933349609375,0.3772125244140625,-0.9605560302734376
0.3650054931640625,0.2805633544921875,-0.91522216796875
0.3482208251953125,0.235321044921875,-0.8712005615234375
0.325897216796875,0.2646942138671875,-0.8812255859375
0.305206298828125,0.2419586181640625,-0.88824462890625
0.2839813232421875,0.327880859375,-0.96331787109375
0.2772674560546875,0.4304656982421875,-1.0143585205078125
0.3033599853515625,0.474700927734375,-0.956787109375
0.3110198974609375,0.417236328125,-0.86065673828125
0.2481231689453125,0.374755859375,-0.807952880859375
0.2094879150390625,0.3916168212890625,-0.841583251953125
0.2184906005859375,0.43060302734375,-0.851654052734375
0.27264404296875,0.460296630859375,-0.83709716796875
0.29986572265625,0.4520721435546875,-0.8194427490234375
0.344024658203125,0.39581298828125,-0.8384552001953125
0.3325958251953125,0.3844451904296875,-0.8734893798828125
0.338470458984375,0.3714447021484375,-0.8790435791015625
0.36883544921875,0.3253173828125,-0.8948974609375
0.366363525390625,0.2893218994140625,-0.937530517578125
0.3538665771484375,0.3023529052734375,-0.9025421142578124
0.410247802734375,0.251800537109375,-0.865264892578125
0.4698944091796875,0.0056915283203125,-0.9062957763671876
0.4259033203125,0.192169189453125,-1.16583251953125
0.5146484375,0.3634490966796875,-1.2423095703125
0.530426025390625,0.2058868408203125,-0.9609832763671876
0.418487548828125,0.034027099609375,-0.797637939453125
0.341766357421875,0.0299224853515625,-0.8671112060546875
0.3716583251953125,0.139312744140625,-0.9970245361328124
0.4178009033203125,0.2501068115234375,-0.91461181640625
0.469940185546875,0.2418212890625,-0.9099884033203124
0.415802001953125,0.2281036376953125,-0.9168701171875
0.34356689453125,0.2393951416015625,-0.9283905029296876
0.343170166015625,0.26812744140625,-0.921661376953125
0.380950927734375,0.303466796875,-0.8658294677734375
0.3916168212890625,0.280914306640625,-0.812255859375
0.3022918701171875,0.23602294921875,-0.7858123779296875
0.2742462158203125,0.3004608154296875,-0.80438232421875
0.2593841552734375,0.2381591796875,-0.8228302001953125
0.2095947265625,0.1656951904296875,-0.9136199951171876
0.22906494140625,0.1519012451171875,-0.9145355224609376
0.2914276123046875,0.04766845703125,-0.953857421875
0.3002166748046875,0.08538818359375,-0.9428863525390624
0.306732177734375,0.129302978515625,-0.9190826416015624
0.298187255859375,0.1374664306640625,-0.8795013427734375
0.3507537841796875,0.1287384033203125,-0.9150238037109376
0.381927490234375,0.1236419677734375,-0.9748382568359376
0.2772064208984375,0.224212646484375,-1.1358184814453125
0.177978515625,0.2768096923828125,-1.1646881103515625
0.167388916015625,0.21490478515625,-1.022369384765625
0.190216064453125,0.189544677734375,-0.95806884765625
0.2179718017578125,0.2275390625,-0.994384765625
0.2691497802734375,0.230010986328125,-0.9900360107421876
0.3032989501953125,0.192535400390625,-0.953125
0.3110809326171875,0.1683197021484375,-0.91363525390625
0.310760498046875,0.2360382080078125,-0.9815673828125
0.340301513671875,0.3329620361328125,-1.0680389404296875
0.3795623779296875,0.37939453125,-1.035980224609375
0.382965087890625,0.3489990234375,-0.939208984375
0.322296142578125,0.3082733154296875,-0.8828582763671875
0.2781982421875,0.3019256591796875,-0.870635986328125
0.274139404296875,0.338897705078125,-0.874420166015625
0.288330078125,0.3629608154296875,-0.8567657470703125
0.2718963623046875,0.3651580810546875,-0.84033203125
0.2758331298828125,0.3822174072265625,-0.79705810546875
0.310577392578125,0.383636474609375,-0.782470703125
0.349090576171875,0.386749267578125,-0.8007049560546875
0.394317626953125,0.38482666015625,-0.8307037353515625
0.4283599853515625,0.376190185546875,-0.8765411376953125
0.4605865478515625,0.3539581298828125,-0.8828582763671875
0.4921417236328125,0.3511199951171875,-0.952301025390625
0.522186279296875,0.4000701904296875,-1.02215576171875
0.55767822265625,0.3829193115234375,-0.947509765625
0.556427001953125,0.3293609619140625,-0.8675384521484375
0.4857177734375,0.2976226806640625,-0.841033935546875
0.4354248046875,0.29779052734375,-0.841705322265625
0.439422607421875,0.307708740234375,-0.838226318359375
0.4417572021484375,0.268829345703125,-0.76513671875
0.448822021484375,0.289520263671875,-0.7842864990234375
0.3984832763671875,0.313140869140625,-0.8986358642578125
0.4163055419921875,0.426544189453125,-0.932861328125
0.3802490234375,0.4452362060546875,-0.8424530029296875
0.3618316650390625,0.359039306640625,-0.702484130859375
0.3449554443359375,0.3667449951171875,-0.7195587158203125
0.404144287109375,0.375732421875,-0.7816314697265625
0.4681396484375,0.3904266357421875,-0.7952423095703125
0.493865966796875,0.3698883056640625,-0.7877197265625
0.47515869140625,0.324462890625,-0.80255126953125
0.478759765625,0.287322998046875,-0.8088226318359375
0.4554290771484375,0.277374267578125,-0.819793701171875
0.443450927734375,0.261077880859375,-0.84942626953125
0.4383392333984375,0.2753753662109375,-0.9084320068359376
0.4620819091796875,0.3665924072265625,-1.0375518798828125
0.484710693359375,0.393463134765625,-1.0472869873046875
0.448516845703125,0.2841796875,-0.935333251953125
0.4088134765625,0.2582244873046875,-0.9219818115234376
0.362091064453125,0.2487335205078125,-0.89508056640625
0.333343505859375,0.20123291015625,-0.815093994140625
0.328033447265625,0.245635986328125,-0.8974761962890625
0.4142303466796875,0.423065185546875,-1.1283416748046875
0.4728546142578125,0.4644012451171875,-1.078521728515625
0.46405029296875,0.3353118896484375,-0.9633636474609376
0.409332275390625,0.2844696044921875,-0.9075927734375
0.3632354736328125,0.3303070068359375,-0.9073333740234376
0.345489501953125,0.4006805419921875,-0.881317138671875
0.3470306396484375,0.433380126953125,-0.79071044921875
0.3428497314453125,0.4436798095703125,-0.68896484375
0.3451995849609375,0.438720703125,-0.635101318359375
0.352996826171875,0.4274444580078125,-0.626373291015625
0.395751953125,0.4438018798828125,-0.6633148193359375
0.4656524658203125,0.5024871826171875,-0.7023468017578125
0.5664520263671875,0.5765533447265625,-0.7710418701171875
0.7175445556640625,0.6282958984375,-0.854949951171875
0.8546142578125,0.6238250732421875,-0.95745849609375
0.91943359375,0.6226654052734375,-1.060089111328125
0.87890625,0.3884429931640625,-0.877532958984375
0.7770843505859375,0.2406463623046875,-0.79180908203125
0.62384033203125,0.25860595703125,-0.800933837890625
0.5418853759765625,0.1702117919921875,-0.740814208984375
0.4772491455078125,0.119537353515625,-0.7692108154296875
0.47552490234375,0.286468505859375,-1.00982666015625
0.455596923828125,0.388153076171875,-1.10894775390625
0.3131256103515625,0.30657958984375,-0.9450836181640624
0.14373779296875,0.2585601806640625,-0.9194488525390624
0.0500335693359375,0.27557373046875,-1.0147247314453125
0.1279754638671875,0.324951171875,-0.99822998046875
0.2559814453125,0.33203125,-0.972259521484375
0.3498077392578125,0.2556915283203125,-0.94439697265625
0.434051513671875,0.285736083984375,-0.926849365234375
0.4340362548828125,0.197784423828125,-0.9221343994140624
0.5025482177734375,0.093231201171875,-0.908935546875
0.5258941650390625,0.159149169921875,-0.8774871826171875
0.5027008056640625,0.25933837890625,-0.829864501953125
0.55279541015625,0.302490234375,-0.8856048583984375
0.5999908447265625,0.403717041015625,-0.871978759765625
0.6203155517578125,0.3989105224609375,-0.8520355224609375
0.61492919921875,0.459503173828125,-0.9852294921875
0.663665771484375,0.4684295654296875,-0.9030303955078124
0.7003936767578125,0.2990570068359375,-0.8628692626953125
0.6928863525390625,0.2043914794921875,-0.8103485107421875
0.5598907470703125,0.343902587890625,-0.9126739501953124
0.39898681640625,0.375823974609375,-0.9957122802734376
0.438446044921875,0.3735809326171875,-1.002777099609375
0.4060516357421875,0.248382568359375,-0.9173126220703124
0.3266143798828125,0.0792694091796875,-0.858184814453125
0.2245330810546875,-0.0246124267578125,-0.8415374755859375
0.2147369384765625,-0.0722808837890625,-0.8451080322265625
0.1672515869140625,-0.0681610107421875,-0.777099609375
0.293670654296875,-0.2093963623046875,-0.8708648681640625
0.3345184326171875,-0.16717529296875,-0.768341064453125
0.2593994140625,-0.1377105712890625,-0.7425994873046875
0.2341156005859375,-0.220794677734375,-0.7159576416015625
0.2035980224609375,-0.2491607666015625,-0.8753814697265625
0.2109222412109375,-0.2535400390625,-0.900604248046875
0.1969451904296875,-0.2786102294921875,-0.9545440673828124
0.1325531005859375,-0.1959075927734375,-1.0587921142578125
0.2407989501953125,-0.2539520263671875,-0.9732818603515624
0.2534332275390625,-0.2993927001953125,-1.0204010009765625
0.1992950439453125,-0.1952972412109375,-1.004241943359375
0.2544097900390625,-0.252349853515625,-0.951904296875
0.29095458984375,-0.1978607177734375,-0.9878997802734376
0.189544677734375,-0.2116851806640625,-0.943084716796875
0.0552215576171875,-0.2455902099609375,-0.9029693603515624
0.047027587890625,-0.1529693603515625,-1.0214996337890625
0.0281219482421875,-0.1663970947265625,-0.9365997314453124
0.0016632080078125,-0.13995361328125,-0.9573822021484376
-0.0159759521484375,-0.1026153564453125,-0.95343017578125
0.0727386474609375,-0.1600341796875,-0.865753173828125
0.0594482421875,-0.12713623046875,-0.862213134765625
0.0914459228515625,-0.1391754150390625,-0.889312744140625
0.1147613525390625,-0.106658935546875,-0.91339111328125
0.15167236328125,-0.1387481689453125,-0.9566497802734376
0.1914520263671875,-0.1029052734375,-0.9614715576171876
0.1595306396484375,-0.13372802734375,-0.950653076171875
0.1617279052734375,-0.1185455322265625,-0.9536895751953124
0.1646270751953125,-0.1245574951171875,-0.9841766357421876
0.159088134765625,-0.14276123046875,-1.037017822265625
0.1545562744140625,-0.1431121826171875,-1.0451507568359375
0.140869140625,-0.1228179931640625,-1.0424041748046875
0.076416015625,-0.0916595458984375,-1.018890380859375
0.0509796142578125,-0.0602874755859375,-0.9924468994140624
0.04449462890625,-0.045654296875,-0.9380645751953124
0.15887451171875,-0.0788116455078125,-0.964996337890625
0.2050628662109375,0.0032196044921875,-0.9489898681640624
0.314910888671875,-0.06842041015625,-1.011444091796875
0.4317169189453125,0.02276611328125,-1.0189208984375
0.33599853515625,0.02740478515625,-0.9701995849609376
0.456329345703125,0.0034027099609375,-0.9396514892578124
0.459197998046875,0.092803955078125,-0.788421630859375
0.4259490966796875,0.065093994140625,-0.8491668701171875
0.3511505126953125,0.0416107177734375,-0.8172607421875
0.2467803955078125,0.12615966796875,-0.6912689208984375
0.1273651123046875,0.113616943359375,-0.6859588623046875
0.07293701171875,0.327392578125,-0.772705078125
0.1079864501953125,0.58111572265625,-0.83544921875
0.3138580322265625,0.598175048828125,-0.9437103271484376
0.39935302734375,0.5633392333984375,-1.0695037841796875
0.3815460205078125,0.545013427734375,-1.169097900390625
0.4702911376953125,0.4034423828125,-1.083404541015625
0.38848876953125,0.329864501953125,-1.1472015380859375
0.27728271484375,0.535858154296875,-1.2653045654296875
0.39361572265625,0.654937744140625,-1.3413543701171875
0.4369049072265625,0.5458526611328125,-1.1624298095703125
0.499267578125,0.45245361328125,-1.1184539794921875
0.5012359619140625,0.1833953857421875,-0.9351806640625
0.3852691650390625,-0.116973876953125,-0.7998046875
0.347503662109375,-0.06494140625,-0.70086669921875
0.3990936279296875,0.109619140625,-0.7992706298828125
0.414276123046875,0.189208984375,-0.9741363525390624
0.44757080078125,0.211334228515625,-1.0357666015625
0.4453277587890625,0.189697265625,-0.892852783203125
0.4235992431640625,0.1991729736328125,-0.9044189453125
0.4486083984375,0.3069610595703125,-0.917327880859375
0.424072265625,0.3545989990234375,-0.929290771484375
0.4519500732421875,0.381622314453125,-0.873687744140625
0.47869873046875,0.4210357666015625,-0.8836517333984375
0.5061187744140625,0.3734588623046875,-0.8466033935546875
0.5425262451171875,0.3872222900390625,-0.8688507080078125
0.525848388671875,0.4337921142578125,-0.8534393310546875
0.4848175048828125,0.39434814453125,-0.8262786865234375
0.49871826171875,0.34002685546875,-0.834869384765625
0.506622314453125,0.34893798828125,-0.8045806884765625
0.561737060546875,0.386505126953125,-0.9091644287109376
0.644927978515625,0.3661956787109375,-0.8378143310546875
0.6458892822265625,0.3651123046875,-0.7513580322265625
0.596649169921875,0.386383056640625,-0.6762542724609375
0.5991668701171875,0.34600830078125,-0.6314697265625
0.57086181640625,0.3473968505859375,-0.66705322265625
0.574462890625,0.290924072265625,-0.7465667724609375
0.5680389404296875,0.17657470703125,-0.8511810302734375
0.55902099609375,0.1303863525390625,-0.9081268310546876
0.5843048095703125,0.1561431884765625,-0.9347686767578124
0.56744384765625,0.180816650390625,-0.937591552734375
0.5158843994140625,0.1742706298828125,-0.9401092529296876
0.502166748046875,0.206390380859375,-0.970733642578125
0.4797821044921875,0.217315673828125,-0.941802978515625
0.4869384765625,0.23974609375,-1.0006866455078125
0.4661407470703125,0.261566162109375,-0.962615966796875
0.47747802734375,0.2784881591796875,-0.9696502685546876
0.4605560302734375,0.27606201171875,-0.9505615234375
0.43365478515625,0.2334747314453125,-0.9095611572265624
0.3760528564453125,0.177337646484375,-0.9070587158203124
0.350677490234375,0.1316680908203125,-0.8896026611328125
0.38336181640625,0.1678619384765625,-0.878265380859375
0.4226531982421875,0.3021697998046875,-0.920867919921875
0.44793701171875,0.383026123046875,-0.9650726318359376
0.39190673828125,0.340576171875,-0.8816986083984375
0.3360595703125,0.2165679931640625,-0.772186279296875
0.2351837158203125,0.1910247802734375,-0.815673828125
0.18914794921875,0.1904144287109375,-0.83404541015625
0.2285308837890625,0.20916748046875,-0.8867340087890625
0.2738037109375,0.2320556640625,-0.8800811767578125
0.2993011474609375,0.20025634765625,-0.8853302001953125
0.29315185546875,0.16357421875,-0.926605224609375
0.31793212890625,0.145904541015625,-0.96868896484375
0.3344879150390625,0.1732330322265625,-1.0475616455078125
0.4006500244140625,0.202056884765625,-1.06597900390625
0.45526123046875,0.2560577392578125,-1.0966339111328125
0.4707489013671875,0.1865997314453125,-0.9804840087890624
0.434051513671875,0.1534423828125,-0.9946441650390624
0.4311370849609375,0.21826171875,-1.1178741455078125
0.483245849609375,0.211883544921875,-1.0483245849609375
0.4484100341796875,0.15899658203125,-0.884521484375
0.3912506103515625,0.1381988525390625,-0.8153228759765625
0.37103271484375,0.1390838623046875,-0.7981719970703125
0.411102294921875,0.203460693359375,-0.8691558837890625
0.48626708984375,0.3067474365234375,-0.9697418212890624
0.5668182373046875,0.30963134765625,-0.9707183837890624
0.58941650390625,0.2315673828125,-0.8706207275390625
0.5738677978515625,0.1952056884765625,-0.8172454833984375
0.519805908203125,0.24468994140625,-0.829010009765625
0.4962158203125,0.312225341796875,-0.85699462890625
0.50128173828125,0.3404998779296875,-0.8355255126953125
0.48187255859375,0.3469085693359375,-0.80908203125
0.4632720947265625,0.3312530517578125,-0.799102783203125
0.4502716064453125,0.3105316162109375,-0.7977752685546875
0.4392547607421875,0.3029022216796875,-0.8060760498046875
0.4299468994140625,0.3168792724609375,-0.8293304443359375
0.405364990234375,0.3220062255859375,-0.8328857421875
0.38031005859375,0.3404083251953125,-0.874053955078125
0.39788818359375,0.41693115234375,-0.9921722412109376
0.369354248046875,0.384918212890625,-0.992431640625
0.3639984130859375,0.3537139892578125,-1.0056304931640625
0.350921630859375,0.316162109375,-0.9778900146484376
0.34112548828125,0.1748504638671875,-0.834381103515625
0.2704620361328125,0.04315185546875,-0.7713470458984375
0.260589599609375,0.1337738037109375,-0.8882904052734375
0.3490447998046875,0.3690185546875,-1.0334320068359375
0.440216064453125,0.477569580078125,-1.01611328125
0.4401702880859375,0.377227783203125,-0.8018951416015625
0.362884521484375,0.2725982666015625,-0.716064453125
0.2841949462890625,0.256072998046875,-0.7786712646484375
0.286865234375,0.3230743408203125,-0.848236083984375
0.3681182861328125,0.3454742431640625,-0.8427886962890625
0.42730712890625,0.3187103271484375,-0.8465423583984375
0.4449005126953125,0.274749755859375,-0.9152374267578124
0.4049072265625,0.2039947509765625,-0.9904327392578124
0.3605804443359375,0.13690185546875,-1.0466766357421875
0.38421630859375,0.15826416015625,-1.0335845947265625
0.4494781494140625,0.23101806640625,-1.0110626220703125
0.499847412109375,0.3326568603515625,-1.025848388671875
0.4948577880859375,0.308074951171875,-0.906158447265625
0.4532470703125,0.2477874755859375,-0.8192901611328125
0.4226531982421875,0.286865234375,-0.858978271484375
0.4929656982421875,0.3146209716796875,-0.894500732421875
0.56402587890625,0.307708740234375,-0.8514404296875
0.612152099609375,0.30859375,-0.7861785888671875
0.6102294921875,0.38128662109375,-0.8049468994140625
0.60882568359375,0.452728271484375,-0.8861846923828125
0.62860107421875,0.4340057373046875,-0.8819427490234375
0.64166259765625,0.3617401123046875,-0.819610595703125
0.6392974853515625,0.331939697265625,-0.7801666259765625
0.6102752685546875,0.3578033447265625,-0.7816619873046875
0.586883544921875,0.3787994384765625,-0.7865142822265625
0.5897064208984375,0.3763580322265625,-0.7458648681640625
0.53533935546875,0.3656768798828125,-0.757049560546875
0.49127197265625,0.3300018310546875,-0.7930145263671875
0.453216552734375,0.3214263916015625,-0.8621826171875
0.4146881103515625,0.316558837890625,-0.8776092529296875
0.371795654296875,0.297271728515625,-0.9150848388671876
0.3188018798828125,0.2926788330078125,-0.94879150390625
0.3160400390625,0.348358154296875,-1.0592041015625
0.3343353271484375,0.4351348876953125,-1.0889892578125
0.368927001953125,0.40118408203125,-1.0169219970703125
0.3065338134765625,0.33758544921875,-0.94744873046875
0.2228240966796875,0.2099456787109375,-0.89508056640625
0.1654510498046875,0.1078643798828125,-0.8619232177734375
0.176513671875,0.1693572998046875,-0.9038848876953124
0.2929534912109375,0.3613128662109375,-1.0170440673828125
0.3858642578125,0.4412078857421875,-1.0011749267578125
0.36669921875,0.315704345703125,-0.8808135986328125
0.2545013427734375,0.2236480712890625,-0.826141357421875
0.1968231201171875,0.2476959228515625,-0.8497772216796875
0.2475738525390625,0.2984619140625,-0.8787078857421875
0.330413818359375,0.31890869140625,-0.8539581298828125
0.3477783203125,0.293670654296875,-0.84222412109375
0.316619873046875,0.2511749267578125,-0.8939971923828125
0.284637451171875,0.2021484375,-0.9246063232421876
0.2628326416015625,0.188720703125,-0.930450439453125
0.2574920654296875,0.2047576904296875,-0.912567138671875
0.250091552734375,0.2022552490234375,-0.9097137451171876
0.2545013427734375,0.2148284912109375,-0.9322357177734376
0.281158447265625,0.2082061767578125,-0.9375457763671876
0.31658935546875,0.200897216796875,-0.9671478271484376
0.3924713134765625,0.3394012451171875,-1.224639892578125
0.3623199462890625,0.2152252197265625,-1.04010009765625
0.3816680908203125,0.1705169677734375,-1.0946807861328125
0.37103271484375,0.2685546875,-1.142425537109375
0.3736572265625,0.194915771484375,-0.99847412109375
0.314788818359375,0.1020660400390625,-0.8077392578125
0.2581634521484375,0.196197509765625,-0.9203033447265624
0.336456298828125,0.4220733642578125,-1.1190948486328125
0.4392852783203125,0.4867401123046875,-1.081634521484375
0.436981201171875,0.375732421875,-0.956298828125
0.3330078125,0.311920166015625,-0.91802978515625
0.27587890625,0.312286376953125,-0.924407958984375
0.2751922607421875,0.3358001708984375,-0.8998870849609375
0.2750091552734375,0.3638458251953125,-0.8516693115234375
0.256134033203125,0.3916168212890625,-0.8184814453125
0.233367919921875,0.407073974609375,-0.7335052490234375
0.2441864013671875,0.4137725830078125,-0.7184600830078125
0.2761993408203125,0.386444091796875,-0.7248687744140625
0.3302154541015625,0.421295166015625,-0.819305419921875
0.426513671875,0.5209197998046875,-0.9893341064453124
0.5759124755859375,0.60504150390625,-1.1315460205078125
0.7361907958984375,0.5716705322265625,-1.07891845703125
0.835235595703125,0.4680938720703125,-0.8856201171875
0.7733001708984375,0.3965301513671875,-0.8266448974609375
0.6428070068359375,0.3795013427734375,-0.9080352783203124
0.56829833984375,0.345977783203125,-0.9197998046875
0.5868988037109375,0.362060546875,-0.8538055419921875
0.6035003662109375,0.4137420654296875,-0.7911834716796875
0.60455322265625,0.389495849609375,-0.7365264892578125
0.5748138427734375,0.359527587890625,-0.761932373046875
0.51220703125,0.3625946044921875,-0.8018341064453125
0.4878082275390625,0.328857421875,-0.823394775390625
0.4610443115234375,0.301483154296875,-0.861663818359375
0.437530517578125,0.2801361083984375,-0.882293701171875
0.4238739013671875,0.2704925537109375,-0.920684814453125
0.3808135986328125,0.289703369140625,-0.957916259765625
0.3498077392578125,0.2632293701171875,-0.979736328125
0.34075927734375,0.2186279296875,-0.978363037109375
0.3133544921875,0.1853485107421875,-1.0004119873046875
0.3060455322265625,0.1672515869140625,-1.0223236083984375
0.298797607421875,0.152801513671875,-1.06231689453125
0.23907470703125,0.1537322998046875,-1.07122802734375
0.1919708251953125,0.13812255859375,-1.073089599609375
0.201080322265625,0.1276092529296875,-1.0678253173828125
0.231842041015625,0.168121337890625,-1.039825439453125
0.2609710693359375,0.1942596435546875,-1.0336151123046875
0.287689208984375,0.2205657958984375,-1.0213775634765625
0.3087921142578125,0.24847412109375,-1.011749267578125
0.3253021240234375,0.2581939697265625,-1.0006256103515625
0.329193115234375,0.275238037109375,-0.9955596923828124
0.335357666015625,0.2994537353515625,-0.9901123046875
0.3374176025390625,0.3242340087890625,-0.968109130859375
0.33929443359375,0.3340301513671875,-0.94989013671875
0.3523101806640625,0.3323822021484375,-0.9212646484375
0.340423583984375,0.31634521484375,-0.8639068603515625
0.3307952880859375,0.3347320556640625,-0.862335205078125
0.35888671875,0.3883209228515625,-0.9343414306640624
0.3875732421875,0.4091644287109375,-0.9611663818359376
0.3784942626953125,0.3343048095703125,-0.867431640625
0.31231689453125,0.256072998046875,-0.780731201171875
0.25341796875,0.265838623046875,-0.7776947021484375
0.263031005859375,0.3223876953125,-0.8038787841796875
0.286163330078125,0.36383056640625,-0.816986083984375
0.2957000732421875,0.334991455078125,-0.82464599609375
0.2865142822265625,0.29937744140625,-0.887298583984375
0.2981719970703125,0.29412841796875,-0.938751220703125
0.3553314208984375,0.2971649169921875,-0.97021484375
0.4143829345703125,0.2927093505859375,-1.00689697265625
0.4603424072265625,0.2943878173828125,-1.0122528076171875
0.4833221435546875,0.2490081787109375,-1.0048828125
0.444732666015625,0.233734130859375,-1.006622314453125
0.4260101318359375,0.2553253173828125,-1.09259033203125
0.4095611572265625,0.28009033203125,-1.1125335693359375
0.4044036865234375,0.1556854248046875,-0.9599456787109376
0.3285980224609375,0.165252685546875,-0.9780731201171876
0.31787109375,0.183929443359375,-1.0244293212890625
0.37286376953125,0.1734466552734375,-0.9904937744140624
0.3909149169921875,0.1111907958984375,-0.904937744140625
0.322235107421875,0.031005859375,-0.8326568603515625
0.2999114990234375,0.070953369140625,-0.9000244140625
0.40771484375,0.282684326171875,-1.1248779296875
0.501007080078125,0.411468505859375,-1.151885986328125
0.4579315185546875,0.36126708984375,-1.0087432861328125
0.3204803466796875,0.296142578125,-0.9298095703125
0.217498779296875,0.330474853515625,-0.9317474365234376
0.2027740478515625,0.3780364990234375,-0.871673583984375
0.2050933837890625,0.3787994384765625,-0.788787841796875
0.18499755859375,0.3546905517578125,-0.7559356689453125
0.1702117919921875,0.2962646484375,-0.763031005859375
0.1868743896484375,0.250030517578125,-0.7724761962890625
0.2261962890625,0.2609710693359375,-0.80462646484375
0.2725372314453125,0.3140106201171875,-0.8713531494140625
0.32562255859375,0.361480712890625,-0.959075927734375
0.3876495361328125,0.3908233642578125,-1.0352783203125
0.3680419921875,0.30072021484375,-1.01080322265625
0.37591552734375,0.3251800537109375,-1.1722412109375
0.4374847412109375,0.3742523193359375,-1.1990509033203125
0.464996337890625,0.3069000244140625,-1.021697998046875
0.38470458984375,0.2709808349609375,-0.8337249755859375
0.2433319091796875,0.3712158203125,-0.790313720703125
0.2468719482421875,0.3770599365234375,-0.83538818359375
0.2971954345703125,0.3999481201171875,-0.86126708984375
0.342742919921875,0.416748046875,-0.7481842041015625
0.33343505859375,0.3868408203125,-0.64093017578125
0.2612152099609375,0.3151092529296875,-0.485137939453125
0.1634979248046875,0.1603240966796875,-0.162384033203125
0.05462646484375,0.2575225830078125,-0.1302337646484375
0.0317535400390625,0.346160888671875,-0.3542938232421875
0.106414794921875,0.448577880859375,-0.5402374267578125
0.2844085693359375,0.32080078125,-0.691009521484375
0.39434814453125,0.199005126953125,-0.8837890625
0.335906982421875,0.2253265380859375,-1.1922454833984375
0.330657958984375,0.2261962890625,-1.1827392578125
0.4293365478515625,0.1910247802734375,-1.091094970703125
0.478179931640625,0.319580078125,-1.157684326171875
0.378021240234375,0.35992431640625,-1.136962890625
0.3526611328125,0.48028564453125,-1.24029541015625
0.38037109375,0.626556396484375,-1.1955108642578125
0.3910980224609375,0.661773681640625,-1.1819305419921875
0.3685150146484375,0.6454315185546875,-1.180328369140625
0.4080810546875,0.7285919189453125,-1.2543487548828125
0.4036102294921875,0.62542724609375,-1.2397918701171875
0.4195709228515625,0.4983367919921875,-1.14715576171875
0.35845947265625,0.4444427490234375,-1.0693359375
0.3339080810546875,0.319610595703125,-1.01715087890625
0.3277740478515625,0.3058624267578125,-1.0050506591796875
0.353729248046875,0.3161468505859375,-1.0035858154296875
0.459259033203125,0.3295745849609375,-1.062042236328125
0.494781494140625,0.2680206298828125,-1.12249755859375
0.4576263427734375,0.1901702880859375,-1.1622772216796875
0.397247314453125,0.1791839599609375,-1.1561279296875
0.32244873046875,0.1989593505859375,-1.0658416748046875
0.30694580078125,0.236541748046875,-0.931488037109375
0.2804718017578125,0.237518310546875,-0.8739776611328125
0.24383544921875,0.1866912841796875,-0.8316650390625
0.247222900390625,0.2084503173828125,-0.7918701171875
0.261810302734375,0.2639923095703125,-0.7664642333984375
0.282196044921875,0.2529449462890625,-0.783660888671875
0.2769927978515625,0.2735595703125,-0.843719482421875
0.2702789306640625,0.2935943603515625,-0.853546142578125
0.28643798828125,0.322509765625,-0.8492889404296875
0.29364013671875,0.305877685546875,-0.8718719482421875
0.29229736328125,0.3074188232421875,-0.936126708984375
0.28179931640625,0.3227386474609375,-0.99224853515625
0.2830352783203125,0.37188720703125,-1.1115875244140625
0.3231048583984375,0.3286895751953125,-1.057403564453125
0.329986572265625,0.3356170654296875,-1.0598602294921875
0.3170928955078125,0.2804107666015625,-1.0820770263671875
0.27142333984375,0.258087158203125,-1.0222320556640625
0.1835784912109375,0.2745208740234375,-0.979400634765625
0.163604736328125,0.297515869140625,-0.884307861328125
0.14776611328125,0.2836151123046875,-0.77642822265625
0.2105255126953125,0.2900543212890625,-0.745697021484375
0.21234130859375,0.3598480224609375,-0.789947509765625
0.2397003173828125,0.3690032958984375,-0.8481903076171875
0.286651611328125,0.388153076171875,-0.8431854248046875
0.33837890625,0.389434814453125,-0.7981414794921875
0.4090728759765625,0.33984375,-0.7774200439453125
0.4361724853515625,0.3348236083984375,-0.730865478515625
0.4156951904296875,0.250823974609375,-0.6225433349609375
0.383636474609375,0.2598419189453125,-0.6671295166015625
0.36505126953125,0.4042510986328125,-0.7306365966796875
0.4146728515625,0.4559478759765625,-0.770599365234375
0.42596435546875,0.470458984375,-0.85882568359375
0.4282379150390625,0.4145050048828125,-0.8478546142578125
0.4136505126953125,0.3913116455078125,-0.7891693115234375
0.3944091796875,0.40557861328125,-0.803985595703125
0.340301513671875,0.4167633056640625,-0.8957977294921875
0.2848968505859375,0.45916748046875,-0.9097442626953124
0.276702880859375,0.4069366455078125,-0.847412109375
0.2255401611328125,0.41021728515625,-0.851654052734375
0.2122650146484375,0.4124908447265625,-0.915191650390625
0.2375335693359375,0.3847198486328125,-0.920196533203125
0.21649169921875,0.4026031494140625,-0.92596435546875
0.213104248046875,0.4100799560546875,-0.9621124267578124
0.2215576171875,0.414337158203125,-0.951690673828125
0.2155609130859375,0.448577880859375,-0.900634765625
0.1931304931640625,0.4313507080078125,-0.8518829345703125
0.159210205078125,0.3644561767578125,-0.84814453125
0.1391143798828125,0.3381805419921875,-0.86724853515625
0.1439208984375,0.3130645751953125,-0.87451171875
0.1665496826171875,0.3220062255859375,-0.887054443359375
0.1914215087890625,0.3235931396484375,-0.93377685546875
0.20611572265625,0.2731781005859375,-0.948974609375
0.197845458984375,0.2598724365234375,-0.9580535888671876
0.210296630859375,0.263916015625,-0.9565887451171876
0.219482421875,0.2656707763671875,-0.954132080078125
0.2132415771484375,0.266998291015625,-0.9579315185546876
0.2115478515625,0.2528076171875,-0.9619598388671876
0.1957855224609375,0.267242431640625,-0.9790496826171876
0.216552734375,0.2632598876953125,-0.9953460693359376
0.230621337890625,0.284637451171875,-1.0525054931640625
0.28997802734375,0.372955322265625,-1.1224517822265625
0.314208984375,0.2419281005859375,-1.0073699951171875
0.2919464111328125,0.2231597900390625,-0.9922027587890624
0.324127197265625,0.330780029296875,-0.9792022705078124
0.399139404296875,0.3108978271484375,-0.8843231201171875
0.4256439208984375,0.2675628662109375,-0.7778778076171875
0.3831024169921875,0.2422637939453125,-0.75030517578125
0.3989410400390625,0.3944091796875,-0.8940887451171875
0.4633636474609375,0.5700225830078125,-0.972930908203125
0.533050537109375,0.4430694580078125,-0.8937530517578125
0.5380096435546875,0.3174285888671875,-0.8292083740234375
0.4935150146484375,0.309722900390625,-0.830902099609375
0.4677886962890625,0.3768157958984375,-0.8422088623046875
0.4745635986328125,0.3953094482421875,-0.822601318359375
0.431854248046875,0.36566162109375,-0.832977294921875
0.3777313232421875,0.3477325439453125,-0.8477935791015625
0.315582275390625,0.3702850341796875,-0.8813629150390625
0.3052978515625,0.35858154296875,-0.8471527099609375
0.2763519287109375,0.3613128662109375,-0.835693359375
0.2148284912109375,0.33233642578125,-0.80609130859375
0.18109130859375,0.3370513916015625,-0.85992431640625
0.22174072265625,0.5352630615234375,-1.118316650390625
0.30609130859375,0.5533905029296875,-1.1071319580078125
0.354034423828125,0.34698486328125,-0.9413604736328124
0.2662811279296875,0.161529541015625,-0.8623199462890625
0.2115325927734375,-0.0271453857421875,-0.8447265625
0.25445556640625,0.069488525390625,-1.023773193359375
0.3918914794921875,0.375030517578125,-1.1606292724609375
0.4920196533203125,0.3543548583984375,-0.939849853515625
0.4421234130859375,0.193695068359375,-0.8277587890625
0.3051910400390625,0.202484130859375,-0.913604736328125
0.2850189208984375,0.25933837890625,-0.969085693359375
0.38751220703125,0.2855987548828125,-0.905914306640625
0.43609619140625,0.2637786865234375,-0.8496551513671875
0.4235687255859375,0.2537994384765625,-0.8595733642578125
0.4140167236328125,0.253570556640625,-0.8445892333984375
0.447479248046875,0.29693603515625,-0.8512115478515625
0.5089569091796875,0.3840179443359375,-0.9123687744140624
0.56549072265625,0.4462890625,-0.9603729248046876
0.5948944091796875,0.403533935546875,-0.869964599609375
0.5888824462890625,0.38525390625,-0.81304931640625
0.6036834716796875,0.418243408203125,-0.8980865478515625
0.59942626953125,0.4130401611328125,-0.897369384765625
0.5968170166015625,0.3747100830078125,-0.8441314697265625
0.5734100341796875,0.4082489013671875,-0.8994903564453125
0.5557861328125,0.4540863037109375,-0.986297607421875
0.5702972412109375,0.462188720703125,-0.95599365234375
0.5614166259765625,0.451202392578125,-0.907867431640625
0.5203399658203125,0.4535980224609375,-0.8778228759765625
0.4546356201171875,0.45428466796875,-0.8527069091796875
0.418304443359375,0.447113037109375,-0.8717498779296875
0.4185028076171875,0.38128662109375,-0.8306121826171875
0.4173736572265625,0.34027099609375,-0.824493408203125
0.382598876953125,0.3533477783203125,-0.810791015625
0.356201171875,0.3344879150390625,-0.818695068359375
0.3597412109375,0.3117523193359375,-0.791168212890625
0.358245849609375,0.2870025634765625,-0.8184814453125
0.3446044921875,0.2674713134765625,-0.83013916015625
0.346343994140625,0.2136993408203125,-0.863983154296875
0.3661651611328125,0.1851806640625,-0.881683349609375
0.354156494140625,0.217041015625,-0.880523681640625
0.3551788330078125,0.2237091064453125,-0.872802734375
0.37762451171875,0.2425689697265625,-0.8721466064453125
0.38214111328125,0.2584075927734375,-0.88787841796875
0.3795318603515625,0.263916015625,-0.900543212890625
0.3733062744140625,0.2557373046875,-0.898956298828125
0.3578033447265625,0.2966766357421875,-0.979736328125
0.3848419189453125,0.313232421875,-0.945556640625
0.365966796875,0.2953948974609375,-0.891143798828125
0.358612060546875,0.30706787109375,-0.8965301513671875
0.3790435791015625,0.3018646240234375,-0.8988189697265625
0.3513641357421875,0.3109588623046875,-0.9181976318359376
0.3359527587890625,0.3347015380859375,-0.949249267578125
0.3292388916015625,0.3526763916015625,-0.96875
0.3152313232421875,0.360809326171875,-0.9761199951171876
0.3056640625,0.290191650390625,-0.9577178955078124
0.2863006591796875,0.237091064453125,-0.927642822265625
0.282928466796875,0.24224853515625,-0.9321136474609376
0.294525146484375,0.2469635009765625,-0.9635162353515624
0.31103515625,0.2740478515625,-0.9574432373046876
0.3292694091796875,0.259490966796875,-0.943695068359375
0.3129119873046875,0.26806640625,-0.919219970703125
0.3286590576171875,0.270904541015625,-0.92193603515625
0.3359832763671875,0.2539520263671875,-0.8951568603515625
0.3268280029296875,0.2280426025390625,-0.9036712646484376
0.3220977783203125,0.2310333251953125,-0.9274749755859376
0.357940673828125,0.235626220703125,-0.9257965087890624
0.373138427734375,0.2519378662109375,-0.9094696044921876
0.3105926513671875,0.2680816650390625,-0.9291839599609376
0.30023193359375,0.2770538330078125,-1.0309600830078125
0.3355255126953125,0.3990936279296875,-1.1516265869140625
0.3382110595703125,0.3076934814453125,-1.080474853515625
0.354705810546875,0.3712615966796875,-1.154510498046875
0.3683624267578125,0.4007568359375,-1.086639404296875
0.340057373046875,0.27105712890625,-0.8618621826171875
0.2763824462890625,0.1791534423828125,-0.7546539306640625
0.29693603515625,0.3536834716796875,-0.9427490234375
0.3895416259765625,0.4655914306640625,-1.1074066162109375
0.4377593994140625,0.35443115234375,-1.0384979248046875
0.42864990234375,0.2125701904296875,-0.8709259033203125
0.316162109375,0.2162017822265625,-0.81768798828125
0.2332000732421875,0.2642364501953125,-0.809783935546875
0.20721435546875,0.3030548095703125,-0.7748565673828125
0.201934814453125,0.3153533935546875,-0.7333526611328125
0.1961669921875,0.308563232421875,-0.7266845703125
0.2067108154296875,0.3188018798828125,-0.7612762451171875
0.2303009033203125,0.332611083984375,-0.7987213134765625
0.2509002685546875,0.364837646484375,-0.890838623046875
0.280975341796875,0.38543701171875,-0.9754638671875
0.3554534912109375,0.4600830078125,-1.19305419921875
0.4374847412109375,0.5483551025390625,-1.2299652099609375
0.534393310546875,0.42327880859375,-1.069488525390625
0.539093017578125,0.2695465087890625,-0.9222412109375
0.4194488525390625,0.21112060546875,-0.923858642578125
0.348114013671875,0.1456298828125,-0.904876708984375
0.3787384033203125,0.1930389404296875,-0.8958282470703125
0.4375,0.38690185546875,-1.0309600830078125
0.4559783935546875,0.4221649169921875,-0.9813995361328124
0.3950042724609375,0.2798614501953125,-0.802337646484375
0.194580078125,0.28155517578125,-0.8205108642578125
0.12823486328125,0.2858123779296875,-0.8816375732421875
0.183685302734375,0.3714447021484375,-0.8525543212890625
0.232940673828125,0.4552001953125,-0.806732177734375
0.2665557861328125,0.417755126953125,-0.7785186767578125
0.24615478515625,0.3481903076171875,-0.823211669921875
0.264678955078125,0.324859619140625,-0.88214111328125
0.3267669677734375,0.3324127197265625,-0.897796630859375
0.38427734375,0.332427978515625,-0.9200286865234376
0.385223388671875,0.3056793212890625,-0.9338226318359376
0.38580322265625,0.255340576171875,-0.9353485107421876
0.3595733642578125,0.248931884765625,-1.013885498046875
0.296722412109375,0.2869110107421875,-1.087432861328125
0.2469482421875,0.270416259765625,-1.07720947265625
0.2086334228515625,0.2711639404296875,-1.068267822265625
0.1771392822265625,0.21270751953125,-0.9791717529296876
0.1716461181640625,0.192413330078125,-0.8546905517578125
0.1343994140625,0.3203887939453125,-0.9568939208984376
0.1383819580078125,0.5234832763671875,-1.1940460205078125
0.2362823486328125,0.544708251953125,-1.216522216796875
0.245849609375,0.4026641845703125,-0.9920806884765624
0.224090576171875,0.3307037353515625,-0.887969970703125
0.1887359619140625,0.359649658203125,-0.9069671630859376
0.1826171875,0.406890869140625,-0.9019012451171876
0.1959381103515625,0.4164886474609375,-0.8530731201171875
0.183990478515625,0.411468505859375,-0.786163330078125
0.1729888916015625,0.4010467529296875,-0.766876220703125
0.187042236328125,0.4107208251953125,-0.780181884765625
0.2380523681640625,0.42572021484375,-0.82952880859375
0.3187103271484375,0.490264892578125,-0.9297027587890624
0.40625,0.517730712890625,-0.976898193359375
0.479888916015625,0.4570465087890625,-0.981353759765625
0.539764404296875,0.4149627685546875,-0.9425048828125
0.52301025390625,0.3402099609375,-0.9079132080078124
0.4690093994140625,0.3146514892578125,-0.895721435546875
0.433990478515625,0.269805908203125,-0.9089508056640624
0.4332733154296875,0.261199951171875,-0.880889892578125
0.413238525390625,0.3083038330078125,-0.8652496337890625
0.3708038330078125,0.329925537109375,-0.86749267578125
0.3482818603515625,0.3153228759765625,-0.853057861328125
0.3221588134765625,0.3344573974609375,-0.88604736328125
0.3166961669921875,0.3069915771484375,-0.8897857666015625
0.3109130859375,0.2783660888671875,-0.8990936279296875
0.3003082275390625,0.24945068359375,-0.94183349609375
0.2779083251953125,0.2055816650390625,-0.9639434814453124
0.28094482421875,0.186614990234375,-0.9727020263671876
0.276123046875,0.1869049072265625,-0.9778289794921876
0.26226806640625,0.171966552734375,-1.0098724365234375
0.2650909423828125,0.1483001708984375,-1.0175323486328125
0.284332275390625,0.1274261474609375,-1.0296478271484375
0.3043212890625,0.2090911865234375,-1.162689208984375
0.32843017578125,0.279998779296875,-1.18896484375
0.3299713134765625,0.2612152099609375,-1.130340576171875
0.3045654296875,0.2575836181640625,-1.045135498046875
0.2593231201171875,0.2445220947265625,-0.956787109375
0.2445068359375,0.245330810546875,-0.8895416259765625
0.2566070556640625,0.2839508056640625,-0.863372802734375
0.290557861328125,0.4244232177734375,-0.9448394775390624
0.314453125,0.509796142578125,-0.987335205078125
0.3610992431640625,0.4206085205078125,-0.922271728515625
0.3896484375,0.3455047607421875,-0.843170166015625
0.3943634033203125,0.3689117431640625,-0.8066558837890625
0.396270751953125,0.40203857421875,-0.81610107421875
0.392333984375,0.4055938720703125,-0.8050537109375
0.3531036376953125,0.363189697265625,-0.7987823486328125
0.287811279296875,0.341888427734375,-0.82257080078125
0.25653076171875,0.3137054443359375,-0.851806640625
0.243255615234375,0.2907257080078125,-0.8816375732421875
0.21942138671875,0.2598419189453125,-0.915191650390625
0.1987457275390625,0.222930908203125,-0.9519805908203124
0.2015380859375,0.213653564453125,-0.997711181640625
0.2327423095703125,0.2235565185546875,-1.0120697021484375
0.2452545166015625,0.212738037109375,-1.0016937255859375
0.273101806640625,0.3002471923828125,-1.08984375
0.357513427734375,0.309539794921875,-1.0611114501953125
0.404327392578125,0.2773590087890625,-0.978729248046875
0.3987579345703125,0.271697998046875,-0.9259033203125
0.3798980712890625,0.245849609375,-0.851593017578125
0.3476104736328125,0.19769287109375,-0.7685699462890625
0.3788604736328125,0.1547393798828125,-0.8675384521484375
0.508331298828125,0.338775634765625,-1.054351806640625
0.5924224853515625,0.4376068115234375,-1.0496673583984375
0.5767364501953125,0.4019622802734375,-0.9024200439453124
0.4683837890625,0.3546600341796875,-0.8579254150390625
0.41766357421875,0.385345458984375,-0.9157867431640624
0.451690673828125,0.4402923583984375,-0.9336090087890624
0.5006256103515625,0.419342041015625,-0.810821533203125
0.4824371337890625,0.3896026611328125,-0.7468109130859375
0.40509033203125,0.3699798583984375,-0.789703369140625
0.3328704833984375,0.3716583251953125,-0.7986297607421875
0.353271484375,0.3347625732421875,-0.7772216796875
0.358489990234375,0.33416748046875,-0.82012939453125
0.308258056640625,0.31646728515625,-0.85260009765625
0.278167724609375,0.2633209228515625,-0.8686676025390625
0.2631988525390625,0.2337799072265625,-0.9113616943359376
0.2578582763671875,0.2378387451171875,-0.941986083984375
0.2674407958984375,0.2565460205078125,-0.9557952880859376
0.328948974609375,0.2760467529296875,-1.028106689453125
0.3006591796875,0.26922607421875,-1.008758544921875
0.296417236328125,0.2071990966796875,-0.898590087890625
0.33123779296875,0.242034912109375,-0.9105072021484376
0.3610076904296875,0.3487548828125,-0.966094970703125
0.4158477783203125,0.37646484375,-0.9321136474609376
0.4311676025390625,0.3412017822265625,-0.8713226318359375
0.3733978271484375,0.29290771484375,-0.8438568115234375
0.343780517578125,0.2787017822265625,-0.85760498046875
0.3766326904296875,0.3202972412109375,-0.9037933349609376
0.43804931640625,0.368560791015625,-0.87109375
0.4620513916015625,0.38970947265625,-0.8505401611328125
0.4534149169921875,0.37384033203125,-0.8634490966796875
0.4700775146484375,0.3538970947265625,-0.8857879638671875
0.46533203125,0.3607177734375,-0.8927001953125
0.442657470703125,0.36236572265625,-0.8976593017578125
0.459136962890625,0.35821533203125,-0.894500732421875
0.4784393310546875,0.3777313232421875,-0.886810302734375
0.49755859375,0.3816375732421875,-0.8635406494140625
0.49945068359375,0.373687744140625,-0.8455657958984375
0.472930908203125,0.3522491455078125,-0.8359375
0.431610107421875,0.34454345703125,-0.855133056640625
0.400299072265625,0.34564208984375,-0.8412322998046875
0.3584136962890625,0.3508453369140625,-0.8298187255859375
0.29534912109375,0.36236572265625,-0.8614501953125
0.24169921875,0.406585693359375,-0.9480743408203124
0.289520263671875,0.4601898193359375,-0.9977874755859376
0.3608245849609375,0.24896240234375,-0.8001556396484375
0.263519287109375,0.088836669921875,-0.7910308837890625
0.1472320556640625,0.025390625,-0.9605865478515624
0.1083984375,0.1686859130859375,-1.1157989501953125
0.2308502197265625,0.316741943359375,-1.1077880859375
0.285400390625,0.30670166015625,-0.9651336669921876
0.1922149658203125,0.2543182373046875,-0.959991455078125
0.1033782958984375,0.2515869140625,-1.052703857421875
0.0801544189453125,0.2588958740234375,-1.016204833984375
0.12548828125,0.254638671875,-0.9107513427734376
0.1581573486328125,0.305908203125,-0.893768310546875
0.178131103515625,0.3554534912109375,-0.892333984375
0.21502685546875,0.3326263427734375,-0.8907623291015625
0.2301788330078125,0.3245086669921875,-0.892181396484375
0.26666259765625,0.3138885498046875,-0.8713226318359375
0.2947998046875,0.30389404296875,-0.8622894287109375
0.308013916015625,0.2911224365234375,-0.869049072265625
0.2985687255859375,0.290435791015625,-0.8958587646484375
0.3323516845703125,0.2855377197265625,-0.91888427734375
0.3434600830078125,0.2925567626953125,-0.9659576416015624
0.360809326171875,0.27825927734375,-1.04351806640625
0.3687896728515625,0.2480926513671875,-1.1504058837890625
0.3460540771484375,0.3077239990234375,-1.2328033447265625
0.3644866943359375,0.2382965087890625,-1.1232757568359375
0.33331298828125,0.188720703125,-1.05645751953125
0.2634124755859375,0.1355133056640625,-0.9310760498046876
0.202728271484375,0.11053466796875,-0.871063232421875
0.1808013916015625,0.1792755126953125,-0.990203857421875
0.22845458984375,0.378326416015625,-1.1813507080078125
0.334808349609375,0.4453887939453125,-1.2354583740234375
0.400299072265625,0.4551544189453125,-1.1812591552734375
0.3673095703125,0.396759033203125,-1.065765380859375
0.303375244140625,0.3763580322265625,-0.942626953125
0.2253265380859375,0.3576507568359375,-0.955657958984375
0.2220916748046875,0.34564208984375,-0.9437103271484376
0.235565185546875,0.355072021484375,-0.8694610595703125
0.2359466552734375,0.3038787841796875,-0.785430908203125
0.23968505859375,0.2898101806640625,-0.753021240234375
0.2449951171875,0.2332000732421875,-0.7683258056640625
0.3134002685546875,0.1748504638671875,-0.7976531982421875
0.3663482666015625,0.1006927490234375,-0.8410186767578125
0.3791656494140625,0.15374755859375,-0.8841094970703125
0.4283294677734375,0.2330474853515625,-0.9485321044921876
0.4601287841796875,0.2578887939453125,-0.919921875
0.44720458984375,0.251800537109375,-0.9447784423828124
0.453704833984375,0.2780609130859375,-0.982086181640625
0.440948486328125,0.3295745849609375,-0.9503631591796876
0.4181060791015625,0.3401947021484375,-0.8609771728515625
0.37847900390625,0.35546875,-0.833648681640625
0.34783935546875,0.38372802734375,-0.8326568603515625
0.3487548828125,0.416717529296875,-0.8615570068359375
0.3797760009765625,0.4760894775390625,-0.9228973388671876
0.4287261962890625,0.528076171875,-0.9432373046875
0.490325927734375,0.5226593017578125,-0.9202423095703124
0.5291595458984375,0.4869842529296875,-0.8870391845703125
0.556060791015625,0.470428466796875,-0.87744140625
0.5623779296875,0.4515838623046875,-0.8739166259765625
0.560028076171875,0.412872314453125,-0.8645782470703125
0.548675537109375,0.3776092529296875,-0.84735107421875
0.5242156982421875,0.3545074462890625,-0.8604888916015625
0.5117645263671875,0.34088134765625,-0.887542724609375
0.4925537109375,0.3106842041015625,-0.9055938720703124
0.472564697265625,0.263427734375,-0.932647705078125
0.442840576171875,0.2329864501953125,-0.9777679443359376
0.3913726806640625,0.214813232421875,-1.0234375
0.317840576171875,0.168670654296875,-1.0253753662109375
0.2386474609375,0.1460723876953125,-0.9822235107421876
0.2249908447265625,0.1732177734375,-0.9997406005859376
0.215301513671875,0.23309326171875,-1.0477752685546875
0.1815643310546875,0.24462890625,-1.076263427734375
0.2179412841796875,0.2338409423828125,-1.0934600830078125
0.2478179931640625,0.2681427001953125,-1.0907745361328125
0.274932861328125,0.280029296875,-0.99462890625
0.2812652587890625,0.2744293212890625,-0.886383056640625
0.285797119140625,0.2635955810546875,-0.84100341796875
0.290771484375,0.2972869873046875,-0.873931884765625
0.3360137939453125,0.3321990966796875,-0.934417724609375
0.38909912109375,0.3499908447265625,-0.943115234375
0.4086761474609375,0.3440399169921875,-0.933380126953125
0.3976287841796875,0.3525543212890625,-0.90521240234375
0.3591461181640625,0.335662841796875,-0.8952789306640625
0.3105316162109375,0.304443359375,-0.87469482421875
0.2491455078125,0.287811279296875,-0.8665008544921875
0.201324462890625,0.3057403564453125,-0.90167236328125
0.1802215576171875,0.347259521484375,-0.9599761962890624
0.1921234130859375,0.5771636962890625,-1.2306671142578125
0.242889404296875,0.55828857421875,-1.0737152099609375
0.269500732421875,0.3664398193359375,-0.8337860107421875
0.1719207763671875,0.26763916015625,-0.780609130859375
0.1242218017578125,0.1118011474609375,-0.883148193359375
0.0960540771484375,0.0264739990234375,-0.9528656005859376
0.2290496826171875,0.20843505859375,-0.96795654296875
0.3842315673828125,0.4024505615234375,-0.9927825927734376
0.4201202392578125,0.418121337890625,-1.0081939697265625
0.3737030029296875,0.2651519775390625,-0.913726806640625
0.2946014404296875,0.1848602294921875,-0.925048828125
0.2886505126953125,0.26287841796875,-0.943206787109375
0.31121826171875,0.332733154296875,-0.91033935546875
0.359527587890625,0.309478759765625,-0.8787384033203125
0.3662261962890625,0.296112060546875,-0.8834075927734375
0.3155517578125,0.2983245849609375,-0.9039459228515624
0.2801361083984375,0.2953033447265625,-0.9294281005859376
0.2644195556640625,0.31927490234375,-0.9405975341796876
0.2697296142578125,0.3297576904296875,-0.921722412109375
0.2865447998046875,0.342041015625,-0.911468505859375
0.298828125,0.33331298828125,-0.893035888671875
0.3060760498046875,0.3230743408203125,-0.891265869140625
0.3108978271484375,0.3182373046875,-0.8788909912109375
0.306121826171875,0.301666259765625,-0.85980224609375
0.291717529296875,0.2855987548828125,-0.855377197265625
0.3265533447265625,0.3888702392578125,-1.0676727294921875
0.3643951416015625,0.488006591796875,-1.1385650634765625
0.3670654296875,0.2093353271484375,-0.882568359375
0.3342132568359375,0.1672515869140625,-0.9658966064453124
0.3385772705078125,0.3305511474609375,-1.04443359375
0.4548492431640625,0.334930419921875,-0.9127960205078124
0.52203369140625,0.3238983154296875,-0.799835205078125
0.553863525390625,0.4389801025390625,-0.8798828125
0.569488525390625,0.4972991943359375,-0.85174560546875
0.5282440185546875,0.533203125,-0.740875244140625
0.5817718505859375,0.459503173828125,-0.66265869140625
0.635345458984375,0.3909912109375,-0.702850341796875
0.5744171142578125,0.430328369140625,-0.7975921630859375
0.470428466796875,0.471649169921875,-0.9034576416015624
0.3692626953125,0.443084716796875,-0.970489501953125
0.3378143310546875,0.374420166015625,-0.9608917236328124
0.317962646484375,0.3556365966796875,-0.9295654296875
0.309051513671875,0.382598876953125,-0.9481201171875
0.335845947265625,0.404022216796875,-0.97064208984375
0.352142333984375,0.4082489013671875,-0.97344970703125
0.3464813232421875,0.4155426025390625,-0.9786834716796876
0.3286285400390625,0.367279052734375,-0.9527740478515624
0.2975616455078125,0.3301849365234375,-0.91229248046875
0.2558135986328125,0.336883544921875,-0.9197998046875
0.2392425537109375,0.3678131103515625,-0.921844482421875
0.2269134521484375,0.360870361328125,-0.8719482421875
0.212646484375,0.36444091796875,-0.8609161376953125
0.1951751708984375,0.3753204345703125,-0.8704071044921875
0.2086639404296875,0.350616455078125,-0.8154754638671875
0.217529296875,0.3517913818359375,-0.8079986572265625
0.2100677490234375,0.387054443359375,-0.864471435546875
0.21636962890625,0.3497314453125,-0.8846588134765625
0.2275543212890625,0.338531494140625,-0.91363525390625
0.22418212890625,0.3704681396484375,-0.964935302734375
0.246124267578125,0.3722076416015625,-1.0241241455078125
0.2888946533203125,0.3548736572265625,-1.06732177734375
0.30963134765625,0.2834625244140625,-1.0284423828125
0.2826995849609375,0.1858978271484375,-0.97601318359375
0.24713134765625,0.1817779541015625,-0.9517364501953124
0.1983184814453125,0.2359771728515625,-0.96484375
0.198638916015625,0.2919921875,-0.9609375
0.192962646484375,0.291717529296875,-0.950836181640625
0.173126220703125,0.2412872314453125,-0.9537200927734376
0.18292236328125,0.2004852294921875,-0.95263671875
0.1840972900390625,0.200225830078125,-0.9661712646484376
0.1999664306640625,0.2318878173828125,-0.9821624755859376
0.2292633056640625,0.244781494140625,-0.972686767578125
0.2392120361328125,0.255462646484375,-0.9459228515625
0.235076904296875,0.265869140625,-0.93115234375
0.23931884765625,0.252899169921875,-0.9125518798828124
0.2296295166015625,0.300872802734375,-0.94775390625
0.2434539794921875,0.3307952880859375,-0.9845733642578124
0.271636962890625,0.456298828125,-1.144805908203125
0.2764129638671875,0.3973541259765625,-1.008819580078125
0.299530029296875,0.3014984130859375,-1.0006256103515625
0.242401123046875,0.3918609619140625,-1.110137939453125
0.252288818359375,0.2901458740234375,-1.023223876953125
0.246337890625,0.147247314453125,-0.85113525390625
0.2135009765625,0.2285308837890625,-0.9210052490234376
0.21392822265625,0.4006805419921875,-1.0800018310546875
0.263092041015625,0.4638671875,-1.1481170654296875
0.294921875,0.37835693359375,-1.0196533203125
0.268798828125,0.316619873046875,-0.91986083984375
0.209197998046875,0.3390655517578125,-0.9182586669921876
0.1705474853515625,0.36834716796875,-0.90362548828125
0.16412353515625,0.3678131103515625,-0.8353271484375
0.164031982421875,0.371185302734375,-0.7805023193359375
0.149169921875,0.4036102294921875,-0.76513671875
0.1532135009765625,0.3968353271484375,-0.73248291015625
0.1891326904296875,0.3878936767578125,-0.7421722412109375
0.2472686767578125,0.3953704833984375,-0.8265228271484375
0.3308563232421875,0.380859375,-0.9365081787109376
0.43414306640625,0.33270263671875,-1.02520751953125
0.5103607177734375,0.3102569580078125,-1.1637725830078125
0.5252532958984375,0.4353179931640625,-1.272552490234375
0.5558013916015625,0.3313446044921875,-1.0262908935546875
0.5404052734375,0.197845458984375,-0.907135009765625
0.4496917724609375,0.1962127685546875,-0.952911376953125
0.4301605224609375,0.1200714111328125,-0.95263671875
0.3740386962890625,0.1307220458984375,-0.8914794921875
0.291046142578125,0.2315216064453125,-0.8630828857421875
0.242431640625,0.3513946533203125,-0.892242431640625
0.2037506103515625,0.4317626953125,-0.8890380859375
0.15087890625,0.3974609375,-0.833709716796875
0.11785888671875,0.3533935546875,-0.911651611328125
0.1552886962890625,0.35247802734375,-0.9174346923828124
0.1555938720703125,0.415283203125,-0.9190673828125
0.1562652587890625,0.4151763916015625,-0.94384765625
0.177032470703125,0.3802642822265625,-0.9303436279296876
0.194244384765625,0.365814208984375,-0.9203338623046876
0.2119293212890625,0.3450469970703125,-0.925537109375
0.2290802001953125,0.314117431640625,-0.97113037109375
0.2600860595703125,0.3193359375,-0.972808837890625
0.2885894775390625,0.2980194091796875,-0.9355926513671876
0.2483367919921875,0.30206298828125,-0.9422607421875
0.188568115234375,0.2756500244140625,-0.8725128173828125
0.147552490234375,0.27130126953125,-1.00335693359375
0.1875,0.25164794921875,-1.0126953125
0.26092529296875,0.25103759765625,-0.991851806640625
0.31011962890625,0.254486083984375,-0.9393310546875
0.30364990234375,0.2550048828125,-0.9227447509765624
0.274383544921875,0.2715606689453125,-0.9238739013671876
0.261322021484375,0.2660369873046875,-0.8948516845703125
0.282562255859375,0.2448272705078125,-0.979766845703125
0.305938720703125,0.2478179931640625,-0.991851806640625
0.30609130859375,0.2364654541015625,-1.028839111328125
0.332611083984375,0.1746063232421875,-1.0177154541015625
0.3172454833984375,0.216461181640625,-0.933868408203125
0.2847747802734375,0.242462158203125,-0.9244537353515624
0.2620697021484375,0.24066162109375,-0.9432220458984376
0.258056640625,0.247650146484375,-0.9280853271484376
0.2558441162109375,0.2539520263671875,-0.9075927734375
0.221771240234375,0.239837646484375,-0.9089202880859376
0.194000244140625,0.2451324462890625,-0.9009857177734376
0.2086639404296875,0.197967529296875,-0.895233154296875
0.2613677978515625,0.1161041259765625,-0.9055328369140624
0.2559051513671875,0.0248870849609375,-0.928192138671875
0.3195648193359375,-0.00567626953125,-1.021240234375
0.368499755859375,-0.02227783203125,-0.9970703125
0.3707733154296875,0.003448486328125,-1.0192108154296875
0.424896240234375,0.15496826171875,-1.152130126953125
0.5066680908203125,0.233673095703125,-1.134124755859375
0.443817138671875,0.1864013671875,-0.97857666015625
0.358367919921875,0.1472930908203125,-0.8877105712890625
0.3341064453125,0.2072296142578125,-0.9414825439453124
0.2449188232421875,0.2503814697265625,-0.9539337158203124
0.070465087890625,0.15472412109375,-0.4431304931640625
0.0516204833984375,0.0467529296875,-0.162567138671875
0.0162353515625,-0.00030517578125,-0.0067901611328125
0.0156097412109375,0.0001220703125,-0.010955810546875
0.014739990234375,0.0005035400390625,-0.013153076171875
0.01287841796875,-0.0002593994140625,-0.01837158203125
0.0114593505859375,0.000946044921875,-0.0239715576171875
0.0081024169921875,0.0001678466796875,-0.0290985107421875
0.00531005859375,0.001953125,-0.032989501953125
-1.8449554443359373,-0.7217864990234375,-7.66650390625
0.4842071533203125,-0.265594482421875,-3.366302490234375
-0.267822265625,0.0037841796875,-0.5089111328125
-0.10302734375,-0.2080078125,-0.1687164306640625
0.129852294921875,-0.448028564453125,-0.531219482421875
0.157867431640625,-0.575225830078125,-1.31414794921875
-0.08001708984375,-0.3200531005859375,-0.86090087890625
-0.023101806640625,-0.2737579345703125,-0.9456329345703124
-0.00341796875,-0.35870361328125,-0.9474639892578124
-0.0139312744140625,-0.3188323974609375,-0.94970703125
-0.01220703125,-0.3356781005859375,-0.9579315185546876
-0.012969970703125,-0.3296661376953125,-0.94989013671875
-0.0131988525390625,-0.3270416259765625,-0.9497833251953124
-0.0122528076171875,-0.332000732421875,-0.950897216796875
-0.031494140625,-0.32623291015625,-0.95123291015625
-0.0225372314453125,-0.3253936767578125,-0.9497833251953124
0.0039215087890625,-0.3421630859375,-0.95367431640625
-0.0098876953125,-0.311248779296875,-0.95208740234375
-0.01031494140625,-0.3341064453125,-0.954864501953125
-0.0133514404296875,-0.329437255859375,-0.9486846923828124
-0.015655517578125,-0.330810546875,-0.9480438232421876
-0.010711669921875,-0.3293914794921875,-0.9506988525390624
-0.01422119140625,-0.328765869140625,-0.9482879638671876
-0.0117950439453125,-0.329803466796875,-0.9505767822265624
-0.0135498046875,-0.329315185546875,-0.949859619140625
-0.012725830078125,-0.330291748046875,-0.9503631591796876
-0.01165771484375,-0.329803466796875,-0.948883056640625
-0.0124359130859375,-0.3302154541015625,-0.9493560791015624
-0.0119781494140625,-0.3296966552734375,-0.949615478515625
-0.012542724609375,-0.329681396484375,-0.9487762451171876
-0.0130462646484375,-0.329193115234375,-0.94989013671875
-0.0154571533203125,-0.330291748046875,-0.9536285400390624
-0.0173492431640625,-0.325225830078125,-0.9479522705078124
-0.0142364501953125,-0.332550048828125,-0.9424896240234376
-0.0152587890625,-0.3248443603515625,-0.948883056640625
-0.01593017578125,-0.3276214599609375,-0.95037841796875
-0.020721435546875,-0.3179779052734375,-0.958343505859375
-0.008819580078125,-0.3407440185546875,-0.9386444091796876
-0.0151519775390625,-0.3334197998046875,-0.9469757080078124
-0.012542724609375,-0.3264923095703125,-0.9512176513671876
-0.0153656005859375,-0.330108642578125,-0.9480133056640624
-0.012420654296875,-0.3294525146484375,-0.9484710693359376
-0.01416015625,-0.328643798828125,-0.9493865966796876
-0.0147705078125,-0.329010009765625,-0.9489593505859376
-0.0128936767578125,-0.329803466796875,-0.950042724609375
-0.0128021240234375,-0.328155517578125,-0.949432373046875
-0.014404296875,-0.32952880859375,-0.949951171875
-0.013671875,-0.329742431640625,-0.949615478515625
-0.0137786865234375,-0.3304595947265625,-0.9509735107421876
-0.0126800537109375,-0.3295440673828125,-0.9494171142578124
-0.0134735107421875,-0.3294219970703125,-0.9495391845703124
-0.0129852294921875,-0.329315185546875,-0.9493560791015624
-0.01531982421875,-0.3283233642578125,-0.9495849609375
-0.01312255859375,-0.3288726806640625,-0.9524688720703124
-0.0127105712890625,-0.3291778564453125,-0.949676513671875
-0.013519287109375,-0.328582763671875,-0.948486328125
-0.01318359375,-0.329071044921875,-0.951934814453125
-0.0137939453125,-0.3287200927734375,-0.9491729736328124
-0.0135498046875,-0.32916259765625,-0.9488067626953124
-0.012786865234375,-0.3297271728515625,-0.9493408203125
-0.0131988525390625,-0.3296051025390625,-0.949554443359375
-0.0130462646484375,-0.3296356201171875,-0.950439453125
-0.0126953125,-0.329864501953125,-0.9501800537109376
-0.0129241943359375,-0.3292694091796875,-0.95111083984375
-0.0127410888671875,-0.330780029296875,-0.9493408203125
-0.0131072998046875,-0.3295745849609375,-0.9500885009765624
-0.01300048828125,-0.3307342529296875,-0.949371337890625
-0.0125579833984375,-0.32916259765625,-0.9499969482421876
-0.013916015625,-0.32818603515625,-0.9494781494140624
-0.0118865966796875,-0.3307647705078125,-0.9504241943359376
-0.0135345458984375,-0.3306732177734375,-0.949859619140625
-0.0121002197265625,-0.33160400390625,-0.9509735107421876
-0.0125885009765625,-0.32891845703125,-0.949554443359375
-0.0142669677734375,-0.3312225341796875,-0.9501190185546876
-0.011810302734375,-0.328369140625,-0.94866943359375
-0.01397705078125,-0.3307952880859375,-0.9484405517578124
-0.0121002197265625,-0.3306884765625,-0.9514312744140624
-0.0135345458984375,-0.3289794921875,-0.947601318359375
-0.01318359375,-0.328643798828125,-0.9478302001953124
-0.0126800537109375,-0.3300933837890625,-0.9506988525390624
-0.013458251953125,-0.3291015625,-0.9487457275390624
-0.01226806640625,-0.330291748046875,-0.9497528076171876
-0.0123748779296875,-0.330108642578125,-0.95074462890625
-0.01287841796875,-0.3276824951171875,-0.9492950439453124
-0.01287841796875,-0.3305511474609375,-0.9490203857421876
-0.0127105712890625,-0.3278961181640625,-0.949371337890625
-0.012420654296875,-0.3302154541015625,-0.94915771484375
-0.0135498046875,-0.3291015625,-0.9503631591796876
-0.0119476318359375,-0.330780029296875,-0.9493865966796876
-0.0144500732421875,-0.329071044921875,-0.9493255615234376
-0.013092041015625,-0.3308258056640625,-0.949249267578125
-0.0127410888671875,-0.33087158203125,-0.950164794921875
-0.0128326416015625,-0.3290557861328125,-0.9491729736328124
-0.0122833251953125,-0.330902099609375,-0.9496917724609376
-0.0128326416015625,-0.330718994140625,-0.9496917724609376
-0.0129852294921875,-0.330322265625,-0.950042724609375
-0.0123443603515625,-0.3295135498046875,-0.948486328125
-0.0115814208984375,-0.3284759521484375,-0.948638916015625
-0.012359619140625,-0.3303985595703125,-0.9486846923828124
-0.0106048583984375,-0.331024169921875,-0.9465484619140624
-0.01116943359375,-0.33428955078125,-0.948760986328125
-0.0086212158203125,-0.3318939208984375,-0.9492034912109376
-0.009521484375,-0.3269195556640625,-0.9478759765625
-0.0086822509765625,-0.33489990234375,-0.9477386474609376
-0.008148193359375,-0.3346710205078125,-0.9508209228515624
-0.006134033203125,-0.33172607421875,-0.9454193115234376
-0.005828857421875,-0.336090087890625,-0.9485931396484376
-0.0043792724609375,-0.3325347900390625,-0.9480133056640624
-0.004791259765625,-0.33074951171875,-0.9477996826171876
-0.0048828125,-0.3336944580078125,-0.9468994140625
-0.000335693359375,-0.3368377685546875,-0.947052001953125
-0.001434326171875,-0.3405914306640625,-0.9493865966796876
3.0517578125e-05,-0.33599853515625,-0.9478302001953124
0.0009613037109375,-0.3383941650390625,-0.94732666015625
0.00128173828125,-0.337860107421875,-0.9425506591796876
0.005157470703125,-0.3323211669921875,-0.9259185791015624
0.01629638671875,-0.3475799560546875,-0.9527587890625
0.017425537109375,-0.37750244140625,-1.0169677734375
