AccelerationX,AccelerationY,AccelerationZ
-0.2380218505859375,0.754638671875,-0.6483917236328125
-0.240692138671875,0.7327880859375,-0.593841552734375
-0.24322509765625,0.7266387939453125,-0.5912017822265625
-0.246307373046875,0.7379302978515625,-0.665618896484375
-0.2577972412109375,0.73486328125,-0.6086883544921875
-0.24163818359375,0.7117767333984375,-0.633392333984375
-0.23834228515625,0.705963134765625,-0.6320953369140625
-0.2256011962890625,0.72125244140625,-0.70208740234375
-0.2598419189453125,0.7340545654296875,-0.643798828125
-0.28973388671875,0.7054443359375,-0.5700225830078125
-0.2906646728515625,0.7014617919921875,-0.576141357421875
-0.2494354248046875,0.71142578125,-0.6088409423828125
-0.3039093017578125,0.7160797119140625,-0.6446685791015625
-0.39453125,0.7109527587890625,-0.559478759765625
-0.4241180419921875,0.7237091064453125,-0.4447479248046875
-0.4091033935546875,0.7016754150390625,-0.3903961181640625
-0.35357666015625,0.73779296875,-0.2980804443359375
-0.450836181640625,0.879608154296875,-0.2889556884765625
-0.5985565185546875,0.8690185546875,-0.3131256103515625
-0.7661285400390625,0.7267913818359375,-0.3094482421875
-0.84149169921875,0.6179962158203125,-0.12774658203125
-0.8230438232421875,0.680999755859375,-0.108306884765625
-0.699249267578125,0.6904144287109375,-0.2794342041015625
-0.8272552490234375,0.6781158447265625,-0.2181549072265625
-0.9179840087890624,0.7462158203125,-0.18939208984375
-0.9586181640625,0.773193359375,-0.10125732421875
-1.0488433837890625,0.727081298828125,-0.04058837890625
-0.984649658203125,0.77435302734375,-0.2536163330078125
-0.9862518310546876,0.8279876708984375,-0.4093780517578125
-1.02679443359375,0.798980712890625,-0.3792572021484375
-1.0123443603515625,0.8227691650390625,-0.289306640625
-1.00836181640625,1.0597991943359375,-0.1473388671875
-1.060150146484375,1.2275543212890625,-0.0287628173828125
-0.959625244140625,1.3139190673828125,-0.1011199951171875
-0.8132781982421875,1.2640380859375,-0.1681060791015625
-0.593475341796875,1.211456298828125,-0.08331298828125
-0.431396484375,1.1164398193359375,0.0296783447265625
-0.3904876708984375,1.0551300048828125,0.1319122314453125
-0.374908447265625,1.2232208251953125,0.2201690673828125
-0.176849365234375,1.1829071044921875,0.1790771484375
0.025054931640625,0.98760986328125,0.2772979736328125
0.4175262451171875,0.8330078125,0.113555908203125
0.2500762939453125,0.70556640625,-0.12890625
-0.0658111572265625,0.8039703369140625,0.1486053466796875
-0.3007354736328125,1.1044158935546875,0.1081390380859375
-0.4616241455078125,1.64093017578125,-0.0968780517578125
-0.52593994140625,1.850006103515625,-0.2056732177734375
-0.8226318359375,1.5225372314453125,-0.2083587646484375
-1.0974578857421875,1.2171478271484375,-0.2047882080078125
-1.09857177734375,0.980194091796875,-0.037353515625
-1.1883544921875,0.840057373046875,0.1289215087890625
-1.47113037109375,1.01824951171875,-0.21307373046875
-1.3838958740234375,1.22552490234375,-0.4520111083984375
-1.0353851318359375,1.3125,-0.496551513671875
-0.780120849609375,1.2983856201171875,-0.385589599609375
-0.6562042236328125,1.1826019287109375,-0.213714599609375
-0.599609375,1.3822021484375,-0.0678253173828125
-0.4039306640625,1.4350433349609375,0.2342376708984375
-0.5225830078125,1.5285491943359375,0.0132293701171875
-0.5007476806640625,1.6629638671875,-0.2430419921875
-0.35711669921875,1.4470062255859375,-0.463226318359375
-0.403076171875,1.1057586669921875,-0.3626861572265625
-0.3134307861328125,1.0380706787109375,-0.2139434814453125
-0.1887969970703125,1.0665283203125,0.0286865234375
-0.11639404296875,0.9786224365234376,-0.0546112060546875
0.063079833984375,1.0164794921875,0.015228271484375
0.1767730712890625,0.97698974609375,0.126983642578125
0.1297454833984375,0.95611572265625,0.0365753173828125
0.1497650146484375,0.81317138671875,-0.0729827880859375
0.05413818359375,0.822662353515625,-0.0452423095703125
0.083587646484375,0.951416015625,0.0138397216796875
-0.0814056396484375,1.07611083984375,0.1771087646484375
-0.3769683837890625,1.3560028076171875,0.341339111328125
-0.4889678955078125,1.428314208984375,0.267852783203125
-0.6259307861328125,1.3854827880859375,0.019439697265625
-0.7075958251953125,1.3026885986328125,-0.2083740234375
-0.8196563720703125,1.183624267578125,-0.0522003173828125
-0.8886871337890625,1.1327362060546875,-0.0035858154296875
-0.85711669921875,1.173004150390625,-0.17572021484375
-0.7615203857421875,1.2189788818359375,-0.3767852783203125
-0.7213134765625,1.2736663818359375,-0.1861572265625
-0.5439910888671875,1.0191192626953125,-0.184722900390625
-0.9964599609375,0.893463134765625,-0.3793182373046875
-1.0661468505859375,1.04473876953125,-0.742218017578125
-0.57122802734375,1.55157470703125,-0.8355560302734375
-0.1297607421875,1.8841400146484373,-0.6348724365234375
0.139312744140625,1.8045654296875,-0.5420074462890625
-0.3162689208984375,1.4617919921875,0.221343994140625
-0.651947021484375,1.3115386962890625,0.137451171875
-0.4029083251953125,1.4382476806640625,-0.0821075439453125
-0.018035888671875,1.4232330322265625,0.0599517822265625
0.20745849609375,1.4567108154296875,0.1788482666015625
0.3946685791015625,1.4103851318359375,0.1875
1.1363067626953125,1.3834686279296875,0.2778167724609375
1.0250396728515625,1.2360992431640625,0.153045654296875
0.1493377685546875,1.3219146728515625,-0.2447052001953125
-0.0070343017578125,1.136444091796875,-0.2066192626953125
-0.433929443359375,1.5634765625,-0.0730133056640625
-0.573577880859375,1.6150054931640625,0.0398406982421875
-0.626068115234375,1.475555419921875,-0.1186065673828125
-0.549713134765625,1.1785888671875,-0.3566131591796875
-0.629425048828125,0.93603515625,-0.214141845703125
-0.7338714599609375,0.9333953857421876,0.117401123046875
-0.7209930419921875,1.004669189453125,0.07562255859375
-0.7422027587890625,1.2354278564453125,-0.33294677734375
-1.06915283203125,1.2292633056640625,-0.5168304443359375
-1.417572021484375,1.08966064453125,-0.9640960693359376
-1.146942138671875,1.15185546875,-0.5974273681640625
-0.62921142578125,1.316680908203125,-0.49786376953125
-0.636077880859375,1.461639404296875,-0.4828033447265625
-0.685699462890625,1.7260589599609375,-0.3297882080078125
-0.535980224609375,1.80291748046875,-0.38690185546875
-0.3757171630859375,1.5531158447265625,-0.46380615234375
-0.4401397705078125,1.4303741455078125,-0.2538604736328125
-0.4150390625,1.525360107421875,0.0817718505859375
-0.1858062744140625,1.560150146484375,0.2089996337890625
0.253662109375,1.4089813232421875,0.1535491943359375
0.684417724609375,1.0858917236328125,0.0453948974609375
0.707763671875,0.816131591796875,0.03289794921875
0.4442596435546875,0.6507110595703125,0.0935821533203125
0.1501007080078125,0.9533538818359376,0.16180419921875
0.185791015625,1.1068878173828125,0.0775299072265625
-0.14031982421875,1.496246337890625,-0.172271728515625
-0.249053955078125,1.76947021484375,-0.214508056640625
-0.47821044921875,1.7082061767578125,-0.3236846923828125
-0.798126220703125,1.3231353759765625,-0.206787109375
-0.749755859375,1.1572418212890625,-0.1841278076171875
-0.630767822265625,1.1579742431640625,-0.287384033203125
-0.6170654296875,1.1494903564453125,-0.2265167236328125
-0.62451171875,1.378692626953125,-0.076263427734375
-0.7073211669921875,1.5056915283203125,-0.4556427001953125
-1.1318359375,1.11663818359375,-0.94219970703125
-1.5233612060546875,0.772430419921875,-0.9337615966796876
-1.397491455078125,1.116790771484375,-0.5775299072265625
-0.904327392578125,1.3195343017578125,-0.6648406982421875
-0.948944091796875,1.793975830078125,-0.6574249267578125
-0.902374267578125,2.2068328857421875,-0.7034912109375
-0.6471099853515625,1.9765472412109373,-0.8124847412109375
-0.65362548828125,1.88043212890625,-0.521636962890625
-0.435638427734375,1.9364471435546875,-0.1337738037109375
-0.267791748046875,1.6884613037109375,-0.0001373291015625
-0.1673126220703125,1.428314208984375,-0.3028717041015625
-0.17401123046875,1.4388580322265625,-0.5067138671875
-0.1677093505859375,1.467620849609375,-0.4737548828125
-0.065887451171875,1.11981201171875,-0.443206787109375
-0.060699462890625,0.9085235595703124,-0.2007598876953125
0.123626708984375,0.7392578125,-0.2618560791015625
0.2065277099609375,0.749053955078125,-0.31396484375
0.2247161865234375,0.64447021484375,-0.2294158935546875
-0.0049896240234375,0.9364013671875,-0.05126953125
-0.1363067626953125,1.4671783447265625,0.1061248779296875
-0.5133514404296875,1.936004638671875,0.0957489013671875
-0.8240814208984375,2.282867431640625,0.0065460205078125
-0.9454498291015624,2.257720947265625,-0.2142486572265625
-1.149566650390625,1.9031219482421875,-0.092926025390625
-1.33258056640625,1.6785736083984375,0.0131683349609375
-1.535797119140625,1.34710693359375,0.2276458740234375
-1.3650360107421875,1.2671356201171875,0.0407562255859375
-1.049407958984375,1.220703125,-0.0899200439453125
-1.195220947265625,1.10577392578125,-0.2997589111328125
-1.4267425537109375,1.3320159912109375,-0.3671417236328125
-1.1062164306640625,1.055084228515625,-0.11334228515625
-1.0311279296875,1.5178375244140625,-0.1971282958984375
-0.970977783203125,1.9371490478515625,-0.2264556884765625
-0.769195556640625,2.24114990234375,-0.335968017578125
-0.72186279296875,2.223236083984375,-0.4013671875
-0.5815887451171875,2.178939819335937,-0.3624420166015625
-0.3354339599609375,1.946014404296875,-0.286163330078125
-0.2156219482421875,1.67919921875,-0.179351806640625
-0.026458740234375,1.34149169921875,-0.192474365234375
0.0665740966796875,1.0224456787109375,-0.11431884765625
0.144073486328125,0.738372802734375,0.062652587890625
0.1309356689453125,0.6953125,0.0017242431640625
0.3248291015625,0.663787841796875,0.027587890625
0.217193603515625,0.857513427734375,0.071380615234375
0.0868988037109375,1.1736907958984375,0.075653076171875
-0.189849853515625,1.4629364013671875,-0.037872314453125
-0.53338623046875,1.58111572265625,0.077178955078125
-0.73284912109375,1.6759796142578125,0.1983489990234375
-0.7252960205078125,1.9103851318359373,0.029052734375
-0.8123626708984375,2.247406005859375,-0.16937255859375
-1.0268096923828125,2.1774139404296875,-0.3226165771484375
-1.509613037109375,1.833038330078125,-0.196685791015625
-2.1088409423828125,1.392852783203125,-0.274078369140625
-1.663909912109375,1.0169219970703125,-0.5311126708984375
-1.03558349609375,0.9893035888671876,-0.585784912109375
-0.9185333251953124,0.8689422607421875,-0.2892913818359375
-0.9076690673828124,1.1095733642578125,-0.1764984130859375
-0.81182861328125,1.588775634765625,-0.2830963134765625
-0.668365478515625,1.835235595703125,-0.419158935546875
-0.709197998046875,1.865325927734375,-0.343475341796875
-0.6892547607421875,1.990997314453125,-0.185394287109375
-0.4765167236328125,1.948638916015625,0.0123291015625
-0.3090667724609375,1.7461395263671875,-0.134063720703125
-0.2685546875,1.486602783203125,-0.2699737548828125
-0.180206298828125,1.2087554931640625,-0.233612060546875
-0.15863037109375,0.9916229248046876,-0.0789337158203125
-0.09637451171875,0.75518798828125,-0.125885009765625
-0.1153411865234375,0.5915069580078125,-0.28656005859375
-0.1285552978515625,0.6205902099609375,-0.2079620361328125
-0.0341033935546875,0.773590087890625,-0.185638427734375
-0.198394775390625,0.891204833984375,-0.1009521484375
-0.407989501953125,0.954742431640625,0.003326416015625
-0.6621551513671875,1.047698974609375,0.227874755859375
-0.85455322265625,1.170318603515625,0.3509674072265625
-1.03509521484375,1.286285400390625,0.2828216552734375
-1.10650634765625,1.27655029296875,0.18646240234375
-1.20489501953125,1.1124725341796875,0.0823974609375
-1.08660888671875,0.986328125,-0.0153045654296875
-1.0193634033203125,0.9097137451171876,-0.614288330078125
-0.7294921875,0.9869537353515624,-0.48028564453125
-0.601776123046875,1.0308837890625,-0.2196044921875
-0.6847076416015625,0.924163818359375,-0.3603973388671875
-0.8507080078125,0.9841766357421876,-0.3656463623046875
-0.7667083740234375,1.0890960693359375,-0.761383056640625
-0.7101593017578125,1.142333984375,-1.094879150390625
-0.871185302734375,1.06744384765625,-0.70379638671875
-0.8146209716796875,1.1541748046875,-0.49237060546875
-0.5393218994140625,1.3330841064453125,-0.37615966796875
-0.2861480712890625,1.1456298828125,-0.2109527587890625
-0.2303924560546875,0.9175262451171876,-0.184326171875
-0.2296905517578125,0.8302459716796875,-0.2378387451171875
-0.0274505615234375,0.7769927978515625,-0.1717987060546875
0.0593109130859375,0.7236328125,-0.0467071533203125
0.1139068603515625,0.8285064697265625,0.0484619140625
0.0363006591796875,1.0267486572265625,0.0822906494140625
-0.29571533203125,1.2295379638671875,0.0231170654296875
-0.643463134765625,1.481964111328125,0.0266571044921875
-0.738922119140625,1.4741668701171875,0.0395660400390625
-0.7280731201171875,1.268646240234375,0.0049591064453125
-0.6005401611328125,1.107940673828125,-0.09600830078125
-0.565704345703125,1.0352630615234375,-0.0163421630859375
-0.53955078125,1.061492919921875,0.0421905517578125
-0.6199188232421875,1.0308990478515625,-0.041595458984375
-0.6915435791015625,1.0340576171875,-0.0767669677734375
-0.7358856201171875,1.052276611328125,-0.0883941650390625
-0.8452301025390625,1.02178955078125,-0.0841217041015625
-0.743927001953125,1.04571533203125,-0.0511016845703125
-0.818115234375,0.9952239990234376,-0.2077789306640625
-1.0467529296875,0.9523468017578124,-0.264862060546875
-1.1392669677734375,0.905548095703125,-0.060028076171875
-1.0479888916015625,1.3180084228515625,-0.1502838134765625
-0.933624267578125,1.823516845703125,-0.29998779296875
-0.7655792236328125,2.0282745361328125,-0.36810302734375
-0.605499267578125,1.932159423828125,-0.440948486328125
-0.407073974609375,1.77520751953125,-0.43011474609375
-0.2082366943359375,1.5692138671875,-0.3273773193359375
-0.1996612548828125,1.395904541015625,-0.253204345703125
-0.0940704345703125,1.261016845703125,-0.1635589599609375
0.0571441650390625,1.007354736328125,-0.0948028564453125
0.1196746826171875,0.7953643798828125,-0.116607666015625
0.169921875,0.6163177490234375,-0.024658203125
0.0582275390625,0.6885223388671875,0.0800018310546875
-0.0124969482421875,0.8404998779296875,0.1902923583984375
-0.17816162109375,1.20068359375,0.016143798828125
-0.3536529541015625,1.485015869140625,-0.091156005859375
-0.4921875,1.41546630859375,-0.178497314453125
-0.67706298828125,1.244384765625,-0.157318115234375
-0.6725006103515625,1.18975830078125,0.023773193359375
-0.61767578125,1.32525634765625,0.1420440673828125
-0.737091064453125,1.4605712890625,0.09930419921875
-0.8202362060546875,1.421661376953125,-0.0544281005859375
-1.073699951171875,1.3532257080078125,-0.28314208984375
-1.259857177734375,1.0672149658203125,-0.268524169921875
-1.224456787109375,0.88836669921875,-0.1724853515625
-0.91949462890625,1.034637451171875,-0.1362152099609375
-0.6865386962890625,0.9400482177734376,-0.1380767822265625
-0.8152618408203125,1.006561279296875,-0.063140869140625
-0.9397125244140624,1.4112396240234375,-0.031585693359375
-0.80938720703125,1.6573638916015625,-0.126129150390625
-0.8053436279296875,1.6790924072265625,-0.2153778076171875
-0.6935272216796875,1.74346923828125,0.0023651123046875
-0.41204833984375,1.683563232421875,0.196533203125
-0.25811767578125,1.45733642578125,0.1986236572265625
-0.206390380859375,1.2605438232421875,0.1232757568359375
-0.06268310546875,1.1100921630859375,0.16839599609375
0.0576629638671875,0.9184417724609376,0.2926025390625
0.0813446044921875,0.7578887939453125,0.2724761962890625
0.0758209228515625,0.8036956787109375,0.090240478515625
0.1017608642578125,0.8892059326171875,-0.255126953125
-0.0408935546875,0.958648681640625,-0.5012359619140625
-0.2837677001953125,1.1174774169921875,-0.2216796875
-0.47039794921875,1.3412322998046875,-0.1100006103515625
-0.5528106689453125,1.3164520263671875,-0.1265106201171875
-0.70281982421875,1.136871337890625,-0.04864501953125
-0.7305908203125,0.9924468994140624,-0.0216217041015625
-0.6562347412109375,1.0319061279296875,-0.2909088134765625
-0.7757110595703125,1.1528472900390625,-0.397369384765625
-1.20880126953125,1.30389404296875,-0.2325286865234375
-1.3745574951171875,1.3103790283203125,-0.1050872802734375
-1.3365020751953125,1.19476318359375,-0.13128662109375
-1.2953948974609375,0.8722686767578125,-0.1662750244140625
-1.323638916015625,0.9044647216796876,-0.1837005615234375
-0.96875,0.989654541015625,-0.2002105712890625
-0.77703857421875,1.2049560546875,-0.389007568359375
-0.66473388671875,1.3212432861328125,-0.4898834228515625
-0.614837646484375,1.2439117431640625,-0.40057373046875
-0.592987060546875,1.115753173828125,-0.3112030029296875
-0.6023406982421875,1.14111328125,-0.2340087890625
-0.571197509765625,1.2310333251953125,-0.14141845703125
-0.365386962890625,1.2272796630859375,-0.0629119873046875
-0.1960601806640625,1.1906280517578125,-0.0966796875
-0.1589508056640625,1.14215087890625,-0.1068115234375
-0.062896728515625,1.099853515625,-0.0585174560546875
0.1413116455078125,0.9536590576171876,0.0937652587890625
0.376708984375,0.78265380859375,-0.0116424560546875
0.289276123046875,0.870697021484375,-0.115081787109375
0.0826873779296875,0.908538818359375,-0.0951690673828125
-0.18707275390625,1.365386962890625,0.007354736328125
-0.3731689453125,1.7075042724609375,0.1236724853515625
-0.5377197265625,1.6137847900390625,-0.0036163330078125
-0.72967529296875,1.401092529296875,-0.121917724609375
-0.7854766845703125,1.285858154296875,-0.087890625
-0.7924041748046875,1.2529144287109375,0.0593109130859375
-0.83099365234375,1.1841278076171875,-0.0301361083984375
-0.8626708984375,1.341644287109375,-0.1757965087890625
-0.8247528076171875,1.38580322265625,0.0002593994140625
-0.940521240234375,1.0379791259765625,0.043060302734375
-1.450836181640625,0.97674560546875,-0.2037353515625
-1.1586761474609375,1.1005859375,-0.0726318359375
-0.864990234375,1.283843994140625,-0.1213836669921875
-0.85491943359375,1.56610107421875,-0.20867919921875
-0.88543701171875,1.7784423828125,-0.2022857666015625
-0.7118072509765625,1.810821533203125,-0.262176513671875
-0.5286102294921875,1.8399810791015625,-0.3154144287109375
-0.3603057861328125,1.75555419921875,-0.322784423828125
-0.2291107177734375,1.58154296875,-0.2819061279296875
-0.115264892578125,1.4302215576171875,-0.2064056396484375
0.077392578125,1.313873291015625,-0.1984100341796875
0.5980377197265625,1.16021728515625,-0.027923583984375
0.8801116943359375,0.97564697265625,-0.44384765625
0.34423828125,0.7161102294921875,-0.2595977783203125
0.22314453125,0.70660400390625,0.494140625
0.398101806640625,1.477935791015625,0.603607177734375
0.0841064453125,2.499786376953125,-0.2838592529296875
-0.5961456298828125,2.817245483398437,-0.7151641845703125
-1.171844482421875,2.265411376953125,-0.2311248779296875
-1.3038482666015625,1.68951416015625,0.173065185546875
-1.180419921875,1.153717041015625,0.3722686767578125
-1.1103668212890625,1.0233917236328125,-0.1812896728515625
-0.8637542724609375,0.9712066650390624,-0.2934722900390625
-0.6781768798828125,1.1321868896484375,-0.1449432373046875
-0.67010498046875,1.1355133056640625,-0.27020263671875
-0.7817840576171875,0.9596099853515624,-0.5055084228515625
-0.9306488037109376,0.8795928955078125,-0.479156494140625
-0.8787841796875,1.05010986328125,-0.2471160888671875
-0.8652496337890625,1.2511444091796875,-0.188201904296875
-0.9990997314453124,1.5120849609375,-0.36346435546875
-1.11065673828125,2.1377410888671875,-0.3781280517578125
-0.947906494140625,2.68804931640625,-0.3463897705078125
-0.8121185302734375,2.8029327392578125,-0.23468017578125
-0.4659881591796875,2.4339752197265625,-0.1111907958984375
-0.1271209716796875,1.8173675537109373,0.01727294921875
-0.0139007568359375,1.279510498046875,0.205810546875
0.0959625244140625,0.9775390625,0.338287353515625
0.3297119140625,0.7955322265625,0.2722625732421875
0.4850311279296875,0.6586761474609375,0.1031036376953125
0.430633544921875,0.5941162109375,0.0418701171875
0.1566162109375,0.7542724609375,0.1097869873046875
0.02862548828125,1.050567626953125,0.0082244873046875
-0.404754638671875,1.3274383544921875,-0.175811767578125
-0.75823974609375,1.607391357421875,-0.3537750244140625
-0.7060699462890625,1.87548828125,-0.4228363037109375
-0.700653076171875,1.9192352294921875,-0.5280914306640625
-0.9027557373046876,1.729736328125,-0.565826416015625
-1.037445068359375,1.439544677734375,-0.491973876953125
-0.976226806640625,1.217010498046875,-0.5308074951171875
-0.8726348876953125,1.2054901123046875,-0.4744415283203125
-0.915924072265625,1.372528076171875,-0.311553955078125
-1.0012664794921875,1.283355712890625,-0.169097900390625
-1.0832672119140625,0.9931488037109376,-0.2572174072265625
-1.212646484375,0.8339996337890625,-0.5352020263671875
-1.22357177734375,0.8816375732421875,-0.588134765625
-0.9805908203125,0.9649505615234376,-0.283721923828125
-0.93389892578125,1.29669189453125,-0.31524658203125
-0.9038543701171876,1.6447601318359375,-0.331451416015625
-0.8021087646484375,1.8329315185546875,-0.3244781494140625
-0.66790771484375,1.8570404052734373,-0.2854766845703125
-0.4925689697265625,1.8003082275390625,-0.1921844482421875
-0.3067779541015625,1.69964599609375,-0.1916046142578125
-0.221435546875,1.411224365234375,-0.114227294921875
-0.1436767578125,1.126861572265625,-0.03271484375
0.0819244384765625,0.9197540283203124,-0.0162506103515625
0.35992431640625,0.7476348876953125,0.010894775390625
0.4481353759765625,0.689605712890625,-0.1077423095703125
0.1493682861328125,0.89093017578125,-0.1153717041015625
0.0620880126953125,1.1182403564453125,-0.072784423828125
-0.2082061767578125,1.510345458984375,-0.09075927734375
-0.4977264404296875,1.779754638671875,-0.0035552978515625
-0.6286468505859375,1.8260955810546875,0.0185089111328125
-0.69781494140625,1.754150390625,-0.0885467529296875
-0.7686767578125,1.7609710693359375,-0.070343017578125
-0.818359375,1.8141632080078125,-0.13665771484375
-0.862518310546875,1.688751220703125,-0.283477783203125
-1.150421142578125,1.3394012451171875,-0.1902923583984375
-1.6209869384765625,0.9907073974609376,-0.1402740478515625
-1.2500457763671875,0.8231353759765625,0.2313232421875
-0.885528564453125,0.9289703369140624,0.184112548828125
-0.8267059326171875,1.0655517578125,-0.06781005859375
-0.886749267578125,1.203582763671875,-0.1247100830078125
-0.90185546875,1.541900634765625,-0.21600341796875
-0.9078521728515624,1.9779052734375,-0.342041015625
-0.8193206787109375,2.159652709960937,-0.45111083984375
-0.7012939453125,2.142120361328125,-0.4940185546875
-0.5153656005859375,2.077301025390625,-0.4363555908203125
-0.3039398193359375,1.8804931640625,-0.360015869140625
-0.2051849365234375,1.58831787109375,-0.295745849609375
-0.1690216064453125,1.2925567626953125,-0.2655487060546875
-0.0983123779296875,1.0492706298828125,-0.220428466796875
-0.0062103271484375,0.820831298828125,-0.1678466796875
0.0330047607421875,0.6644439697265625,-0.1016998291015625
0.1111297607421875,0.587127685546875,-0.1010284423828125
0.1882476806640625,0.5523529052734375,-0.127197265625
0.07440185546875,0.727630615234375,-0.0244140625
-0.1340484619140625,1.0618133544921875,0.1533355712890625
-0.4079132080078125,1.4859466552734375,0.2532501220703125
-0.756744384765625,1.7796478271484375,0.400909423828125
-1.086822509765625,1.8307037353515625,0.61181640625
-1.254669189453125,1.7445831298828125,0.6396331787109375
-1.32159423828125,1.4108734130859375,0.5740966796875
-1.328369140625,1.058349609375,0.6490325927734375
-1.149017333984375,0.868621826171875,0.6968841552734375
-0.96966552734375,0.81072998046875,0.556060791015625
-0.784698486328125,0.8107757568359375,0.342864990234375
-0.7598876953125,0.765533447265625,0.208465576171875
-0.7998199462890625,0.8464508056640625,0.1470947265625
-0.7573699951171875,0.932708740234375,-0.022064208984375
-0.68988037109375,0.9484405517578124,-0.3156585693359375
-0.5412445068359375,0.9063262939453124,-0.5348052978515625
-0.411346435546875,0.9624786376953124,-0.70513916015625
-0.46429443359375,0.9423675537109376,-0.796844482421875
-0.4792327880859375,1.0077362060546875,-0.89910888671875
-0.5052947998046875,0.99554443359375,-1.021728515625
-0.61041259765625,1.070709228515625,-0.9571685791015624
-0.7496490478515625,1.2206878662109375,-0.7830657958984375
-0.6226806640625,1.295562744140625,-0.7892608642578125
-0.6095733642578125,1.3482666015625,-0.724517822265625
-0.678619384765625,1.4190673828125,-0.5503387451171875
-0.5865478515625,1.5030517578125,-0.52630615234375
-0.403717041015625,1.494537353515625,-0.620758056640625
-0.116302490234375,1.339874267578125,-0.5271453857421875
0.1514434814453125,1.0847015380859375,-0.2200775146484375
0.5702056884765625,1.0246734619140625,0.0081024169921875
0.583709716796875,1.1007537841796875,0.083953857421875
0.08935546875,1.22930908203125,0.29742431640625
-0.1939544677734375,1.3700103759765625,0.351593017578125
-0.0021514892578125,1.5582427978515625,0.032745361328125
-0.245513916015625,1.49853515625,0.025726318359375
-0.641082763671875,1.324462890625,0.47900390625
-0.86309814453125,1.10040283203125,0.455596923828125
-0.83514404296875,0.9906768798828124,0.1263885498046875
-0.8444671630859375,1.021881103515625,0.0683746337890625
-0.84814453125,1.1101226806640625,-0.0013885498046875
-0.7837982177734375,1.120452880859375,-0.1895294189453125
-0.779693603515625,1.0741729736328125,-0.25433349609375
-0.8260345458984375,1.003753662109375,-0.3088226318359375
-0.884429931640625,1.0682525634765625,-0.3210906982421875
-0.8500213623046875,0.95977783203125,-0.222198486328125
-1.0072479248046875,1.04754638671875,-0.1978607177734375
-1.160675048828125,1.715301513671875,-0.2808990478515625
-0.7445068359375,2.155624389648437,-0.493560791015625
-0.3720245361328125,1.9706573486328125,-0.661346435546875
-0.305633544921875,1.617095947265625,-0.39013671875
-0.193023681640625,1.4123687744140625,-0.1359710693359375
-0.09625244140625,1.126556396484375,-0.121826171875
-0.1885223388671875,0.9503631591796876,-0.149383544921875
-0.1720428466796875,0.89105224609375,-0.012054443359375
0.0081634521484375,0.795318603515625,0.1815338134765625
-0.008331298828125,0.7173309326171875,0.1375732421875
-0.1134033203125,0.6572113037109375,0.155487060546875
-0.17462158203125,0.8100738525390625,0.134124755859375
-0.133758544921875,1.05596923828125,0.094940185546875
-0.5175933837890625,1.361358642578125,-0.0565948486328125
-0.849945068359375,1.6297149658203125,-0.072357177734375
-1.040618896484375,1.4921722412109375,-0.0936737060546875
-1.034149169921875,1.1180267333984375,-0.1221466064453125
-0.902740478515625,0.898834228515625,-0.09197998046875
-0.7552947998046875,0.8927154541015625,-0.1093292236328125
-0.77618408203125,0.93707275390625,0.014801025390625
-0.9775238037109376,0.96575927734375,-0.015869140625
-1.056640625,0.9919891357421876,-0.29486083984375
-1.080657958984375,1.0313873291015625,-0.58990478515625
-1.0778350830078125,0.97509765625,-0.6003875732421875
-1.1624908447265625,1.0327301025390625,-0.484771728515625
-0.9870147705078124,1.2471160888671875,-0.0217132568359375
-0.7679443359375,1.340240478515625,0.0411376953125
-0.7343902587890625,1.414459228515625,-0.4771881103515625
-0.48211669921875,1.5042266845703125,-0.098846435546875
-0.5471649169921875,1.242156982421875,-0.20159912109375
-0.5079803466796875,1.1038055419921875,-0.1507415771484375
-0.42657470703125,1.033966064453125,-0.000885009765625
-0.2513275146484375,0.9175262451171876,0.0319061279296875
-0.1715240478515625,0.748291015625,-0.1424713134765625
-0.1284027099609375,0.7798004150390625,-0.09088134765625
0.031890869140625,0.828369140625,0.0281829833984375
0.1412200927734375,0.8455352783203125,0.0427703857421875
-0.035308837890625,0.706573486328125,-0.00897216796875
-0.3427734375,0.927032470703125,0.0441131591796875
-0.2286376953125,0.8963775634765625,-0.0272979736328125
-0.4098968505859375,1.271087646484375,-0.0797882080078125
-0.47625732421875,1.6476898193359375,-0.0318756103515625
-0.7660980224609375,1.7650604248046875,0.0211334228515625
-0.957611083984375,1.6360015869140625,-0.0036773681640625
-0.9321441650390624,1.35406494140625,-0.02880859375
-0.964813232421875,1.133575439453125,-0.08380126953125
-0.999298095703125,0.91241455078125,0.0012664794921875
-0.940093994140625,0.824554443359375,0.055755615234375
-0.828948974609375,0.9107513427734376,0.042144775390625
-0.7696075439453125,1.041259765625,-0.097808837890625
-0.7937469482421875,1.01727294921875,-0.3350982666015625
-0.915283203125,0.96588134765625,-0.34906005859375
-0.9433441162109376,1.2597198486328125,-0.294097900390625
-0.84417724609375,1.459869384765625,-0.327911376953125
-0.7689208984375,1.5615081787109375,-0.5543212890625
-0.658966064453125,1.6429901123046875,-0.6209259033203125
-0.49151611328125,1.6775054931640625,-0.512298583984375
-0.368072509765625,1.5194244384765625,-0.459136962890625
-0.328704833984375,1.3936920166015625,-0.37969970703125
-0.2306671142578125,1.270538330078125,-0.255218505859375
-0.173004150390625,1.1840972900390625,-0.24359130859375
-0.101959228515625,1.1647491455078125,-0.28521728515625
-0.076446533203125,1.0603179931640625,-0.260223388671875
-0.09674072265625,0.895294189453125,-0.20245361328125
-0.03912353515625,0.6872406005859375,-0.03033447265625
0.0667724609375,0.76947021484375,0.1413726806640625
0.0969696044921875,0.8703155517578125,-0.0470733642578125
-0.223968505859375,1.162506103515625,0.028350830078125
-0.43402099609375,1.4686431884765625,0.254791259765625
-0.568084716796875,1.5545501708984375,0.185546875
-0.754913330078125,1.2653961181640625,0.1897735595703125
-0.7529144287109375,1.1519927978515625,0.2508392333984375
-0.71392822265625,1.1804351806640625,0.29840087890625
-0.68756103515625,1.1018829345703125,0.0579681396484375
-0.839752197265625,1.12139892578125,-0.208770751953125
-1.05438232421875,1.2328643798828125,-0.2536163330078125
-1.1363525390625,1.0562744140625,-0.1484222412109375
-1.1823577880859375,0.779754638671875,-0.3031463623046875
-1.2946014404296875,0.8812255859375,-0.2982635498046875
-1.1194000244140625,0.8353271484375,-0.2290496826171875
-1.1584320068359375,0.9384307861328124,-0.1981964111328125
-1.1608734130859375,1.1338958740234375,-0.2415924072265625
-1.0748443603515625,1.24176025390625,-0.2654266357421875
-0.9485015869140624,1.2140350341796875,-0.1824951171875
-1.0261688232421875,1.2769927978515625,-0.004058837890625
-1.01922607421875,1.3687286376953125,0.0647735595703125
-0.7635650634765625,1.3380889892578125,0.06396484375
-0.499298095703125,1.206512451171875,0.0164337158203125
-0.3787689208984375,1.0748291015625,-0.04034423828125
-0.2764129638671875,0.94775390625,-0.0255584716796875
-0.1710968017578125,0.81134033203125,0.021820068359375
-0.198577880859375,0.73284912109375,0.009368896484375
-0.0819091796875,0.8563079833984375,0.1056060791015625
-0.1496429443359375,0.8438720703125,-0.12078857421875
-0.4528961181640625,1.0802764892578125,-0.0645904541015625
-0.6749420166015625,1.2894439697265625,0.075927734375
-0.710235595703125,1.2733612060546875,0.015106201171875
-0.7642669677734375,1.184967041015625,-0.1420135498046875
-0.78466796875,1.129608154296875,-0.237518310546875
-0.7930450439453125,1.125213623046875,-0.327056884765625
-0.79022216796875,1.1293487548828125,-0.3120574951171875
-0.90087890625,1.1916656494140625,-0.3089752197265625
-1.0118865966796875,1.252655029296875,-0.2978363037109375
-1.0361328125,1.12530517578125,-0.3323211669921875
-1.001373291015625,0.883087158203125,-0.400543212890625
-1.1713714599609375,1.0238037109375,-0.5250701904296875
-1.0343475341796875,0.98394775390625,-0.3988494873046875
-0.9913787841796876,1.0976715087890625,-0.396484375
-0.9715118408203124,1.3173065185546875,-0.4138336181640625
-0.788360595703125,1.5035552978515625,-0.451202392578125
-0.620941162109375,1.4398651123046875,-0.4851226806640625
-0.5648193359375,1.412384033203125,-0.4145050048828125
-0.477203369140625,1.3865203857421875,-0.187774658203125
-0.3314361572265625,1.312103271484375,-0.1738739013671875
-0.266448974609375,1.21087646484375,-0.1489715576171875
-0.213134765625,1.127349853515625,-0.205474853515625
0.016387939453125,0.953857421875,-0.0909576416015625
0.3060455322265625,0.7348480224609375,-0.082550048828125
0.18255615234375,0.7834930419921875,-0.1224822998046875
0.2305755615234375,0.9739837646484376,-0.036041259765625
-0.280059814453125,1.0023651123046875,0.021484375
-0.601776123046875,1.240631103515625,0.0296630859375
-0.613128662109375,1.6475982666015625,-0.03955078125
-0.800506591796875,1.6245269775390625,0.0046234130859375
-1.063507080078125,1.347747802734375,0.0906982421875
-1.0498046875,1.16119384765625,0.108001708984375
-0.9907989501953124,1.0692596435546875,-0.0001373291015625
-0.94989013671875,0.939208984375,-0.041748046875
-0.9508514404296876,0.9119720458984376,0.0606842041015625
-0.9076690673828124,0.9820098876953124,0.13232421875
-0.85626220703125,1.035430908203125,0.058746337890625
-0.8199462890625,0.98065185546875,-0.140838623046875
-0.8899078369140625,1.1797027587890625,-0.3679046630859375
-0.8679351806640625,1.229034423828125,-0.32415771484375
-0.9717864990234376,1.38397216796875,-0.266082763671875
-0.9598388671875,1.4572906494140625,-0.2734222412109375
-0.705291748046875,1.385162353515625,-0.3817901611328125
-0.5751495361328125,1.359222412109375,-0.430145263671875
-0.499542236328125,1.358978271484375,-0.31207275390625
-0.3360595703125,1.3140716552734375,-0.263916015625
-0.2756500244140625,1.24755859375,-0.2713470458984375
-0.194091796875,1.230133056640625,-0.2255859375
-0.0946197509765625,1.130828857421875,-0.1948394775390625
-0.1438446044921875,0.9016571044921876,-0.0616455078125
-0.2810211181640625,0.7670135498046875,-0.0352935791015625
-0.3038482666015625,0.703643798828125,0.0028228759765625
-0.4173126220703125,0.64581298828125,0.0424652099609375
-0.6548004150390625,0.774993896484375,0.088104248046875
-0.7511138916015625,0.8971099853515625,-0.1223907470703125
-0.879852294921875,0.6599578857421875,-0.470245361328125
-0.8723297119140625,0.4722900390625,-0.355499267578125
-2.3181304931640625,0.55291748046875,0.0642547607421875
-0.3042144775390625,0.5860748291015625,-1.22711181640625
-0.2320098876953125,0.6519012451171875,-1.849090576171875
-0.0907440185546875,0.65447998046875,-0.7513580322265625
-0.712188720703125,0.4394073486328125,-1.0083770751953125
-0.8854522705078125,0.4941864013671875,-1.3599700927734375
-0.6785888671875,0.6029510498046875,-1.80767822265625
-0.382110595703125,0.868621826171875,-1.5218505859375
-0.2485504150390625,0.785430908203125,-1.3375701904296875
-0.2798309326171875,0.8953704833984375,-1.0376434326171875
-0.38116455078125,0.9711151123046876,-0.9259796142578124
-0.3136444091796875,0.8514862060546875,-0.868377685546875
-0.322509765625,0.7495574951171875,-0.808319091796875
-0.3358917236328125,0.738525390625,-0.748138427734375
-0.3149261474609375,0.737762451171875,-0.804534912109375
-0.23736572265625,0.71844482421875,-0.7472686767578125
-0.2061309814453125,0.5358734130859375,-0.6654205322265625
-0.266204833984375,0.3643035888671875,-0.5194854736328125
-0.188140869140625,0.3376617431640625,-0.436676025390625
-0.0663909912109375,0.263092041015625,-0.5020751953125
-0.0443572998046875,0.2310333251953125,-0.7746124267578125
-0.236602783203125,0.3039093017578125,-0.6285400390625
-0.1517181396484375,0.352325439453125,-0.7119598388671875
-0.098724365234375,0.4142303466796875,-0.9113922119140624
-0.1740875244140625,0.308563232421875,-1.062255859375
-0.16461181640625,0.256072998046875,-1.036224365234375
-0.0612945556640625,0.228179931640625,-1.0560760498046875
0.029754638671875,0.2802886962890625,-1.1467742919921875
-0.0128021240234375,0.3213043212890625,-1.1605377197265625
0.0138092041015625,0.3581695556640625,-1.1739044189453125
-0.0274505615234375,0.385833740234375,-1.0702667236328125
-0.0267791748046875,0.3745880126953125,-0.9369049072265624
0.0579833984375,0.4301300048828125,-1.035247802734375
0.0266265869140625,0.419586181640625,-0.9368133544921876
-0.02044677734375,0.3656158447265625,-0.8977203369140625
-0.0467376708984375,0.3500823974609375,-0.9574127197265624
-0.0121307373046875,0.29656982421875,-0.8618927001953125
0.0562744140625,0.2629852294921875,-0.867828369140625
0.0733489990234375,0.2404022216796875,-0.8274383544921875
0.066619873046875,0.2310943603515625,-0.8855743408203125
0.0244293212890625,0.2254486083984375,-1.0168914794921875
-0.0805206298828125,0.1799774169921875,-1.0540313720703125
-0.195953369140625,0.10369873046875,-0.9193115234375
-0.1837615966796875,0.082855224609375,-1.0084228515625
-0.12322998046875,0.08258056640625,-1.056060791015625
-0.04718017578125,0.083343505859375,-0.997955322265625
-0.0209808349609375,0.11529541015625,-1.0369873046875
-0.012908935546875,0.183807373046875,-1.052520751953125
-0.00799560546875,0.1888580322265625,-1.1212615966796875
-0.05487060546875,0.17352294921875,-1.071624755859375
-0.0789794921875,0.1827545166015625,-1.09820556640625
-0.12518310546875,0.2166900634765625,-0.9497222900390624
-0.046539306640625,0.26068115234375,-1.0619049072265625
0.015472412109375,0.25048828125,-1.0927886962890625
-0.056610107421875,0.1096343994140625,-0.9266815185546876
-0.1416778564453125,-0.000579833984375,-0.811126708984375
-0.1411895751953125,-0.058349609375,-0.811065673828125
-0.112457275390625,-0.096588134765625,-0.8182373046875
-0.08966064453125,-0.0664825439453125,-0.9002685546875
-0.031951904296875,0.000244140625,-0.982269287109375
0.002227783203125,0.0551300048828125,-1.01885986328125
-0.0117340087890625,0.1093902587890625,-1.1886138916015625
0.0457763671875,0.1461639404296875,-1.257049560546875
0.136199951171875,0.12298583984375,-1.252471923828125
0.0740509033203125,0.1251220703125,-1.1832275390625
0.035888671875,0.1190948486328125,-0.868682861328125
0.092681884765625,0.120574951171875,-0.678070068359375
0.10272216796875,0.162841796875,-0.6559295654296875
0.006805419921875,0.1667327880859375,-0.57342529296875
-0.12872314453125,0.2295074462890625,-0.4094390869140625
-0.18682861328125,0.392608642578125,-0.505859375
-0.1597442626953125,0.595062255859375,-0.691558837890625
-0.212677001953125,0.7826080322265625,-0.6114501953125
-0.42852783203125,0.91070556640625,-0.529296875
-0.66180419921875,1.000701904296875,-0.7219696044921875
-0.5631866455078125,1.2795562744140625,-0.73443603515625
-0.2821502685546875,1.197052001953125,-1.08258056640625
-0.3529815673828125,1.126495361328125,-1.147247314453125
-0.2127227783203125,0.963836669921875,-1.3473052978515625
-0.0800323486328125,0.543701171875,-1.1233673095703125
-0.1741485595703125,0.3075408935546875,-0.83575439453125
-0.1540985107421875,0.2828216552734375,-0.616973876953125
-0.0289764404296875,0.4117889404296875,-0.488616943359375
0.06024169921875,0.4756011962890625,-0.5190277099609375
0.02294921875,0.50970458984375,-0.721160888671875
0.0784149169921875,0.69525146484375,-0.91424560546875
0.1588592529296875,0.7925567626953125,-1.1089324951171875
-0.0129547119140625,0.775421142578125,-1.12127685546875
-0.0305328369140625,0.91204833984375,-1.3899383544921875
-0.104583740234375,0.868072509765625,-1.2638092041015625
-0.185760498046875,0.96551513671875,-1.145782470703125
-0.2271881103515625,1.03509521484375,-1.1272735595703125
-0.296356201171875,0.87969970703125,-1.062225341796875
-0.44110107421875,0.748291015625,-0.8724365234375
-0.4510498046875,0.701080322265625,-0.782257080078125
-0.45672607421875,0.64520263671875,-0.719482421875
-0.51220703125,0.545135498046875,-0.613922119140625
-0.5138397216796875,0.5601348876953125,-0.585479736328125
-0.4228363037109375,0.5758514404296875,-0.421630859375
-0.383941650390625,0.485626220703125,-0.381866455078125
-0.4170684814453125,0.4516754150390625,-0.4077606201171875
-0.331390380859375,0.59344482421875,-0.3079833984375
-0.1559906005859375,0.6162567138671875,-0.6096038818359375
-0.0915374755859375,0.6549072265625,-0.9034271240234376
-0.123138427734375,0.704681396484375,-1.05218505859375
-0.160308837890625,0.6139984130859375,-0.9855499267578124
-0.230804443359375,0.4189300537109375,-0.8419342041015625
-0.1872406005859375,0.373291015625,-0.805023193359375
-0.077178955078125,0.413665771484375,-0.855987548828125
-0.0405731201171875,0.4304046630859375,-1.037078857421875
-0.0723419189453125,0.393707275390625,-1.175018310546875
-0.1688690185546875,0.3612823486328125,-1.2305145263671875
-0.1551513671875,0.3507080078125,-1.25030517578125
0.0005950927734375,0.336944580078125,-1.363525390625
-0.0862579345703125,0.5877227783203125,-1.277099609375
-0.1595916748046875,0.5178070068359375,-1.392547607421875
-0.1782379150390625,0.566070556640625,-1.2981719970703125
-0.1790313720703125,0.6011505126953125,-1.1259002685546875
-0.2107391357421875,0.5168609619140625,-1.0822906494140625
-0.20465087890625,0.491241455078125,-1.007080078125
-0.2379913330078125,0.4523468017578125,-0.8285369873046875
-0.23089599609375,0.3996429443359375,-0.5463104248046875
-0.2486572265625,0.2780609130859375,-0.4457244873046875
-0.219146728515625,0.2665252685546875,-0.5545501708984375
-0.213165283203125,0.2991180419921875,-0.5621490478515625
-0.1355743408203125,0.2552642822265625,-0.485931396484375
-0.2436065673828125,0.2141571044921875,-0.4426116943359375
-0.255859375,0.2167816162109375,-0.54302978515625
-0.263092041015625,0.4695587158203125,-0.6191253662109375
-0.1905975341796875,0.489501953125,-0.7521209716796875
-0.3881072998046875,0.55572509765625,-0.974609375
-0.453033447265625,0.753631591796875,-0.817840576171875
-0.0269927978515625,0.9987945556640624,-1.36187744140625
0.1526031494140625,0.8022308349609375,-1.3182525634765625
-0.011688232421875,0.5222015380859375,-0.810638427734375
-0.1113128662109375,0.395050048828125,-0.657806396484375
-0.0387725830078125,0.3024139404296875,-0.7442474365234375
-0.05523681640625,0.2785797119140625,-0.83782958984375
-0.0127716064453125,0.313751220703125,-0.90777587890625
0.1045379638671875,0.4400634765625,-1.138397216796875
0.08447265625,0.513824462890625,-1.282562255859375
0.157989501953125,0.5605316162109375,-1.3606109619140625
0.144287109375,0.6981353759765625,-1.233367919921875
0.11370849609375,0.6207122802734375,-1.292633056640625
-0.062774658203125,0.6504364013671875,-1.373138427734375
-0.07269287109375,0.6219024658203125,-0.99932861328125
-0.077606201171875,0.5220794677734375,-0.8312835693359375
-0.072052001953125,0.4614410400390625,-0.859649658203125
-0.1016998291015625,0.42218017578125,-0.742767333984375
-0.168853759765625,0.3193511962890625,-0.565216064453125
-0.1409912109375,0.2675933837890625,-0.6405487060546875
-0.185577392578125,0.3060150146484375,-0.8028717041015625
-0.21673583984375,0.306121826171875,-0.807159423828125
-0.2820892333984375,0.264923095703125,-0.711639404296875
-0.250396728515625,0.148101806640625,-0.656341552734375
-0.307525634765625,0.1490020751953125,-0.6573486328125
-0.3763427734375,0.1368255615234375,-0.6772613525390625
-0.38861083984375,0.1215667724609375,-1.1661834716796875
-0.5637359619140625,0.3143310546875,-1.3157806396484375
-0.383209228515625,0.185302734375,-1.01641845703125
-0.289520263671875,0.085174560546875,-0.9589691162109376
-0.332550048828125,-0.03936767578125,-0.9280242919921876
-0.345306396484375,-0.1275787353515625,-0.684234619140625
-0.348297119140625,-0.2032928466796875,-0.6811676025390625
-0.3011474609375,-0.234466552734375,-0.953704833984375
-0.28216552734375,-0.24053955078125,-0.882415771484375
-0.2460174560546875,-0.2073516845703125,-0.8807220458984375
-0.2169342041015625,-0.195068359375,-0.9931182861328124
-0.2357330322265625,-0.1511077880859375,-1.0777130126953125
-0.1365814208984375,-0.0198516845703125,-0.974609375
-0.137054443359375,-0.002716064453125,-1.119659423828125
0.01422119140625,-0.0090789794921875,-1.200286865234375
0.0352325439453125,0.0323028564453125,-0.9810638427734376
-0.18292236328125,-0.032440185546875,-0.7741241455078125
-0.08453369140625,-0.058319091796875,-0.8630523681640625
-0.2037811279296875,0.0063018798828125,-0.9594573974609376
-0.0774688720703125,-0.0244140625,-0.7398223876953125
-0.2183990478515625,-0.004730224609375,-0.80316162109375
-0.2416839599609375,0.0770111083984375,-0.817962646484375
-0.2938690185546875,0.226165771484375,-0.7255401611328125
-0.1652069091796875,0.3053131103515625,-0.7261810302734375
-0.2921905517578125,0.2689971923828125,-0.89501953125
-0.3686981201171875,0.5250091552734375,-1.131439208984375
-0.1609039306640625,0.606475830078125,-1.000762939453125
-0.3952789306640625,0.579925537109375,-1.191558837890625
-0.4235076904296875,0.5467376708984375,-1.39849853515625
-0.06884765625,0.431243896484375,-1.4107208251953125
0.0184326171875,0.277587890625,-1.3415069580078125
-0.1410369873046875,0.2158355712890625,-0.990325927734375
-0.2723846435546875,0.107208251953125,-0.7533416748046875
-0.28729248046875,0.0401458740234375,-0.5760955810546875
-0.0648193359375,-0.046478271484375,-0.521392822265625
-0.10455322265625,0.13958740234375,-0.79132080078125
-0.094451904296875,0.1956329345703125,-0.8558349609375
-0.0876312255859375,0.1352996826171875,-1.192962646484375
-0.0170440673828125,0.1309661865234375,-1.578887939453125
0.08526611328125,0.195648193359375,-1.522125244140625
-0.02471923828125,0.141845703125,-1.5562286376953125
-0.21234130859375,0.1938323974609375,-1.1670379638671875
-0.259033203125,0.244110107421875,-1.06719970703125
-0.174957275390625,0.2345123291015625,-0.9217681884765624
-0.1956329345703125,0.20263671875,-0.8264923095703125
-0.2041473388671875,0.2014007568359375,-0.7724456787109375
-0.1861572265625,0.1463623046875,-0.6897125244140625
-0.189178466796875,0.094696044921875,-0.4341888427734375
-0.2017822265625,0.1705780029296875,-0.2921295166015625
-0.2229461669921875,0.3550262451171875,-0.303619384765625
-0.323028564453125,0.5525360107421875,-0.4849395751953125
-0.2398834228515625,0.6922149658203125,-0.758697509765625
-0.5207366943359375,0.9971771240234376,-0.9516754150390624
-0.3538360595703125,0.9711151123046876,-0.7712860107421875
-0.3609161376953125,1.0185089111328125,-1.167877197265625
-0.307861328125,1.0025787353515625,-1.3873748779296875
-0.1784210205078125,0.8049774169921875,-1.5023956298828125
-0.0914764404296875,0.455780029296875,-1.267913818359375
-0.1650238037109375,0.28546142578125,-1.0073394775390625
-0.1055755615234375,0.2525634765625,-0.6945953369140625
-0.0591278076171875,0.3331298828125,-0.728668212890625
-0.074920654296875,0.352325439453125,-0.883636474609375
-0.069061279296875,0.3908538818359375,-1.0237884521484375
-0.0487823486328125,0.4826202392578125,-1.2560272216796875
0.0672760009765625,0.5972900390625,-1.4435272216796875
0.0906524658203125,0.6163787841796875,-1.2925872802734375
-0.059814453125,0.6842193603515625,-1.2170867919921875
-0.0966949462890625,0.6910247802734375,-1.2673492431640625
-0.071319580078125,0.85076904296875,-1.2877197265625
-0.0699005126953125,1.0771484375,-1.447265625
-0.1719512939453125,1.0882110595703125,-1.287078857421875
-0.348785400390625,0.892852783203125,-0.937957763671875
-0.298583984375,0.728302001953125,-0.6180572509765625
-0.287017822265625,0.76953125,-0.7589569091796875
-0.13848876953125,0.6531524658203125,-0.69573974609375
-0.236358642578125,0.5418701171875,-0.4361419677734375
-0.250396728515625,0.4589996337890625,-0.3062896728515625
-0.1748809814453125,0.315399169921875,-0.2857513427734375
-0.182373046875,0.2650909423828125,-0.3979949951171875
-0.2284698486328125,0.3337860107421875,-0.354461669921875
-0.270416259765625,0.4535980224609375,-0.264404296875
-0.3389739990234375,0.4513092041015625,-0.5312957763671875
-0.6413116455078125,0.6020660400390625,-0.7813873291015625
-0.7999267578125,0.7832489013671875,-1.0235443115234375
-0.7134552001953125,0.76812744140625,-1.348114013671875
-0.538787841796875,0.5948333740234375,-1.3026275634765625
-0.39593505859375,0.403900146484375,-1.19183349609375
-0.3819732666015625,0.3346099853515625,-1.1216278076171875
-0.3886566162109375,0.3301544189453125,-0.9652252197265624
-0.3616180419921875,0.3837432861328125,-0.88671875
-0.2735748291015625,0.4694061279296875,-0.86688232421875
-0.2010498046875,0.6153564453125,-0.9904022216796876
-0.156585693359375,0.871185302734375,-1.1394805908203125
-0.0789794921875,0.934967041015625,-0.99615478515625
-0.134246826171875,0.9081878662109376,-0.598480224609375
-0.122039794921875,0.84100341796875,-0.52020263671875
-0.065643310546875,0.8412017822265625,-0.7313232421875
0.0448455810546875,0.738433837890625,-0.5985870361328125
0.0693359375,0.608642578125,-0.4510650634765625
-0.0208282470703125,0.7308502197265625,-0.770751953125
-0.1202545166015625,0.9398345947265624,-1.1877593994140625
-0.1449127197265625,1.009521484375,-1.16571044921875
-0.103302001953125,0.9474029541015624,-0.76324462890625
-0.122100830078125,0.9483795166015624,-0.8127899169921875
-0.175018310546875,1.0116119384765625,-0.795867919921875
-0.1764984130859375,1.019866943359375,-0.776641845703125
-0.252349853515625,0.9743804931640624,-0.7504119873046875
-0.214874267578125,0.825897216796875,-0.5018310546875
-0.270660400390625,0.667938232421875,-0.394256591796875
-0.3017730712890625,0.5392608642578125,-0.58428955078125
-0.3743896484375,0.5677947998046875,-0.85546875
-0.2670135498046875,0.5147552490234375,-0.6230926513671875
-0.234954833984375,0.338775634765625,-0.66363525390625
-0.2878265380859375,0.3894805908203125,-0.8097991943359375
-0.2741546630859375,0.414886474609375,-0.91973876953125
-0.3472137451171875,0.3256072998046875,-0.9246368408203124
-0.4354248046875,0.2370758056640625,-0.7746124267578125
-0.282012939453125,0.197296142578125,-0.97540283203125
-0.458282470703125,0.2322845458984375,-1.1091766357421875
-0.354156494140625,0.1038055419921875,-0.6603240966796875
-0.1715545654296875,0.0594940185546875,-0.5872802734375
-0.1531982421875,0.1194610595703125,-0.63616943359375
-0.4427642822265625,0.1629486083984375,-0.869354248046875
-0.3465423583984375,0.17755126953125,-1.056060791015625
-0.178802490234375,0.3721923828125,-1.00225830078125
-0.2520294189453125,0.5242919921875,-0.904296875
-0.3511505126953125,0.62591552734375,-1.08544921875
-0.1346282958984375,0.5284881591796875,-1.2307281494140625
-0.241943359375,0.47216796875,-0.8991241455078125
-0.18768310546875,0.4947052001953125,-0.655853271484375
-0.1557769775390625,0.489532470703125,-0.8054351806640625
-0.1062164306640625,0.450286865234375,-0.9251708984375
-0.0372314453125,0.4527740478515625,-0.8437347412109375
-0.1078643798828125,0.4788970947265625,-0.7697296142578125
-0.0794525146484375,0.4734344482421875,-0.8200836181640625
-0.1565399169921875,0.4549560546875,-0.8478240966796875
-0.1185302734375,0.4385223388671875,-0.8894195556640625
-0.0915069580078125,0.437225341796875,-0.7225341796875
-0.1058502197265625,0.4430694580078125,-0.909637451171875
-0.0628509521484375,0.5838165283203125,-0.976348876953125
0.0196990966796875,0.6429443359375,-0.93585205078125
0.130462646484375,0.464141845703125,-1.0986480712890625
0.1232452392578125,0.4151458740234375,-1.1303253173828125
-0.076019287109375,0.48406982421875,-0.776458740234375
-0.0412139892578125,0.4766693115234375,-0.6686553955078125
0.064666748046875,0.466766357421875,-0.8891754150390625
-0.012847900390625,0.453369140625,-0.9584503173828124
0.0127716064453125,0.40216064453125,-0.81060791015625
-0.0689697265625,0.3729095458984375,-0.8596038818359375
0.0060577392578125,0.3231201171875,-0.935791015625
-0.0435943603515625,0.3167572021484375,-0.914703369140625
-0.0418853759765625,0.3062591552734375,-0.8422393798828125
-0.01239013671875,0.363677978515625,-0.8251190185546875
0.220947265625,0.4383087158203125,-0.88677978515625
0.5337677001953125,0.5395660400390625,-0.9493255615234376
0.5384368896484375,0.563873291015625,-0.870086669921875
0.44512939453125,0.6218719482421875,-0.8868408203125
0.7968597412109375,0.6689910888671875,-1.301849365234375
0.7902374267578125,0.7581024169921875,-1.0605010986328125
0.7538909912109375,0.709381103515625,-1.276611328125
0.7708282470703125,0.756622314453125,-1.63275146484375
0.3205718994140625,0.9318084716796876,-1.4327239990234375
0.024871826171875,0.8822021484375,-1.6567230224609375
-0.1567535400390625,0.8271636962890625,-2.0174713134765625
-0.0919189453125,0.7901153564453125,-1.867279052734375
-0.157684326171875,0.6079254150390625,-1.914459228515625
-0.18505859375,0.471038818359375,-1.7913055419921875
-0.2081451416015625,0.2405853271484375,-1.3622894287109375
-0.161865234375,-0.026397705078125,-0.7422943115234375
-0.2645111083984375,-0.0650634765625,-0.640167236328125
-0.0199432373046875,0.2215576171875,-0.6242523193359375
0.2080230712890625,0.222900390625,-0.8254241943359375
-0.218719482421875,0.1945648193359375,-0.3012542724609375
0.181732177734375,-0.041259765625,-0.106353759765625
0.325439453125,-0.311065673828125,-0.0762939453125
-0.0660247802734375,-0.43890380859375,0.279052734375
0.103240966796875,-0.571746826171875,0.1011199951171875
0.0038909912109375,-0.50341796875,-0.153717041015625
0.0016937255859375,-0.4937591552734375,-0.0285491943359375
0.128265380859375,-0.51800537109375,0.025848388671875
0.1345977783203125,-0.4940032958984375,0.10162353515625
-0.0718536376953125,-0.4748382568359375,0.3438720703125
0.1179962158203125,-0.1689300537109375,0.265350341796875
0.49072265625,0.0485687255859375,0.08453369140625
0.23504638671875,0.3599090576171875,0.2306365966796875
-0.0799407958984375,0.4051513671875,-0.01788330078125
0.0156707763671875,-0.0103912353515625,-0.01947021484375
0.014556884765625,-0.009002685546875,-0.031280517578125
0.0117034912109375,-0.00897216796875,-0.03466796875
0.0111846923828125,-0.009796142578125,-0.0408782958984375
0.0078125,-0.0077667236328125,-0.0504150390625
-6.2124786376953125,-5.5870513916015625,-5.485076904296875
-0.1234283447265625,0.929443359375,-1.798431396484375
0.020294189453125,0.029876708984375,0.04290771484375
0.0072021484375,0.0207061767578125,0.015655517578125
0.0094451904296875,-0.023101806640625,0.0089569091796875
0.0330810546875,-0.7023162841796875,-0.0053558349609375
-0.4628753662109375,-0.0309600830078125,-3.1841583251953125
-0.2023162841796875,-0.045928955078125,-0.5545654296875
-0.1087493896484375,-0.3559112548828125,-1.00225830078125
-0.2660980224609375,-0.0598907470703125,-0.9478302001953124
-0.1213836669921875,-0.2098846435546875,-0.9373626708984376
-0.2158966064453125,-0.143890380859375,-0.9704132080078124
-0.173095703125,-0.1629791259765625,-0.9760894775390624
-0.1932220458984375,-0.172210693359375,-0.956207275390625
-0.190032958984375,-0.1541290283203125,-0.967376708984375
-0.1842193603515625,-0.1698455810546875,-0.9502716064453124
-0.1846923828125,-0.154815673828125,-0.9702911376953124
-0.1883697509765625,-0.1643829345703125,-0.967376708984375
-0.1866302490234375,-0.1716461181640625,-0.959991455078125
-0.1892242431640625,-0.15863037109375,-0.96923828125
-0.1782073974609375,-0.170257568359375,-0.966705322265625
-0.1771240234375,-0.153289794921875,-0.96087646484375
-0.1719512939453125,-0.1735076904296875,-0.961090087890625
-0.1981658935546875,-0.1619415283203125,-0.96270751953125
-0.178497314453125,-0.16473388671875,-0.958404541015625
-0.1713714599609375,-0.157135009765625,-0.97589111328125
-0.2983856201171875,-0.2629852294921875,-0.95672607421875
-0.3675079345703125,-0.5944061279296875,-0.8952178955078125
-0.1760101318359375,-0.0623016357421875,-1.026824951171875
-0.1717987060546875,-0.0372161865234375,-0.9858245849609376
-0.1730804443359375,-0.20257568359375,-0.930023193359375
-0.256866455078125,-0.120208740234375,-0.975006103515625
-0.1381683349609375,-0.2306976318359375,-0.96209716796875
-0.2367706298828125,-0.1120452880859375,-0.967132568359375
-0.16839599609375,-0.173614501953125,-0.9518890380859376
-0.211761474609375,-0.122283935546875,-0.9691619873046876
-0.184173583984375,-0.1526947021484375,-0.9736785888671876
-0.195220947265625,-0.129425048828125,-0.9707489013671876
-0.1846771240234375,-0.13751220703125,-0.9789886474609376
-0.1922149658203125,-0.142486572265625,-0.9622650146484376
-0.181793212890625,-0.1432342529296875,-0.970916748046875
-0.1966400146484375,-0.1316986083984375,-0.9574127197265624
-0.183074951171875,-0.129669189453125,-0.9438323974609376
-0.195587158203125,-0.134918212890625,-0.967193603515625
