AccelerationX,AccelerationY,AccelerationZ
0.09197998046875,-0.280487060546875,-0.93450927734375
0.0639190673828125,-0.28240966796875,-0.8900604248046875
0.075653076171875,-0.3123626708984375,-0.8826904296875
0.11822509765625,-0.298004150390625,-0.910888671875
0.0877227783203125,-0.282379150390625,-0.8467559814453125
0.1458892822265625,-0.3232574462890625,-0.81463623046875
0.248260498046875,-0.293853759765625,-0.8272552490234375
0.36065673828125,-0.355194091796875,-0.9242095947265624
0.40606689453125,-0.358245849609375,-0.9435882568359376
0.4390106201171875,-0.4068450927734375,-0.9955596923828124
0.3961334228515625,-0.3760223388671875,-0.9559326171875
0.3635101318359375,-0.3653411865234375,-0.8779144287109375
0.3385467529296875,-0.35223388671875,-0.8441925048828125
0.2839508056640625,-0.3222198486328125,-0.7963104248046875
0.268707275390625,-0.3520965576171875,-0.8182830810546875
0.31146240234375,-0.3613433837890625,-0.8649139404296875
0.340301513671875,-0.391845703125,-0.743316650390625
0.36474609375,-0.306427001953125,-0.8017730712890625
0.402069091796875,-0.387939453125,-0.772003173828125
0.465728759765625,-0.4447021484375,-0.6405029296875
0.3921356201171875,-0.5125885009765625,-0.624298095703125
0.2724151611328125,-0.491607666015625,-0.4501495361328125
0.3585205078125,-0.4817352294921875,-0.5794525146484375
0.2338104248046875,-0.4245147705078125,-0.3932342529296875
0.2006683349609375,-0.188629150390625,-0.6324310302734375
0.5495758056640625,-0.288909912109375,-0.8240966796875
0.6014556884765625,-0.3123626708984375,-1.01983642578125
0.6487274169921875,0.16986083984375,-1.1285400390625
0.844207763671875,0.0462799072265625,-1.031341552734375
0.7364349365234375,0.0580291748046875,-0.9834136962890624
0.7584991455078125,0.212066650390625,-0.917694091796875
0.74755859375,0.250244140625,-0.863616943359375
0.678955078125,0.176788330078125,-0.885345458984375
0.688568115234375,0.2132110595703125,-0.8477630615234375
0.6180419921875,0.4174957275390625,-0.7863311767578125
0.576812744140625,0.47125244140625,-0.8017578125
0.6290435791015625,0.2834930419921875,-0.726470947265625
0.569732666015625,0.2385406494140625,-0.7713165283203125
0.5982513427734375,0.2467193603515625,-0.762603759765625
0.6668853759765625,0.2769012451171875,-0.7428436279296875
0.6305084228515625,0.3166046142578125,-0.7314300537109375
0.674591064453125,0.371551513671875,-0.8243865966796875
0.6437225341796875,0.2034759521484375,-0.7279205322265625
0.647247314453125,0.2265777587890625,-0.725799560546875
0.6762237548828125,0.183258056640625,-0.7108154296875
0.63507080078125,0.22808837890625,-0.6902923583984375
0.7033233642578125,0.15576171875,-0.660858154296875
0.6556854248046875,0.2101593017578125,-0.740753173828125
0.6737213134765625,0.3314056396484375,-0.7941131591796875
0.63800048828125,0.5151214599609375,-0.8755645751953125
0.717864990234375,0.4305572509765625,-0.8011322021484375
0.649993896484375,0.4847412109375,-0.8577423095703125
0.668365478515625,0.3717041015625,-0.7500762939453125
0.649200439453125,0.2593231201171875,-0.6890106201171875
0.52490234375,0.4034881591796875,-0.7597503662109375
0.5545806884765625,0.4342193603515625,-0.7476959228515625
0.5282440185546875,0.4251708984375,-0.753753662109375
0.512359619140625,0.3540496826171875,-0.670562744140625
0.44342041015625,0.328765869140625,-0.6148223876953125
0.4765167236328125,0.3163909912109375,-0.6437225341796875
0.5615997314453125,0.3119659423828125,-0.7161865234375
0.5676116943359375,0.1746673583984375,-0.68035888671875
0.5873260498046875,0.176513671875,-0.6785430908203125
0.6096954345703125,0.1627197265625,-0.689971923828125
0.5845947265625,0.154022216796875,-0.7438507080078125
0.558258056640625,0.2439117431640625,-0.7697601318359375
0.6855316162109375,0.410736083984375,-0.76318359375
0.79443359375,0.5778961181640625,-0.7243804931640625
0.952667236328125,0.5815582275390625,-0.7646026611328125
0.9610595703125,0.5259552001953125,-0.6935577392578125
0.9242401123046876,0.3368377685546875,-0.531402587890625
0.8604278564453125,0.0858917236328125,-0.2949371337890625
0.495452880859375,-0.03216552734375,-0.4693145751953125
0.92706298828125,0.16015625,-0.3997802734375
1.04693603515625,0.2266082763671875,-0.46722412109375
0.9641876220703124,0.2226715087890625,-0.4888763427734375
0.8802947998046875,-0.02093505859375,-0.4316864013671875
0.8661956787109375,-0.0689239501953125,-0.44683837890625
0.9114227294921876,0.0019378662109375,-0.478424072265625
0.9525146484375,0.1197357177734375,-0.4304046630859375
0.96136474609375,0.13299560546875,-0.3539276123046875
0.9495086669921876,0.123809814453125,-0.31329345703125
0.9365692138671876,0.1330718994140625,-0.3180389404296875
0.9598388671875,0.1884918212890625,-0.3460235595703125
1.0592498779296875,0.2945709228515625,-0.3484039306640625
1.086944580078125,0.3453521728515625,-0.384735107421875
1.0545501708984375,0.2636566162109375,-0.2931060791015625
0.9729461669921876,0.2249755859375,-0.2537994384765625
0.97662353515625,0.2365875244140625,-0.2370758056640625
0.9991912841796876,0.330657958984375,-0.2321624755859375
0.986053466796875,0.3722076416015625,-0.1490631103515625
0.97564697265625,0.346954345703125,-0.10467529296875
1.0207366943359375,0.3109130859375,-0.114593505859375
1.0702362060546875,0.2165069580078125,-0.075164794921875
1.1263580322265625,0.17974853515625,-0.0472412109375
1.1163787841796875,0.2062530517578125,-0.0345916748046875
1.1618804931640625,0.1863555908203125,0.0685882568359375
1.1094512939453125,0.2473297119140625,0.028106689453125
1.047332763671875,0.3182830810546875,-0.0623779296875
1.0081939697265625,0.30084228515625,-0.0937957763671875
0.989776611328125,0.3020782470703125,-0.159576416015625
1.01611328125,0.3198394775390625,-0.23297119140625
0.9960479736328124,0.2680511474609375,-0.299468994140625
0.991119384765625,0.2696075439453125,-0.3829193115234375
0.9605865478515624,0.2278900146484375,-0.385467529296875
0.9286651611328124,0.241546630859375,-0.45989990234375
0.91143798828125,0.284454345703125,-0.479736328125
0.9782867431640624,0.2895050048828125,-0.468475341796875
0.9912261962890624,0.33905029296875,-0.5048675537109375
0.9371795654296876,0.375732421875,-0.45989990234375
0.8666839599609375,0.3314971923828125,-0.4915618896484375
0.7557830810546875,0.15679931640625,-0.4289398193359375
0.7266693115234375,0.0238189697265625,-0.372283935546875
0.883697509765625,0.14697265625,-0.469146728515625
0.9898681640625,0.347137451171875,-0.4427947998046875
0.945587158203125,0.2921600341796875,-0.2869415283203125
0.8528289794921875,0.19195556640625,-0.291412353515625
0.8304901123046875,0.16839599609375,-0.3726348876953125
0.858856201171875,0.13818359375,-0.3897705078125
0.9130706787109376,0.1656646728515625,-0.3398590087890625
0.9244232177734376,0.208770751953125,-0.3012847900390625
0.8926849365234375,0.16412353515625,-0.3123779296875
0.848175048828125,0.12286376953125,-0.3563995361328125
0.828765869140625,0.0831756591796875,-0.3561859130859375
0.8932037353515625,0.1315155029296875,-0.382232666015625
0.9962005615234376,0.1906890869140625,-0.366851806640625
1.1395263671875,0.2226104736328125,-0.4019317626953125
1.32037353515625,0.3946685791015625,-0.4499664306640625
1.1328125,0.28314208984375,-0.34783935546875
1.1099700927734375,0.3069000244140625,-0.4103240966796875
0.8591461181640625,0.1890411376953125,-0.330474853515625
0.8291168212890625,0.1239471435546875,-0.351470947265625
0.897918701171875,0.301483154296875,-0.452728271484375
0.9434967041015624,0.460662841796875,-0.4130096435546875
0.9349365234375,0.38995361328125,-0.2922210693359375
0.906494140625,0.267303466796875,-0.2666168212890625
0.855224609375,0.250701904296875,-0.3287506103515625
0.82244873046875,0.26654052734375,-0.3600921630859375
0.8213043212890625,0.272552490234375,-0.3266448974609375
0.8077850341796875,0.28741455078125,-0.3017120361328125
0.7955474853515625,0.2976837158203125,-0.3343353271484375
0.7934112548828125,0.288360595703125,-0.3212127685546875
0.783966064453125,0.2978515625,-0.3172760009765625
0.794952392578125,0.29083251953125,-0.34454345703125
0.8217620849609375,0.27557373046875,-0.3936920166015625
1.01287841796875,0.3699493408203125,-0.5605926513671875
1.197479248046875,0.496368408203125,-0.5564422607421875
1.0184173583984375,0.2766265869140625,-0.2911529541015625
0.85791015625,0.0978546142578125,-0.202880859375
0.7789154052734375,0.00201416015625,-0.354522705078125
0.9424285888671876,0.1101837158203125,-0.5583648681640625
1.0775909423828125,0.27642822265625,-0.400634765625
1.0791778564453125,0.2506561279296875,-0.24310302734375
0.9770050048828124,0.182708740234375,-0.2658233642578125
0.9423675537109376,0.1069183349609375,-0.388092041015625
0.959075927734375,0.140380859375,-0.4080352783203125
0.952911376953125,0.2535858154296875,-0.3265838623046875
0.9259490966796876,0.30108642578125,-0.2592926025390625
1.014404296875,0.3545379638671875,-0.264251708984375
0.9919586181640624,0.40985107421875,-0.1986846923828125
0.9287567138671876,0.4169921875,-0.1265869140625
0.942962646484375,0.531280517578125,-0.176788330078125
0.8233184814453125,0.4766998291015625,-0.248199462890625
0.7971954345703125,0.3838958740234375,-0.26239013671875
0.835235595703125,0.3493499755859375,-0.28717041015625
0.90789794921875,0.38934326171875,-0.31097412109375
0.9514617919921876,0.39837646484375,-0.272674560546875
0.9550628662109376,0.273223876953125,-0.1800537109375
0.9649505615234376,0.24822998046875,-0.1935577392578125
1.016937255859375,0.2305755615234375,-0.201904296875
1.0409698486328125,0.2928924560546875,-0.1979217529296875
1.000701904296875,0.317291259765625,-0.189117431640625
0.955535888671875,0.3006591796875,-0.20269775390625
0.9134674072265624,0.2924652099609375,-0.218658447265625
0.9063720703125,0.328521728515625,-0.2417449951171875
0.875579833984375,0.31787109375,-0.2040252685546875
0.8897552490234375,0.3352203369140625,-0.2203369140625
0.9042205810546876,0.3360137939453125,-0.2740325927734375
0.951446533203125,0.3618621826171875,-0.350830078125
0.9455108642578124,0.325927734375,-0.3721466064453125
0.99530029296875,0.374908447265625,-0.4603729248046875
0.935394287109375,0.42755126953125,-0.4277496337890625
0.8231048583984375,0.4783935546875,-0.4106903076171875
0.7745208740234375,0.378021240234375,-0.4037933349609375
0.723876953125,0.21734619140625,-0.381195068359375
0.7670135498046875,0.1561126708984375,-0.3619842529296875
0.8723297119140625,0.3347015380859375,-0.470550537109375
0.9386749267578124,0.4531402587890625,-0.4582366943359375
0.8932342529296875,0.3649444580078125,-0.3538360595703125
0.794219970703125,0.313812255859375,-0.368682861328125
0.7278594970703125,0.3136138916015625,-0.42626953125
0.794464111328125,0.27093505859375,-0.372161865234375
0.8496246337890625,0.2989349365234375,-0.3511810302734375
0.843048095703125,0.2952117919921875,-0.34185791015625
0.82891845703125,0.25897216796875,-0.337738037109375
0.8359527587890625,0.2537841796875,-0.3602752685546875
0.8284149169921875,0.24859619140625,-0.3797149658203125
0.9381866455078124,0.2883148193359375,-0.4666748046875
1.0287628173828125,0.2929840087890625,-0.4868621826171875
1.1697540283203125,0.4031219482421875,-0.5458526611328125
1.0602264404296875,0.290374755859375,-0.4432830810546875
1.0994110107421875,0.2835693359375,-0.4746856689453125
0.9542236328125,0.2329864501953125,-0.3934478759765625
0.7695770263671875,0.0791473388671875,-0.2413177490234375
0.7867584228515625,0.1226959228515625,-0.2869873046875
0.9222259521484376,0.3803863525390625,-0.4092864990234375
0.9997100830078124,0.4611663818359375,-0.3978729248046875
0.987335205078125,0.3490447998046875,-0.3159027099609375
0.9823760986328124,0.2231903076171875,-0.26861572265625
0.9023590087890624,0.2667236328125,-0.358489990234375
0.86572265625,0.2769012451171875,-0.3621978759765625
0.8817596435546875,0.3170928955078125,-0.369720458984375
0.8792724609375,0.3820037841796875,-0.3275299072265625
0.81365966796875,0.3995819091796875,-0.2569732666015625
0.7286224365234375,0.3851318359375,-0.25689697265625
0.73651123046875,0.3671875,-0.36212158203125
0.6908721923828125,0.3074493408203125,-0.377227783203125
0.871002197265625,0.31231689453125,-0.55364990234375
1.0807952880859375,0.51220703125,-0.7247161865234375
0.99609375,0.3787689208984375,-0.4559173583984375
0.846435546875,0.105743408203125,-0.2738037109375
0.704559326171875,0.0104827880859375,-0.3069610595703125
0.91937255859375,0.0825347900390625,-0.55047607421875
1.08221435546875,0.1701812744140625,-0.5748291015625
1.0215301513671875,0.2332916259765625,-0.36376953125
0.9589996337890624,0.2907257080078125,-0.30902099609375
0.921234130859375,0.2390594482421875,-0.3858795166015625
0.9237518310546876,0.1349945068359375,-0.4463348388671875
0.9291534423828124,0.1398773193359375,-0.444976806640625
0.958251953125,0.2494049072265625,-0.4099273681640625
0.9619598388671876,0.291473388671875,-0.3177642822265625
0.9039459228515624,0.22747802734375,-0.275177001953125
0.8947601318359375,0.211578369140625,-0.3533782958984375
0.9018707275390624,0.21160888671875,-0.3634796142578125
0.9369659423828124,0.2810516357421875,-0.32696533203125
0.99542236328125,0.382293701171875,-0.3135223388671875
0.9745025634765624,0.4334716796875,-0.2994537353515625
0.9206085205078124,0.3928985595703125,-0.296142578125
0.8702850341796875,0.3820343017578125,-0.3128662109375
0.8598175048828125,0.3624725341796875,-0.291595458984375
0.8069915771484375,0.3491668701171875,-0.2373199462890625
0.816131591796875,0.4009246826171875,-0.3208160400390625
0.948577880859375,0.4319305419921875,-0.3682708740234375
1.001129150390625,0.4318389892578125,-0.316986083984375
1.008331298828125,0.3732452392578125,-0.236053466796875
0.967620849609375,0.329803466796875,-0.17974853515625
0.927001953125,0.3568878173828125,-0.2305145263671875
0.9681854248046876,0.3499603271484375,-0.2741546630859375
0.9273529052734376,0.329559326171875,-0.316925048828125
0.916778564453125,0.3425750732421875,-0.327728271484375
0.8884735107421875,0.3488311767578125,-0.3081817626953125
0.8946075439453125,0.3355560302734375,-0.3253021240234375
0.8780364990234375,0.3609161376953125,-0.3285064697265625
0.8618621826171875,0.3532867431640625,-0.3628387451171875
0.86651611328125,0.299591064453125,-0.3721923828125
0.900726318359375,0.24884033203125,-0.39678955078125
0.99725341796875,0.241302490234375,-0.427032470703125
1.0831451416015625,0.2687835693359375,-0.4300994873046875
0.9485015869140624,0.2959747314453125,-0.4446258544921875
0.943084716796875,0.304229736328125,-0.417205810546875
0.872955322265625,0.26654052734375,-0.40283203125
0.8432159423828125,0.1379241943359375,-0.361114501953125
0.8148651123046875,0.1175537109375,-0.3313446044921875
0.80584716796875,0.2171630859375,-0.35540771484375
0.871734619140625,0.368194580078125,-0.362060546875
0.880401611328125,0.4713287353515625,-0.3542327880859375
0.881317138671875,0.35870361328125,-0.2936553955078125
0.855712890625,0.270904541015625,-0.3358154296875
0.8210296630859375,0.2489013671875,-0.3753204345703125
0.8351593017578125,0.3115997314453125,-0.3672332763671875
0.8488616943359375,0.31158447265625,-0.3776092529296875
0.80560302734375,0.1746673583984375,-0.373199462890625
0.822967529296875,0.1732330322265625,-0.4339447021484375
0.851593017578125,0.3121185302734375,-0.411895751953125
0.8766632080078125,0.240234375,-0.294921875
0.8801727294921875,0.146759033203125,-0.40765380859375
0.887054443359375,0.1847686767578125,-0.466217041015625
0.9697418212890624,0.1956329345703125,-0.4142303466796875
1.156585693359375,0.3260955810546875,-0.5377655029296875
1.115753173828125,0.3700103759765625,-0.48187255859375
1.1211090087890625,0.260528564453125,-0.426849365234375
1.0450439453125,0.3247222900390625,-0.466796875
0.9202117919921876,0.1930694580078125,-0.340972900390625
0.789520263671875,0.1143951416015625,-0.29150390625
0.8154144287109375,0.2265167236328125,-0.4329681396484375
0.825653076171875,0.3634490966796875,-0.4939727783203125
0.8735504150390625,0.4654388427734375,-0.496063232421875
0.8721923828125,0.388824462890625,-0.39349365234375
0.8472137451171875,0.305267333984375,-0.3506622314453125
0.8316802978515625,0.31304931640625,-0.422332763671875
0.81048583984375,0.323516845703125,-0.473419189453125
0.8055572509765625,0.3607940673828125,-0.494415283203125
0.789886474609375,0.3950958251953125,-0.4743804931640625
0.777435302734375,0.3979339599609375,-0.4137115478515625
0.77850341796875,0.389373779296875,-0.375640869140625
0.840362548828125,0.376434326171875,-0.3671417236328125
0.9472808837890624,0.4178009033203125,-0.4158782958984375
1.0477752685546875,0.5186614990234375,-0.455963134765625
1.0883636474609375,0.5422515869140625,-0.344085693359375
0.96990966796875,0.4115447998046875,-0.145172119140625
0.8514556884765625,0.3148651123046875,-0.133697509765625
0.847991943359375,0.331817626953125,-0.26318359375
0.933746337890625,0.3172607421875,-0.32861328125
1.035400390625,0.345458984375,-0.345794677734375
0.965911865234375,0.3455810546875,-0.19256591796875
0.9083251953125,0.2745208740234375,-0.2137603759765625
0.9523162841796876,0.268280029296875,-0.252471923828125
0.976654052734375,0.320831298828125,-0.181304931640625
1.0146331787109375,0.3582305908203125,-0.1479644775390625
1.0228424072265625,0.2401123046875,-0.1948089599609375
0.99725341796875,0.2790069580078125,-0.1900482177734375
0.9532318115234376,0.2731781005859375,-0.2114410400390625
0.884674072265625,0.2735595703125,-0.236846923828125
0.8745880126953125,0.2372283935546875,-0.1892547607421875
0.8882293701171875,0.20892333984375,-0.20892333984375
0.8822784423828125,0.1919708251953125,-0.245361328125
0.8982086181640625,0.1493682861328125,-0.272216796875
0.9481353759765624,0.18524169921875,-0.32794189453125
1.0611724853515625,0.284881591796875,-0.443084716796875
1.116180419921875,0.341949462890625,-0.4279632568359375
1.0785064697265625,0.2900848388671875,-0.370452880859375
1.0550994873046875,0.3125,-0.3861541748046875
0.969696044921875,0.193603515625,-0.2995147705078125
0.8766632080078125,0.1899261474609375,-0.3601226806640625
0.9191436767578124,0.2762298583984375,-0.4603118896484375
1.0722808837890625,0.3941497802734375,-0.3821563720703125
1.0787811279296875,0.45928955078125,-0.3103485107421875
0.95855712890625,0.4054412841796875,-0.3786773681640625
0.895355224609375,0.3343505859375,-0.3225860595703125
0.8290863037109375,0.35760498046875,-0.2640533447265625
0.838165283203125,0.428680419921875,-0.1429901123046875
0.793121337890625,0.4661712646484375,-0.096466064453125
0.731719970703125,0.380401611328125,-0.136138916015625
0.7259368896484375,0.34637451171875,-0.1687774658203125
0.7420501708984375,0.357147216796875,-0.1416778564453125
0.753509521484375,0.38397216796875,-0.17236328125
0.8126373291015625,0.4029083251953125,-0.2198333740234375
0.8843536376953125,0.4424285888671875,-0.2790374755859375
0.966949462890625,0.4829254150390625,-0.3247528076171875
1.2102508544921875,0.558074951171875,-0.457550048828125
1.2232818603515625,0.5547943115234375,-0.4181365966796875
1.14031982421875,0.400787353515625,-0.298736572265625
0.9937744140625,0.3281097412109375,-0.242950439453125
0.8306427001953125,0.1394500732421875,-0.1853179931640625
0.9297637939453124,0.072174072265625,-0.2407073974609375
1.025299072265625,0.1685333251953125,-0.334442138671875
1.0472412109375,0.3577880859375,-0.3220367431640625
0.9711761474609376,0.3404693603515625,-0.2013397216796875
0.894989013671875,0.2480010986328125,-0.2208709716796875
0.8690185546875,0.2505035400390625,-0.316497802734375
0.85845947265625,0.2996978759765625,-0.34161376953125
0.8697967529296875,0.3747100830078125,-0.29608154296875
0.8797454833984375,0.407623291015625,-0.257293701171875
0.885345458984375,0.396636962890625,-0.267333984375
0.88818359375,0.3816986083984375,-0.3164520263671875
0.860137939453125,0.4022979736328125,-0.319854736328125
0.84222412109375,0.4319000244140625,-0.30841064453125
0.97381591796875,0.5314483642578125,-0.3582763671875
1.033172607421875,0.567352294921875,-0.3052215576171875
0.9444732666015624,0.40228271484375,-0.1134185791015625
0.9364166259765624,0.38629150390625,-0.1869659423828125
0.9087982177734376,0.480438232421875,-0.1519317626953125
0.83056640625,0.4728546142578125,-0.0749969482421875
0.8265380859375,0.4803619384765625,-0.019012451171875
0.8547515869140625,0.4574737548828125,-0.03997802734375
0.90478515625,0.4786224365234375,-0.0747833251953125
0.932861328125,0.472625732421875,-0.1149749755859375
0.9621429443359376,0.422149658203125,-0.1284942626953125
0.9908905029296876,0.3787078857421875,-0.1172027587890625
1.0920562744140625,0.398895263671875,-0.0083160400390625
1.0780029296875,0.3493194580078125,-0.0200347900390625
1.03875732421875,0.3409271240234375,-0.108917236328125
0.9944305419921876,0.3547821044921875,-0.1281280517578125
0.9578857421875,0.3707122802734375,-0.146270751953125
0.9477386474609376,0.36920166015625,-0.18023681640625
0.9311370849609376,0.374755859375,-0.2015228271484375
0.932373046875,0.3565521240234375,-0.165863037109375
0.9174957275390624,0.3823699951171875,-0.167755126953125
0.910430908203125,0.3859100341796875,-0.187103271484375
1.0057830810546875,0.2947845458984375,-0.18853759765625
0.99224853515625,0.3243255615234375,-0.3344268798828125
0.9747314453125,0.37335205078125,-0.36083984375
0.9383544921875,0.35321044921875,-0.294921875
0.8856353759765625,0.27667236328125,-0.297576904296875
0.910888671875,0.231170654296875,-0.3690643310546875
0.8780975341796875,0.2458343505859375,-0.4121856689453125
0.880889892578125,0.24468994140625,-0.3995208740234375
0.8980560302734375,0.35784912109375,-0.441314697265625
0.8251953125,0.3763885498046875,-0.38006591796875
0.7526702880859375,0.3220062255859375,-0.2892303466796875
0.7008209228515625,0.3311920166015625,-0.330078125
0.7219085693359375,0.35015869140625,-0.3636016845703125
0.7746124267578125,0.351348876953125,-0.3080596923828125
0.816192626953125,0.3694000244140625,-0.27813720703125
0.8660430908203125,0.357757568359375,-0.26422119140625
0.90655517578125,0.3285980224609375,-0.2860107421875
0.93206787109375,0.3092498779296875,-0.3217315673828125
0.9789581298828124,0.2947540283203125,-0.34649658203125
1.0090789794921875,0.2671356201171875,-0.3624725341796875
1.0492401123046875,0.2272186279296875,-0.4075927734375
1.106842041015625,0.220428466796875,-0.4286956787109375
1.1130523681640625,0.2568817138671875,-0.3829345703125
1.0932159423828125,0.3403472900390625,-0.3569793701171875
1.0043487548828125,0.2736968994140625,-0.30328369140625
0.987884521484375,0.3053741455078125,-0.3580474853515625
0.9484405517578124,0.2384033203125,-0.28955078125
0.8382110595703125,0.171783447265625,-0.216461181640625
0.852142333984375,0.203765869140625,-0.2787628173828125
0.9821319580078124,0.37933349609375,-0.3418121337890625
1.0682220458984375,0.51275634765625,-0.3106689453125
1.03411865234375,0.5242919921875,-0.182281494140625
0.934661865234375,0.4259490966796875,-0.0304412841796875
0.92816162109375,0.4157257080078125,-0.0462646484375
0.9486236572265624,0.4639129638671875,-0.16534423828125
0.970611572265625,0.480010986328125,-0.2178192138671875
0.9358978271484376,0.4517364501953125,-0.1991424560546875
0.897247314453125,0.418243408203125,-0.2156982421875
0.870819091796875,0.387115478515625,-0.2277069091796875
0.845916748046875,0.3958892822265625,-0.2465972900390625
0.8056182861328125,0.4039764404296875,-0.282745361328125
0.7751617431640625,0.3881988525390625,-0.2727813720703125
0.789886474609375,0.416534423828125,-0.30804443359375
0.8946533203125,0.4716644287109375,-0.4236602783203125
0.9120330810546876,0.397003173828125,-0.4038848876953125
0.9521026611328124,0.358612060546875,-0.3933563232421875
0.9725189208984376,0.4305267333984375,-0.409576416015625
0.9049072265625,0.315277099609375,-0.298736572265625
0.819854736328125,0.1299896240234375,-0.2403564453125
0.8437042236328125,0.1163787841796875,-0.3837127685546875
0.93609619140625,0.295013427734375,-0.4965057373046875
0.9781341552734376,0.419525146484375,-0.4117584228515625
0.93408203125,0.3327484130859375,-0.2677459716796875
0.864288330078125,0.2099609375,-0.3136444091796875
0.8851776123046875,0.1815948486328125,-0.4200592041015625
0.945526123046875,0.206298828125,-0.426849365234375
0.95733642578125,0.276031494140625,-0.327850341796875
0.965972900390625,0.2966766357421875,-0.3079833984375
0.8915252685546875,0.2827301025390625,-0.3270263671875
0.877960205078125,0.3161163330078125,-0.35894775390625
0.9735870361328124,0.4156951904296875,-0.356170654296875
0.98760986328125,0.414031982421875,-0.2340240478515625
0.906280517578125,0.3807220458984375,-0.1351776123046875
0.95635986328125,0.399658203125,-0.1264495849609375
0.9623870849609376,0.4560394287109375,-0.0397186279296875
0.9744110107421876,0.5396728515625,-0.0427093505859375
1.0015869140625,0.44610595703125,0.0410614013671875
0.93035888671875,0.415771484375,-0.0218505859375
0.9183349609375,0.3462982177734375,-0.0468292236328125
0.970672607421875,0.3441314697265625,-0.1011505126953125
0.990814208984375,0.3517608642578125,-0.1251373291015625
1.012939453125,0.329620361328125,-0.093292236328125
1.004608154296875,0.30718994140625,-0.096710205078125
0.9923553466796876,0.2910003662109375,-0.11474609375
0.998260498046875,0.2946319580078125,-0.12353515625
0.9851531982421876,0.312042236328125,-0.13800048828125
0.97772216796875,0.3112945556640625,-0.1504974365234375
0.983551025390625,0.3410491943359375,-0.198822021484375
0.942962646484375,0.34185791015625,-0.2095947265625
0.923492431640625,0.3394775390625,-0.2305450439453125
1.01837158203125,0.3516082763671875,-0.2964935302734375
1.0554046630859375,0.405517578125,-0.334228515625
0.9859619140625,0.3592376708984375,-0.3044586181640625
0.9168701171875,0.320098876953125,-0.35614013671875
0.7998504638671875,0.2461395263671875,-0.3585968017578125
0.7790069580078125,0.15789794921875,-0.31884765625
0.849822998046875,0.1867523193359375,-0.3614654541015625
0.9277801513671876,0.3685455322265625,-0.38995361328125
0.921295166015625,0.4595489501953125,-0.3078155517578125
0.8628387451171875,0.3768157958984375,-0.1986541748046875
0.8043212890625,0.2584991455078125,-0.2802734375
0.796142578125,0.236968994140625,-0.3868560791015625
0.8177642822265625,0.2584686279296875,-0.397308349609375
0.844970703125,0.28680419921875,-0.3187713623046875
0.8615570068359375,0.2827301025390625,-0.285797119140625
0.879608154296875,0.255706787109375,-0.2979888916015625
0.868133544921875,0.2373504638671875,-0.2945709228515625
0.87286376953125,0.24591064453125,-0.3272247314453125
0.9315032958984376,0.2812957763671875,-0.3528900146484375
1.0282440185546875,0.3279571533203125,-0.382843017578125
1.214141845703125,0.4005889892578125,-0.4560546875
1.1614532470703125,0.3540191650390625,-0.3604583740234375
1.109893798828125,0.278076171875,-0.384857177734375
0.98919677734375,0.1573486328125,-0.3061676025390625
0.8374481201171875,0.01483154296875,-0.2188262939453125
0.8990631103515625,0.144073486328125,-0.3392181396484375
0.9896087646484376,0.4149017333984375,-0.4022369384765625
1.0124053955078125,0.4710845947265625,-0.330047607421875
1.0118560791015625,0.3502044677734375,-0.246307373046875
0.9246368408203124,0.2657318115234375,-0.27294921875
0.8725433349609375,0.27435302734375,-0.3355255126953125
0.8979949951171875,0.3521575927734375,-0.3324127197265625
0.8892059326171875,0.419708251953125,-0.2925262451171875
0.8505859375,0.4024810791015625,-0.2390594482421875
0.81134033203125,0.3565826416015625,-0.247802734375
0.7860565185546875,0.368255615234375,-0.2904205322265625
0.7771759033203125,0.37615966796875,-0.301666259765625
0.800079345703125,0.3957977294921875,-0.3570404052734375
0.907501220703125,0.4765625,-0.44354248046875
0.921417236328125,0.4193115234375,-0.43072509765625
0.96490478515625,0.3631439208984375,-0.45587158203125
0.904754638671875,0.322784423828125,-0.44403076171875
0.8256683349609375,0.2390899658203125,-0.4003753662109375
0.78228759765625,0.1519775390625,-0.37554931640625
0.87347412109375,0.160858154296875,-0.4629669189453125
1.0050201416015625,0.37255859375,-0.554534912109375
0.946929931640625,0.489166259765625,-0.4399261474609375
0.8606109619140625,0.4015655517578125,-0.3114013671875
0.7993316650390625,0.2857666015625,-0.3360443115234375
0.7924346923828125,0.235931396484375,-0.4493560791015625
0.860076904296875,0.2410736083984375,-0.5146331787109375
0.8910064697265625,0.30401611328125,-0.4229583740234375
0.8895721435546875,0.3235626220703125,-0.3100128173828125
0.865997314453125,0.2897491455078125,-0.3193817138671875
0.8794097900390625,0.294677734375,-0.42181396484375
0.912872314453125,0.30584716796875,-0.4061431884765625
0.9121246337890624,0.28460693359375,-0.278564453125
0.95220947265625,0.2809295654296875,-0.1937713623046875
0.99249267578125,0.30609130859375,-0.196685791015625
1.0479278564453125,0.3363037109375,-0.20697021484375
1.08074951171875,0.3622894287109375,-0.11676025390625
1.0162506103515625,0.4434356689453125,-0.073577880859375
1.0227203369140625,0.37872314453125,-0.0762939453125
0.993621826171875,0.410736083984375,-0.1071014404296875
0.9502105712890624,0.5005340576171875,-0.1054534912109375
0.9080352783203124,0.4962615966796875,-0.02642822265625
0.8666534423828125,0.476104736328125,-0.0594940185546875
0.868865966796875,0.440155029296875,-0.105926513671875
0.9088592529296876,0.3875274658203125,-0.094482421875
0.9414215087890624,0.40240478515625,-0.1087493896484375
0.9833221435546876,0.3824462890625,-0.0668182373046875
0.943634033203125,0.3458251953125,-0.06427001953125
0.9517059326171876,0.314361572265625,-0.2011566162109375
0.9317474365234376,0.2765350341796875,-0.238861083984375
0.9823150634765624,0.2911834716796875,-0.2604522705078125
0.9774627685546876,0.2841644287109375,-0.283050537109375
0.9814605712890624,0.2879180908203125,-0.2896728515625
0.9568939208984376,0.25823974609375,-0.2914886474609375
0.9345703125,0.273651123046875,-0.325531005859375
0.91375732421875,0.2792816162109375,-0.34454345703125
0.939453125,0.329498291015625,-0.351959228515625
1.0273284912109375,0.4097442626953125,-0.3172454833984375
1.0309295654296875,0.38751220703125,-0.234161376953125
0.937103271484375,0.38580322265625,-0.2901458740234375
0.8404388427734375,0.33270263671875,-0.34228515625
0.8079376220703125,0.2606048583984375,-0.3543243408203125
0.8101806640625,0.242462158203125,-0.3662109375
0.8413543701171875,0.30255126953125,-0.3702850341796875
0.8747711181640625,0.3836822509765625,-0.367401123046875
0.858795166015625,0.4489898681640625,-0.3347930908203125
0.7885284423828125,0.3908538818359375,-0.2897796630859375
0.7624053955078125,0.3177642822265625,-0.3392791748046875
0.7583465576171875,0.3163604736328125,-0.403228759765625
0.79779052734375,0.3362884521484375,-0.3742218017578125
0.83795166015625,0.34063720703125,-0.3260955810546875
0.871490478515625,0.327667236328125,-0.3351898193359375
0.88299560546875,0.2931976318359375,-0.3414764404296875
0.904510498046875,0.27410888671875,-0.35223388671875
0.92315673828125,0.271759033203125,-0.355560302734375
0.950225830078125,0.2656402587890625,-0.3714599609375
0.993927001953125,0.2766265869140625,-0.38507080078125
1.02978515625,0.2798614501953125,-0.3652191162109375
1.1593170166015625,0.3349151611328125,-0.45330810546875
1.019195556640625,0.305206298828125,-0.313873291015625
1.0905609130859375,0.2999114990234375,-0.3487701416015625
1.0838165283203125,0.3330841064453125,-0.3593902587890625
0.909210205078125,0.2098541259765625,-0.1883697509765625
0.810211181640625,0.1539306640625,-0.2015380859375
0.9171295166015624,0.37451171875,-0.39984130859375
1.04443359375,0.5062103271484375,-0.3324127197265625
1.0326080322265625,0.3966827392578125,-0.143157958984375
0.9866790771484376,0.3500823974609375,-0.1839447021484375
0.87860107421875,0.37127685546875,-0.3138580322265625
0.8343048095703125,0.3912353515625,-0.3880767822265625
0.8323516845703125,0.38775634765625,-0.37371826171875
0.858917236328125,0.3770751953125,-0.2956085205078125
0.84954833984375,0.394287109375,-0.3000640869140625
0.8360595703125,0.374786376953125,-0.3264312744140625
0.840057373046875,0.3653564453125,-0.3614501953125
0.835357666015625,0.3680572509765625,-0.37774658203125
0.865936279296875,0.43511962890625,-0.4295806884765625
0.9463348388671876,0.5524749755859375,-0.4570770263671875
0.8955078125,0.45599365234375,-0.370208740234375
0.8587799072265625,0.38641357421875,-0.406829833984375
0.7964324951171875,0.3623504638671875,-0.4357757568359375
0.7473602294921875,0.259521484375,-0.4232177734375
0.749420166015625,0.1551971435546875,-0.4051666259765625
0.8568115234375,0.1595611572265625,-0.45330810546875
0.9964752197265624,0.349761962890625,-0.5016937255859375
1.011383056640625,0.3769073486328125,-0.3626861572265625
0.922607421875,0.2715911865234375,-0.31610107421875
0.8802642822265625,0.2386016845703125,-0.405487060546875
0.8265380859375,0.2303009033203125,-0.455230712890625
0.83880615234375,0.2588653564453125,-0.4537200927734375
0.8687286376953125,0.296539306640625,-0.39495849609375
0.876312255859375,0.2954254150390625,-0.3838958740234375
0.8705596923828125,0.2701568603515625,-0.409423828125
0.881134033203125,0.279693603515625,-0.452911376953125
0.967864990234375,0.3425750732421875,-0.4627838134765625
1.0263519287109375,0.396270751953125,-0.418731689453125
0.9523773193359376,0.3106842041015625,-0.3205413818359375
0.934051513671875,0.3064117431640625,-0.30462646484375
0.8907012939453125,0.327301025390625,-0.2284088134765625
0.9038848876953124,0.4145660400390625,-0.14031982421875
0.9113311767578124,0.501983642578125,-0.080078125
0.882965087890625,0.57208251953125,-0.12200927734375
0.8474273681640625,0.5272064208984375,-0.145660400390625
0.8754730224609375,0.4232940673828125,-0.1776885986328125
0.9248199462890624,0.39105224609375,-0.23284912109375
0.9736328125,0.345916748046875,-0.247711181640625
1.003662109375,0.301910400390625,-0.2434539794921875
1.0092315673828125,0.2786407470703125,-0.2483978271484375
1.01031494140625,0.295654296875,-0.2568359375
0.957855224609375,0.3238677978515625,-0.2312469482421875
0.9249725341796876,0.35693359375,-0.3033905029296875
0.89837646484375,0.365875244140625,-0.34051513671875
0.8788909912109375,0.3755950927734375,-0.31683349609375
0.880523681640625,0.3802947998046875,-0.309234619140625
0.99554443359375,0.4783935546875,-0.4428558349609375
0.9924774169921876,0.446685791015625,-0.4281158447265625
1.0384521484375,0.3866119384765625,-0.388641357421875
0.9333953857421876,0.38299560546875,-0.3857574462890625
0.8515625,0.3503875732421875,-0.3669281005859375
0.8328399658203125,0.271881103515625,-0.3676605224609375
0.8607330322265625,0.2833404541015625,-0.4027862548828125
0.8968658447265625,0.407073974609375,-0.4529266357421875
0.8927001953125,0.467010498046875,-0.4127655029296875
0.8591766357421875,0.430145263671875,-0.3349761962890625
0.80621337890625,0.340545654296875,-0.2777252197265625
0.774322509765625,0.30902099609375,-0.3547821044921875
0.73089599609375,0.309417724609375,-0.4042816162109375
0.6890106201171875,0.337890625,-0.396942138671875
0.6474761962890625,0.355072021484375,-0.37384033203125
0.64801025390625,0.3361968994140625,-0.3782196044921875
0.673736572265625,0.2912750244140625,-0.369537353515625
0.7339935302734375,0.314361572265625,-0.3938751220703125
0.8564910888671875,0.362518310546875,-0.4105682373046875
1.0168304443359375,0.412994384765625,-0.457244873046875
1.2185211181640625,0.456573486328125,-0.55035400390625
1.2510986328125,0.458709716796875,-0.4808197021484375
1.1375274658203125,0.278411865234375,-0.4077606201171875
1.150604248046875,0.3069610595703125,-0.5084381103515625
0.9259185791015624,0.185760498046875,-0.304779052734375
0.8470001220703125,0.076507568359375,-0.2910003662109375
0.9253387451171876,0.26422119140625,-0.488677978515625
0.964508056640625,0.4033203125,-0.497100830078125
0.9857330322265624,0.3485565185546875,-0.3481597900390625
0.9248046875,0.2060089111328125,-0.259765625
0.880401611328125,0.1928558349609375,-0.2696990966796875
0.9010467529296876,0.285675048828125,-0.296539306640625
0.9291229248046876,0.344970703125,-0.3019561767578125
0.9387359619140624,0.3692474365234375,-0.2602386474609375
0.929718017578125,0.39703369140625,-0.2567901611328125
0.90460205078125,0.4078826904296875,-0.27703857421875
0.9019775390625,0.4349212646484375,-0.33892822265625
0.924041748046875,0.421661376953125,-0.3646392822265625
1.0055694580078125,0.4732818603515625,-0.491363525390625
0.985931396484375,0.5644683837890625,-0.5293426513671875
0.9344635009765624,0.4910125732421875,-0.42626953125
0.8789825439453125,0.479736328125,-0.412200927734375
0.777862548828125,0.3724212646484375,-0.3836669921875
0.6987457275390625,0.215850830078125,-0.3243255615234375
0.67108154296875,0.15264892578125,-0.369964599609375
0.7221221923828125,0.2276763916015625,-0.4796600341796875
0.8767242431640625,0.4390411376953125,-0.532684326171875
0.88262939453125,0.5236968994140625,-0.3980560302734375
0.8378143310546875,0.43450927734375,-0.2444000244140625
0.7953338623046875,0.3289031982421875,-0.29010009765625
0.771270751953125,0.31353759765625,-0.443511962890625
0.7750091552734375,0.298248291015625,-0.5047149658203125
0.797149658203125,0.3055572509765625,-0.49560546875
0.8291015625,0.3159942626953125,-0.4475860595703125
0.859344482421875,0.3141632080078125,-0.461181640625
0.9159393310546876,0.3485565185546875,-0.4932861328125
0.9454803466796876,0.3486175537109375,-0.5075225830078125
0.9683837890625,0.3159332275390625,-0.50421142578125
0.96697998046875,0.286163330078125,-0.4650115966796875
0.9272003173828124,0.26263427734375,-0.42254638671875
0.8964385986328125,0.2822723388671875,-0.35174560546875
0.864776611328125,0.3389434814453125,-0.2796630859375
0.8362884521484375,0.3477935791015625,-0.2070770263671875
0.8323211669921875,0.3679046630859375,-0.1702728271484375
0.8603973388671875,0.41778564453125,-0.17266845703125
0.9019317626953124,0.45269775390625,-0.1425933837890625
0.9329071044921876,0.5343475341796875,-0.2056732177734375
1.006378173828125,0.53021240234375,-0.2235870361328125
1.020965576171875,0.46014404296875,-0.176513671875
1.0106658935546875,0.416412353515625,-0.114837646484375
1.0086822509765625,0.417694091796875,-0.128875732421875
0.988128662109375,0.4506988525390625,-0.173004150390625
0.973876953125,0.473663330078125,-0.1838836669921875
0.9360198974609376,0.439422607421875,-0.1971893310546875
0.9186859130859376,0.4304046630859375,-0.25140380859375
0.90924072265625,0.450897216796875,-0.3070220947265625
0.9057464599609376,0.4221343994140625,-0.2943267822265625
0.91290283203125,0.41070556640625,-0.298614501953125
0.885986328125,0.4212188720703125,-0.3167572021484375
0.8522796630859375,0.4044647216796875,-0.330078125
0.86932373046875,0.469329833984375,-0.4056549072265625
0.8176116943359375,0.5154876708984375,-0.3810882568359375
0.7191162109375,0.434112548828125,-0.304443359375
0.72943115234375,0.4398040771484375,-0.3918914794921875
0.783294677734375,0.417755126953125,-0.4665374755859375
0.7925567626953125,0.2983245849609375,-0.3948822021484375
0.8778228759765625,0.1954803466796875,-0.423675537109375
0.9344024658203124,0.374755859375,-0.53802490234375
0.9245758056640624,0.4740753173828125,-0.4586029052734375
0.8357086181640625,0.3588104248046875,-0.3203277587890625
0.78472900390625,0.2789154052734375,-0.351470947265625
0.7744598388671875,0.3272705078125,-0.45770263671875
0.8181610107421875,0.3539276123046875,-0.4447174072265625
0.852142333984375,0.3791046142578125,-0.37896728515625
0.8520355224609375,0.349212646484375,-0.348114013671875
0.855712890625,0.3088531494140625,-0.3946075439453125
0.87249755859375,0.2657928466796875,-0.40478515625
0.898193359375,0.26708984375,-0.41204833984375
0.9586181640625,0.32952880859375,-0.454803466796875
1.03704833984375,0.382293701171875,-0.461944580078125
1.0561676025390625,0.40191650390625,-0.407928466796875
0.9532470703125,0.241943359375,-0.329559326171875
1.0420684814453125,0.312286376953125,-0.49493408203125
1.0364532470703125,0.42669677734375,-0.436920166015625
0.92449951171875,0.353118896484375,-0.2260284423828125
0.8255615234375,0.2915191650390625,-0.1281585693359375
0.7673797607421875,0.3242340087890625,-0.17498779296875
0.8683319091796875,0.457061767578125,-0.3236083984375
0.9239349365234376,0.589813232421875,-0.35986328125
0.8812408447265625,0.5667266845703125,-0.271728515625
0.9440765380859376,0.3856964111328125,-0.1667022705078125
0.9787445068359376,0.291351318359375,-0.1787567138671875
1.00726318359375,0.3240509033203125,-0.2707977294921875
1.012359619140625,0.4473876953125,-0.2954559326171875
0.9678802490234376,0.47906494140625,-0.2189178466796875
0.8890380859375,0.457000732421875,-0.194915771484375
0.824493408203125,0.47064208984375,-0.30950927734375
0.7846221923828125,0.4166107177734375,-0.3414764404296875
0.7748565673828125,0.386566162109375,-0.381134033203125
0.777069091796875,0.36407470703125,-0.401153564453125
0.775665283203125,0.374664306640625,-0.427734375
0.7839202880859375,0.37945556640625,-0.44757080078125
0.8472900390625,0.4562835693359375,-0.5180206298828125
0.84161376953125,0.437713623046875,-0.50665283203125
0.908233642578125,0.4484710693359375,-0.4789581298828125
0.8854827880859375,0.4236907958984375,-0.4443206787109375
0.803680419921875,0.2974853515625,-0.390350341796875
0.782958984375,0.2099609375,-0.38330078125
0.8159027099609375,0.191558837890625,-0.446258544921875
0.9041748046875,0.27020263671875,-0.519012451171875
0.9918975830078124,0.4318695068359375,-0.50689697265625
0.94915771484375,0.4053497314453125,-0.3604736328125
0.879669189453125,0.2655181884765625,-0.3262939453125
0.8294677734375,0.250335693359375,-0.4414825439453125
0.80963134765625,0.276519775390625,-0.5223846435546875
0.835174560546875,0.308868408203125,-0.489227294921875
0.8482666015625,0.35723876953125,-0.3941192626953125
0.8308258056640625,0.3459625244140625,-0.352447509765625
0.8285369873046875,0.3217010498046875,-0.393280029296875
0.860748291015625,0.3286590576171875,-0.4425506591796875
0.9571533203125,0.37860107421875,-0.442047119140625
1.0081787109375,0.4212799072265625,-0.4021453857421875
1.003265380859375,0.3763885498046875,-0.3687744140625
0.9803314208984376,0.3783721923828125,-0.3610687255859375
0.9141998291015624,0.32562255859375,-0.3016510009765625
0.9109954833984376,0.33563232421875,-0.2939300537109375
0.8988189697265625,0.358978271484375,-0.25531005859375
0.920318603515625,0.3709716796875,-0.2103118896484375
0.9909515380859376,0.4171600341796875,-0.2133636474609375
1.0203857421875,0.384490966796875,-0.173828125
1.0517578125,0.3646240234375,-0.1496429443359375
1.063507080078125,0.3646697998046875,-0.10919189453125
1.0428466796875,0.3845367431640625,-0.0789947509765625
1.0099639892578125,0.409027099609375,-0.0904693603515625
0.977264404296875,0.4349212646484375,-0.1397552490234375
0.92657470703125,0.429901123046875,-0.1075286865234375
0.9216461181640624,0.43658447265625,-0.22125244140625
0.9419097900390624,0.3372039794921875,-0.317596435546875
0.94439697265625,0.311187744140625,-0.332489013671875
0.93060302734375,0.3058624267578125,-0.3591766357421875
0.98828125,0.3308868408203125,-0.4106903076171875
1.0139617919921875,0.3759918212890625,-0.4113311767578125
0.9534759521484376,0.351959228515625,-0.3034820556640625
0.943389892578125,0.3636932373046875,-0.377044677734375
0.93316650390625,0.36859130859375,-0.415191650390625
0.917236328125,0.270843505859375,-0.292572021484375
0.8692169189453125,0.25079345703125,-0.290496826171875
0.8613739013671875,0.2987823486328125,-0.3932037353515625
0.8994903564453125,0.3828277587890625,-0.4648284912109375
0.88177490234375,0.42486572265625,-0.4278106689453125
0.7878570556640625,0.3581695556640625,-0.3725738525390625
0.6946563720703125,0.2985687255859375,-0.3991241455078125
0.6720123291015625,0.3121185302734375,-0.4373321533203125
0.6762847900390625,0.3534088134765625,-0.4180755615234375
0.725189208984375,0.36981201171875,-0.38201904296875
0.7787933349609375,0.3741302490234375,-0.3664093017578125
0.835357666015625,0.367706298828125,-0.3744964599609375
0.869964599609375,0.334442138671875,-0.3813323974609375
0.93353271484375,0.3138427734375,-0.362091064453125
0.99847412109375,0.317535400390625,-0.37493896484375
1.067535400390625,0.30609130859375,-0.4225616455078125
1.1090545654296875,0.29205322265625,-0.39898681640625
1.27923583984375,0.3976898193359375,-0.5028533935546875
1.11102294921875,0.2392120361328125,-0.38970947265625
1.17694091796875,0.2694854736328125,-0.43267822265625
1.03668212890625,0.2307281494140625,-0.292999267578125
0.847503662109375,0.10919189453125,-0.199310302734375
0.9046173095703124,0.2372283935546875,-0.3904876708984375
0.966949462890625,0.3866424560546875,-0.410919189453125
0.980133056640625,0.4047393798828125,-0.29681396484375
0.962646484375,0.344512939453125,-0.2205047607421875
0.9214935302734376,0.3163909912109375,-0.2451324462890625
0.92193603515625,0.3390045166015625,-0.2769927978515625
0.939910888671875,0.373748779296875,-0.2837371826171875
0.9373016357421876,0.3959503173828125,-0.301025390625
0.9350128173828124,0.40814208984375,-0.270843505859375
0.9279327392578124,0.394775390625,-0.282928466796875
0.910736083984375,0.4268951416015625,-0.3221435546875
0.9050750732421876,0.4204864501953125,-0.3137664794921875
0.95660400390625,0.477264404296875,-0.388580322265625
1.0763702392578125,0.6372833251953125,-0.4573974609375
1.008575439453125,0.4585723876953125,-0.326690673828125
0.8256683349609375,0.320037841796875,-0.3246002197265625
0.7136077880859375,0.2471466064453125,-0.35980224609375
0.5980987548828125,0.1727294921875,-0.34942626953125
0.648406982421875,0.17523193359375,-0.398162841796875
0.765167236328125,0.327728271484375,-0.4969482421875
0.8741455078125,0.476837158203125,-0.4379119873046875
0.8595733642578125,0.4074859619140625,-0.280548095703125
0.8371734619140625,0.2969512939453125,-0.3569183349609375
0.839263916015625,0.2537841796875,-0.5169830322265625
0.889495849609375,0.2538604736328125,-0.5437774658203125
0.961669921875,0.205718994140625,-0.46868896484375
0.9612579345703124,0.1895751953125,-0.457275390625
0.9596710205078124,0.1610260009765625,-0.51544189453125
1.0052642822265625,0.1745147705078125,-0.529205322265625
1.052886962890625,0.2214508056640625,-0.473297119140625
1.0288238525390625,0.252532958984375,-0.383026123046875
0.9527130126953124,0.2554779052734375,-0.2923431396484375
0.900421142578125,0.2852783203125,-0.3020477294921875
0.8743133544921875,0.26446533203125,-0.1944732666015625
0.8406219482421875,0.3191680908203125,-0.16845703125
0.9108734130859376,0.4085845947265625,-0.2317047119140625
0.9920654296875,0.4324951171875,-0.196197509765625
0.9503936767578124,0.42791748046875,-0.1697540283203125
0.945648193359375,0.39715576171875,-0.168182373046875
0.9402313232421876,0.3688507080078125,-0.1459503173828125
0.911773681640625,0.380950927734375,-0.2192230224609375
0.8935089111328125,0.39874267578125,-0.2261199951171875
0.91510009765625,0.4190216064453125,-0.2276763916015625
0.8719940185546875,0.46307373046875,-0.3211212158203125
0.873199462890625,0.4506378173828125,-0.3289794921875
0.880523681640625,0.402984619140625,-0.3524932861328125
0.8614501953125,0.3958282470703125,-0.38543701171875
0.855316162109375,0.382415771484375,-0.3693389892578125
0.8514251708984375,0.4333038330078125,-0.39263916015625
0.8368682861328125,0.3958740234375,-0.417694091796875
0.830291748046875,0.367462158203125,-0.4037017822265625
0.8186798095703125,0.386993408203125,-0.4251861572265625
0.81658935546875,0.4093475341796875,-0.4474029541015625
0.8359527587890625,0.3488006591796875,-0.3718414306640625
0.8674774169921875,0.343780517578125,-0.3733062744140625
0.9088592529296876,0.3392486572265625,-0.4085693359375
0.9151458740234376,0.355987548828125,-0.4568023681640625
0.87628173828125,0.320587158203125,-0.4479522705078125
0.8156585693359375,0.2570037841796875,-0.395782470703125
0.8383636474609375,0.244537353515625,-0.4414825439453125
0.912567138671875,0.3207855224609375,-0.551483154296875
0.8630218505859375,0.34356689453125,-0.472015380859375
0.8334197998046875,0.25439453125,-0.37939453125
0.8560333251953125,0.2510528564453125,-0.46649169921875
0.85504150390625,0.3041839599609375,-0.460845947265625
0.8243560791015625,0.243896484375,-0.417633056640625
0.8536529541015625,0.2924041748046875,-0.445770263671875
0.8146820068359375,0.2963714599609375,-0.447509765625
0.7925567626953125,0.286346435546875,-0.4501495361328125
0.7891387939453125,0.249267578125,-0.501251220703125
0.7281341552734375,0.2694549560546875,-0.4749298095703125
0.771026611328125,0.24578857421875,-0.5057830810546875
0.767974853515625,0.2848358154296875,-0.512603759765625
0.776336669921875,0.2032623291015625,-0.4473724365234375
0.823822021484375,0.187103271484375,-0.4256591796875
0.9468994140625,0.2292327880859375,-0.5157470703125
1.059661865234375,0.432769775390625,-0.6769256591796875
1.0438690185546875,0.4442901611328125,-0.54266357421875
0.9585723876953124,0.3694610595703125,-0.4061431884765625
0.7354736328125,0.13006591796875,-0.3740386962890625
0.7550048828125,0.2739410400390625,-0.5587310791015625
0.8602142333984375,0.5322265625,-0.6652679443359375
0.95123291015625,0.4910736083984375,-0.5878753662109375
0.908599853515625,0.347991943359375,-0.5315704345703125
0.8399200439453125,0.263641357421875,-0.5251922607421875
0.846221923828125,0.1927642822265625,-0.5147705078125
0.8949737548828125,0.1852264404296875,-0.475311279296875
0.93731689453125,0.226715087890625,-0.368011474609375
0.880645751953125,0.1905517578125,-0.3653411865234375
0.8964385986328125,0.131622314453125,-0.3970489501953125
0.8774566650390625,0.1463165283203125,-0.451995849609375
0.9153900146484376,0.0689544677734375,-0.3738555908203125
0.8939666748046875,0.1018524169921875,-0.3938140869140625
0.8659515380859375,0.1545867919921875,-0.409271240234375
0.8460540771484375,0.0326690673828125,-0.4028778076171875
0.7823486328125,-0.0902557373046875,-0.4684906005859375
0.8959808349609375,-0.231903076171875,-0.5559234619140625
0.7507171630859375,-0.2884979248046875,-0.705291748046875
0.6874542236328125,-0.155029296875,-0.4962158203125
0.6184539794921875,0.1873016357421875,-0.6939544677734375
0.4548797607421875,-0.1446990966796875,-1.1475372314453125
0.559356689453125,-0.1998138427734375,-0.6255950927734375
0.5960540771484375,-0.039154052734375,-0.8311614990234375
0.6927642822265625,-0.104827880859375,-0.656280517578125
0.7427215576171875,-0.0865478515625,-0.600250244140625
0.79327392578125,-0.0804443359375,-0.592987060546875
0.7298126220703125,-0.0390472412109375,-0.4469451904296875
0.8563079833984375,-0.1100006103515625,-0.6302642822265625
0.847747802734375,-0.060028076171875,-0.626678466796875
0.84075927734375,0.0256195068359375,-0.6526947021484375
0.848968505859375,-0.01165771484375,-0.65618896484375
0.8203887939453125,0.0038604736328125,-0.6514434814453125
0.768310546875,0.0213165283203125,-0.65087890625
0.756500244140625,0.0075225830078125,-0.654998779296875
0.752410888671875,0.0255279541015625,-0.6986846923828125
0.728118896484375,0.059051513671875,-0.7328033447265625
0.729766845703125,0.0660247802734375,-0.739471435546875
0.7025146484375,0.098388671875,-0.731414794921875
0.6505279541015625,0.13629150390625,-0.712554931640625
0.6367034912109375,0.134368896484375,-0.727447509765625
0.6754608154296875,0.1587677001953125,-0.745361328125
0.6806488037109375,0.2179107666015625,-0.7625274658203125
0.6092071533203125,0.1543426513671875,-0.7676849365234375
0.5841217041015625,0.068267822265625,-0.77911376953125
0.5618896484375,0.099456787109375,-0.734283447265625
0.544219970703125,0.1219024658203125,-0.729827880859375
0.54864501953125,0.0855865478515625,-0.7563323974609375
0.5362548828125,0.120269775390625,-0.754058837890625
0.5716705322265625,0.1002197265625,-0.8058929443359375
0.53765869140625,0.0290679931640625,-0.8225860595703125
0.5233612060546875,0.055999755859375,-0.7701416015625
0.509765625,0.02764892578125,-0.8045654296875
0.525115966796875,0.02117919921875,-0.811126708984375
0.5615386962890625,0.0533294677734375,-0.845245361328125
0.6714324951171875,0.1662750244140625,-0.90374755859375
0.679840087890625,0.139190673828125,-0.9762420654296876
0.6603546142578125,0.0742950439453125,-0.9495697021484376
0.510589599609375,0.177490234375,-0.824310302734375
0.4485321044921875,0.2307281494140625,-0.8090362548828125
0.4232635498046875,0.15155029296875,-0.8636474609375
0.3860015869140625,0.1192169189453125,-0.8524017333984375
0.36865234375,0.156585693359375,-0.9506378173828124
0.358184814453125,0.2482757568359375,-1.0110321044921875
0.3334808349609375,0.1062774658203125,-1.0091552734375
0.36871337890625,-0.033477783203125,-0.964080810546875
0.3329010009765625,0.00726318359375,-0.945709228515625
0.3313751220703125,0.029754638671875,-0.9511260986328124
0.265380859375,-0.0526885986328125,-0.9690399169921876
0.27703857421875,-0.1572418212890625,-1.025970458984375
0.3004302978515625,-0.1443634033203125,-1.0430908203125
0.2510833740234375,-0.0902252197265625,-1.04486083984375
0.2116241455078125,-0.1455230712890625,-1.0062103271484375
0.1919403076171875,-0.107391357421875,-1.0000457763671875
0.13470458984375,-0.0846099853515625,-0.9983367919921876
0.0987396240234375,-0.11181640625,-0.9493408203125
0.1064300537109375,-0.123046875,-0.9237518310546876
0.0909271240234375,-0.12158203125,-0.9490509033203124
0.1325836181640625,-0.187713623046875,-0.92755126953125
0.09698486328125,-0.1813812255859375,-1.0363311767578125
0.1467132568359375,-0.20599365234375,-0.9886932373046876
0.104705810546875,-0.1905364990234375,-0.9114837646484376
0.03094482421875,-0.1596221923828125,-0.9176025390625
0.0425872802734375,-0.1967620849609375,-0.9857330322265624
-0.0055389404296875,-0.161163330078125,-0.9723968505859376
0.0403900146484375,-0.236083984375,-0.9355621337890624
0.0443115234375,-0.205291748046875,-1.00115966796875
0.049163818359375,-0.185882568359375,-1.03106689453125
0.057708740234375,-0.203155517578125,-1.0202789306640625
0.0662994384765625,-0.20013427734375,-1.0014495849609375
0.066436767578125,-0.21728515625,-0.9894866943359376
0.0386505126953125,-0.2433929443359375,-1.029998779296875
0.0298004150390625,-0.2245025634765625,-1.0086517333984375
0.003204345703125,-0.2683868408203125,-1.0439605712890625
0.0532379150390625,-0.2481689453125,-1.0065155029296875
0.032012939453125,-0.217864990234375,-0.92999267578125
0.038360595703125,-0.206878662109375,-0.95550537109375
0.0325164794921875,-0.210479736328125,-0.9371185302734376
-0.0134735107421875,-0.2336578369140625,-0.9761810302734376
0.0049896240234375,-0.256805419921875,-1.0783538818359375
0.0254058837890625,-0.2955474853515625,-1.015838623046875
0.0246429443359375,-0.2559356689453125,-0.977630615234375
0.0033111572265625,-0.23773193359375,-0.9744873046875
0.01226806640625,-0.2240753173828125,-0.9354705810546876
-0.0301971435546875,-0.210723876953125,-0.8785400390625
-0.023712158203125,-0.203338623046875,-0.8960418701171875
-0.0221710205078125,-0.2092742919921875,-0.95343017578125
-0.01629638671875,-0.2400665283203125,-0.95428466796875
-0.03167724609375,-0.259979248046875,-1.0290985107421875
0.01422119140625,-0.2864227294921875,-1.0969696044921875
0.0780792236328125,-0.26312255859375,-1.110076904296875
0.062408447265625,-0.2147369384765625,-1.1977081298828125
0.2112579345703125,-0.108306884765625,-1.385955810546875
0.1218109130859375,-0.1167755126953125,-1.1925048828125
0.067657470703125,-0.1298065185546875,-1.03814697265625
0.0205230712890625,-0.0782928466796875,-0.8702392578125
0.004852294921875,-0.0543060302734375,-0.83349609375
0.0123291015625,-0.0546875,-0.816314697265625
0.0515289306640625,-0.0381927490234375,-0.848602294921875
0.0870361328125,-0.0837249755859375,-0.83343505859375
0.1026458740234375,-0.0717010498046875,-0.9337158203125
0.0812225341796875,-0.0776519775390625,-0.9386138916015624
0.0880889892578125,-0.09344482421875,-0.9046478271484376
0.107818603515625,-0.11669921875,-0.9000244140625
0.0754241943359375,-0.1483306884765625,-0.9464111328125
0.0753326416015625,-0.1703643798828125,-0.9137725830078124
0.09820556640625,-0.16033935546875,-0.8941497802734375
0.116119384765625,-0.1888427734375,-0.8714752197265625
0.0854339599609375,-0.2105255126953125,-0.8127899169921875
0.1632537841796875,-0.249359130859375,-0.807586669921875
0.2391510009765625,-0.2535400390625,-0.807220458984375
0.37261962890625,-0.2462921142578125,-0.7700958251953125
0.5150604248046875,-0.21966552734375,-0.8199310302734375
0.6714935302734375,-0.307891845703125,-0.7470245361328125
0.7691802978515625,-0.2641754150390625,-0.632110595703125
0.9312896728515624,-0.145355224609375,-0.5089263916015625
1.0231170654296875,-0.3210296630859375,-0.49005126953125
0.625640869140625,-0.3631439208984375,-0.75042724609375
0.9469757080078124,-0.1743621826171875,-0.5468292236328125
0.998870849609375,-0.235565185546875,-0.472564697265625
0.9331512451171876,-0.37396240234375,-0.5860595703125
0.8412017822265625,-0.140655517578125,-0.4920196533203125
0.768829345703125,0.0357208251953125,-0.51080322265625
0.708709716796875,0.0954742431640625,-0.517242431640625
0.60516357421875,0.0702362060546875,-0.42755126953125
0.495941162109375,0.2514495849609375,-0.4711456298828125
0.4729766845703125,0.20263671875,-0.5373382568359375
0.6790771484375,0.2259368896484375,-0.632049560546875
0.660125732421875,0.2279510498046875,-0.70123291015625
0.8043670654296875,0.318359375,-0.72711181640625
0.979034423828125,0.2119293212890625,-0.6187896728515625
1.0924072265625,0.2778778076171875,-0.5833740234375
1.0446014404296875,0.2615203857421875,-0.5648345947265625
1.07440185546875,0.3289337158203125,-0.489227294921875
1.1211395263671875,0.26104736328125,-0.4586944580078125
1.2520599365234375,0.3572845458984375,-0.5118865966796875
1.2191619873046875,0.3686370849609375,-0.434051513671875
1.104766845703125,0.1971588134765625,-0.3614959716796875
1.1040802001953125,0.2563629150390625,-0.5020751953125
1.04052734375,0.1787872314453125,-0.5190277099609375
0.9075164794921876,0.1112213134765625,-0.4705352783203125
0.841278076171875,0.0677642822265625,-0.3504638671875
0.7843780517578125,0.010986328125,-0.3241424560546875
0.870391845703125,0.09991455078125,-0.3729705810546875
1.0015411376953125,0.3222198486328125,-0.4379119873046875
1.0182037353515625,0.4161224365234375,-0.4076385498046875
0.954681396484375,0.3119354248046875,-0.32855224609375
0.900787353515625,0.3087615966796875,-0.348388671875
0.880218505859375,0.37548828125,-0.3856048583984375
0.845184326171875,0.402923583984375,-0.33526611328125
0.86663818359375,0.4442291259765625,-0.3307952880859375
0.844329833984375,0.3902130126953125,-0.3246612548828125
0.8822174072265625,0.3554840087890625,-0.3302154541015625
0.95574951171875,0.4088287353515625,-0.366180419921875
0.9482879638671876,0.4309539794921875,-0.3082427978515625
0.8929290771484375,0.400634765625,-0.2627410888671875
0.819183349609375,0.4043426513671875,-0.2842864990234375
0.8268585205078125,0.444061279296875,-0.3271026611328125
0.8390045166015625,0.5075531005859375,-0.3765106201171875
0.7965240478515625,0.4369354248046875,-0.33221435546875
0.818511962890625,0.371490478515625,-0.330474853515625
0.84710693359375,0.401153564453125,-0.3707275390625
0.8431243896484375,0.3796234130859375,-0.347198486328125
0.867645263671875,0.368621826171875,-0.302978515625
0.9152679443359376,0.405426025390625,-0.358734130859375
0.933074951171875,0.402099609375,-0.33648681640625
0.911163330078125,0.370147705078125,-0.328887939453125
0.8984527587890625,0.361785888671875,-0.3488311767578125
0.8886566162109375,0.3062286376953125,-0.360870361328125
0.887725830078125,0.2793426513671875,-0.4047393798828125
0.9056396484375,0.286468505859375,-0.4103851318359375
0.943115234375,0.277801513671875,-0.3791961669921875
0.9611053466796876,0.29345703125,-0.397369384765625
0.964599609375,0.3090057373046875,-0.4438018798828125
0.98663330078125,0.30181884765625,-0.458526611328125
1.02130126953125,0.311065673828125,-0.4398956298828125
1.0281219482421875,0.371063232421875,-0.4082489013671875
0.973419189453125,0.3614654541015625,-0.33349609375
0.8555755615234375,0.3249359130859375,-0.378570556640625
0.8806304931640625,0.318450927734375,-0.4355316162109375
0.931732177734375,0.3397979736328125,-0.49322509765625
1.0372314453125,0.4939422607421875,-0.514251708984375
0.99176025390625,0.5347747802734375,-0.401947021484375
0.8670501708984375,0.4430999755859375,-0.30810546875
0.761505126953125,0.3473663330078125,-0.3628997802734375
0.699005126953125,0.3317718505859375,-0.407440185546875
0.65277099609375,0.33758544921875,-0.3990478515625
0.6531524658203125,0.3660125732421875,-0.3558349609375
0.6330108642578125,0.35943603515625,-0.309661865234375
0.630584716796875,0.3104705810546875,-0.317047119140625
0.642333984375,0.2813873291015625,-0.3595428466796875
0.70703125,0.3215179443359375,-0.407318115234375
0.814483642578125,0.3765716552734375,-0.4156494140625
0.9490203857421876,0.396331787109375,-0.48931884765625
1.15252685546875,0.4486083984375,-0.71392822265625
1.22662353515625,0.4461669921875,-0.63726806640625
1.12286376953125,0.281982421875,-0.4727020263671875
1.0855255126953125,0.2678375244140625,-0.501434326171875
1.02154541015625,0.272979736328125,-0.5144500732421875
0.9446563720703124,0.193634033203125,-0.3612060546875
0.850494384765625,0.17572021484375,-0.34771728515625
0.8530120849609375,0.2408599853515625,-0.4608612060546875
0.9275054931640624,0.3719635009765625,-0.50537109375
0.97637939453125,0.3835296630859375,-0.440093994140625
0.9534912109375,0.2815093994140625,-0.376678466796875
0.9061431884765624,0.234466552734375,-0.3790130615234375
0.8705291748046875,0.289764404296875,-0.418243408203125
0.8550262451171875,0.3653411865234375,-0.415191650390625
0.8566131591796875,0.4180145263671875,-0.3827667236328125
0.83660888671875,0.4317626953125,-0.344451904296875
0.817535400390625,0.42132568359375,-0.3454742431640625
0.80303955078125,0.3931121826171875,-0.3569183349609375
0.814300537109375,0.38275146484375,-0.3763427734375
0.8278656005859375,0.3825531005859375,-0.3841705322265625
0.8329315185546875,0.411285400390625,-0.3693695068359375
0.8477020263671875,0.4115753173828125,-0.40087890625
0.99273681640625,0.5453643798828125,-0.5394439697265625
0.9551849365234376,0.457672119140625,-0.459747314453125
0.86419677734375,0.4134979248046875,-0.433319091796875
0.7477569580078125,0.3462677001953125,-0.4357757568359375
0.6854705810546875,0.2530670166015625,-0.4376068115234375
0.6724853515625,0.1713409423828125,-0.4285125732421875
0.7540283203125,0.1965179443359375,-0.4936065673828125
0.8542022705078125,0.39593505859375,-0.54339599609375
0.8896026611328125,0.51220703125,-0.4559326171875
0.844757080078125,0.420257568359375,-0.346435546875
0.7952880859375,0.3274688720703125,-0.3828887939453125
0.765899658203125,0.324188232421875,-0.491943359375
0.7758636474609375,0.316070556640625,-0.4909515380859375
0.8216094970703125,0.3224945068359375,-0.435546875
0.8375701904296875,0.34832763671875,-0.3914642333984375
0.8500823974609375,0.341461181640625,-0.4137725830078125
0.851654052734375,0.3525848388671875,-0.4557342529296875
0.8514862060546875,0.36700439453125,-0.444854736328125
0.884185791015625,0.4110870361328125,-0.4308929443359375
0.925079345703125,0.4404754638671875,-0.4334564208984375
0.934539794921875,0.3657379150390625,-0.4115142822265625
0.9266204833984376,0.3188629150390625,-0.3862152099609375
0.8931121826171875,0.3046417236328125,-0.3473968505859375
0.8447113037109375,0.3569488525390625,-0.3482208251953125
0.859619140625,0.381927490234375,-0.2870635986328125
0.8735198974609375,0.384368896484375,-0.2183074951171875
0.9295196533203124,0.49505615234375,-0.2841033935546875
0.9849853515625,0.5336151123046875,-0.25616455078125
0.9637298583984376,0.4821929931640625,-0.1773529052734375
0.9662933349609376,0.4126739501953125,-0.1781005859375
0.979461669921875,0.3844451904296875,-0.239166259765625
0.96881103515625,0.3787384033203125,-0.230865478515625
0.953765869140625,0.38824462890625,-0.22894287109375
0.9267578125,0.4347381591796875,-0.3048095703125
0.889251708984375,0.4059906005859375,-0.3105621337890625
0.8797454833984375,0.419097900390625,-0.3815765380859375
0.84844970703125,0.375885009765625,-0.373016357421875
0.8392486572265625,0.34661865234375,-0.36328125
0.8253173828125,0.3631439208984375,-0.40472412109375
0.806884765625,0.3885040283203125,-0.4103851318359375
0.78350830078125,0.3955841064453125,-0.4085845947265625
0.7743682861328125,0.4134368896484375,-0.4373931884765625
0.84222412109375,0.4694366455078125,-0.5296173095703125
0.8628387451171875,0.463531494140625,-0.4918670654296875
0.8284912109375,0.4238739013671875,-0.4395599365234375
0.8006439208984375,0.3859100341796875,-0.49981689453125
0.8116912841796875,0.3261871337890625,-0.5119476318359375
0.78839111328125,0.2217254638671875,-0.4380035400390625
0.7714080810546875,0.1857757568359375,-0.428436279296875
0.801422119140625,0.309173583984375,-0.5454254150390625
0.8950958251953125,0.4714508056640625,-0.5532379150390625
0.855804443359375,0.4527587890625,-0.4311981201171875
0.7702789306640625,0.3376617431640625,-0.394378662109375
0.7195892333984375,0.3170013427734375,-0.477783203125
0.7273406982421875,0.3350372314453125,-0.5084991455078125
0.7779998779296875,0.347930908203125,-0.4882965087890625
0.8125762939453125,0.351776123046875,-0.45220947265625
0.80926513671875,0.31597900390625,-0.4433746337890625
0.8023834228515625,0.285430908203125,-0.45501708984375
0.7975311279296875,0.291717529296875,-0.445343017578125
0.805816650390625,0.3073272705078125,-0.4327545166015625
0.8301544189453125,0.3354949951171875,-0.4242095947265625
0.85943603515625,0.3522796630859375,-0.4353485107421875
0.897705078125,0.335723876953125,-0.441680908203125
1.0425872802734375,0.4234466552734375,-0.582977294921875
0.9686126708984376,0.35943603515625,-0.45947265625
0.981048583984375,0.284637451171875,-0.4893951416015625
1.0360260009765625,0.4284820556640625,-0.5569000244140625
0.923248291015625,0.3133697509765625,-0.4158935546875
0.807861328125,0.2230987548828125,-0.3618927001953125
0.7453155517578125,0.2355194091796875,-0.4265594482421875
0.86114501953125,0.3715057373046875,-0.602569580078125
0.9858551025390624,0.514129638671875,-0.6343994140625
0.996856689453125,0.5397491455078125,-0.504180908203125
0.897735595703125,0.5150146484375,-0.443084716796875
0.7826690673828125,0.433380126953125,-0.4533843994140625
0.7168731689453125,0.3852691650390625,-0.4751129150390625
0.6749267578125,0.409027099609375,-0.48797607421875
0.6558990478515625,0.4269256591796875,-0.4871673583984375
0.6667938232421875,0.4294281005859375,-0.47137451171875
0.6995697021484375,0.445953369140625,-0.43304443359375
0.7458648681640625,0.4854583740234375,-0.42010498046875
0.7585296630859375,0.451690673828125,-0.375
0.7857513427734375,0.4508819580078125,-0.3550262451171875
0.845855712890625,0.529632568359375,-0.3952484130859375
0.9561614990234376,0.6541595458984375,-0.4732208251953125
1.063690185546875,0.71148681640625,-0.464752197265625
1.1094970703125,0.706146240234375,-0.3614501953125
1.0530853271484375,0.646453857421875,-0.2779541015625
0.9915924072265624,0.5988311767578125,-0.2070770263671875
0.964141845703125,0.543060302734375,-0.221588134765625
0.9712371826171876,0.5760955810546875,-0.2888336181640625
1.00567626953125,0.5734405517578125,-0.2823486328125
0.96038818359375,0.567230224609375,-0.2618255615234375
0.8878936767578125,0.5518951416015625,-0.2320098876953125
0.9018707275390624,0.500823974609375,-0.2085418701171875
0.937103271484375,0.428558349609375,-0.2446746826171875
0.957763671875,0.436737060546875,-0.320526123046875
0.9994964599609376,0.3566131591796875,-0.317779541015625
0.9849090576171876,0.2863616943359375,-0.3616943359375
0.9626617431640624,0.2393798828125,-0.4121246337890625
0.959564208984375,0.2574615478515625,-0.4578399658203125
0.9477996826171876,0.255828857421875,-0.417755126953125
1.011871337890625,0.2014923095703125,-0.3990631103515625
1.0408782958984375,0.193756103515625,-0.448333740234375
1.04669189453125,0.1236724853515625,-0.4445037841796875
1.0445709228515625,0.1065826416015625,-0.4832611083984375
1.0403594970703125,0.1147003173828125,-0.472412109375
1.065826416015625,0.2023773193359375,-0.504547119140625
1.003448486328125,0.3000946044921875,-0.4915618896484375
0.93719482421875,0.300567626953125,-0.4048919677734375
0.8665008544921875,0.2812042236328125,-0.4231414794921875
0.90179443359375,0.2519989013671875,-0.441009521484375
0.903594970703125,0.4658660888671875,-0.578765869140625
0.86456298828125,0.5129547119140625,-0.6343841552734375
0.849700927734375,0.460845947265625,-0.465911865234375
0.7295989990234375,0.3857879638671875,-0.4682159423828125
0.701873779296875,0.324462890625,-0.5266571044921875
0.7235260009765625,0.29144287109375,-0.5087432861328125
0.7127227783203125,0.342376708984375,-0.5287933349609375
0.715179443359375,0.3523712158203125,-0.4977874755859375
0.74951171875,0.304351806640625,-0.4729156494140625
0.73236083984375,0.31707763671875,-0.551239013671875
0.821380615234375,0.27984619140625,-0.4969635009765625
0.872467041015625,0.2913818359375,-0.4214019775390625
0.865936279296875,0.2445831298828125,-0.447540283203125
0.827117919921875,0.2660980224609375,-0.492279052734375
0.850250244140625,0.3068695068359375,-0.5670928955078125
0.8628082275390625,0.406829833984375,-0.696136474609375
0.8195648193359375,0.3629302978515625,-0.5577392578125
0.7445220947265625,0.3481292724609375,-0.6011962890625
0.7466888427734375,0.27191162109375,-0.5359344482421875
0.7568511962890625,0.2541046142578125,-0.5607147216796875
0.739990234375,0.2989044189453125,-0.6658477783203125
0.7438201904296875,0.2882843017578125,-0.5735931396484375
0.70660400390625,0.3159332275390625,-0.5974884033203125
0.722198486328125,0.3175506591796875,-0.6472625732421875
0.73553466796875,0.3257598876953125,-0.63739013671875
0.7061920166015625,0.334320068359375,-0.632598876953125
0.7321014404296875,0.2810516357421875,-0.5849609375
0.7433013916015625,0.2524871826171875,-0.60809326171875
0.7735748291015625,0.2693939208984375,-0.5803070068359375
0.7506256103515625,0.3079071044921875,-0.5971832275390625
0.7583770751953125,0.268463134765625,-0.556854248046875
0.771881103515625,0.24359130859375,-0.55242919921875
0.811614990234375,0.280242919921875,-0.59381103515625
0.8291015625,0.310821533203125,-0.5676727294921875
0.8011474609375,0.3254852294921875,-0.505859375
0.7773284912109375,0.2891082763671875,-0.5291595458984375
0.7720947265625,0.28948974609375,-0.554656982421875
0.764862060546875,0.3135986328125,-0.558258056640625
0.7493133544921875,0.31927490234375,-0.5444488525390625
0.729156494140625,0.3321533203125,-0.52532958984375
0.7266845703125,0.345306396484375,-0.5149383544921875
0.703887939453125,0.3662567138671875,-0.4898223876953125
0.7327423095703125,0.3742828369140625,-0.5197296142578125
0.75244140625,0.3956756591796875,-0.5201568603515625
0.7941741943359375,0.410400390625,-0.527740478515625
0.847015380859375,0.36932373046875,-0.5393829345703125
0.89398193359375,0.3155670166015625,-0.48785400390625
0.8848876953125,0.3434600830078125,-0.46624755859375
0.8704681396484375,0.3590240478515625,-0.4701080322265625
0.8717193603515625,0.3477325439453125,-0.46331787109375
0.8882904052734375,0.3269500732421875,-0.4477691650390625
0.8985137939453125,0.3271484375,-0.46337890625
0.9077301025390624,0.3131866455078125,-0.48382568359375
0.9233551025390624,0.27099609375,-0.462432861328125
0.878326416015625,0.2327880859375,-0.4557037353515625
0.8828582763671875,0.258087158203125,-0.50390625
0.883544921875,0.2473907470703125,-0.4943389892578125
0.8758087158203125,0.24627685546875,-0.467254638671875
0.8812103271484375,0.2737579345703125,-0.463897705078125
0.8631744384765625,0.3059844970703125,-0.4779052734375
0.845001220703125,0.30950927734375,-0.46868896484375
0.830352783203125,0.31439208984375,-0.4656219482421875
0.814117431640625,0.3341827392578125,-0.489105224609375
0.812469482421875,0.3656005859375,-0.495330810546875
0.7854461669921875,0.3689422607421875,-0.462982177734375
0.7729644775390625,0.365966796875,-0.4679107666015625
0.78143310546875,0.387451171875,-0.4991607666015625
0.7943267822265625,0.3898773193359375,-0.5198516845703125
0.857330322265625,0.41204833984375,-0.58905029296875
0.9123077392578124,0.434661865234375,-0.626251220703125
0.904632568359375,0.3373260498046875,-0.561065673828125
0.8558807373046875,0.281005859375,-0.5261688232421875
0.7833251953125,0.2558746337890625,-0.52679443359375
0.752685546875,0.187042236328125,-0.490875244140625
0.7602081298828125,0.1280364990234375,-0.43817138671875
0.8208465576171875,0.155120849609375,-0.52783203125
0.90228271484375,0.336578369140625,-0.6200714111328125
0.8854522705078125,0.4125213623046875,-0.51959228515625
0.7911529541015625,0.3881072998046875,-0.3670654296875
0.734039306640625,0.346282958984375,-0.38995361328125
0.7038116455078125,0.31524658203125,-0.43402099609375
0.7180633544921875,0.2618255615234375,-0.497406005859375
0.7481842041015625,0.226959228515625,-0.5429534912109375
0.791900634765625,0.242584228515625,-0.551727294921875
0.8047943115234375,0.204254150390625,-0.512237548828125
0.817169189453125,0.2142181396484375,-0.5127105712890625
0.8126983642578125,0.1872100830078125,-0.5206298828125
0.8165435791015625,0.166229248046875,-0.5352935791015625
0.8762359619140625,0.189544677734375,-0.5606689453125
1.02789306640625,0.3135223388671875,-0.536895751953125
0.955902099609375,0.27239990234375,-0.374359130859375
0.9261474609375,0.394866943359375,-0.39892578125
0.8899078369140625,0.4769439697265625,-0.4170989990234375
0.8400115966796875,0.3970794677734375,-0.3797760009765625
0.8228302001953125,0.31842041015625,-0.3584136962890625
0.8040618896484375,0.3350677490234375,-0.4070281982421875
0.821807861328125,0.4110260009765625,-0.4062652587890625
0.8734588623046875,0.449127197265625,-0.359405517578125
0.894287109375,0.4624176025390625,-0.3036041259765625
0.884765625,0.4624481201171875,-0.2713623046875
0.83135986328125,0.49151611328125,-0.270751953125
0.8363494873046875,0.501190185546875,-0.345428466796875
0.83612060546875,0.4445343017578125,-0.395782470703125
0.8586883544921875,0.407501220703125,-0.4180450439453125
0.881683349609375,0.3727264404296875,-0.442352294921875
0.9091339111328124,0.334381103515625,-0.45263671875
0.9301300048828124,0.307830810546875,-0.457275390625
0.9381866455078124,0.29302978515625,-0.4420623779296875
0.914520263671875,0.3146820068359375,-0.388336181640625
0.871826171875,0.3644256591796875,-0.4370574951171875
0.86065673828125,0.368072509765625,-0.4867401123046875
0.8316650390625,0.360382080078125,-0.5072479248046875
0.8487091064453125,0.377655029296875,-0.587158203125
0.9112701416015624,0.48089599609375,-0.7039031982421875
0.8563385009765625,0.4852752685546875,-0.5992584228515625
0.790130615234375,0.355377197265625,-0.44580078125
0.743255615234375,0.25933837890625,-0.4723052978515625
0.71380615234375,0.1690521240234375,-0.5139617919921875
0.707855224609375,0.1331329345703125,-0.5247802734375
0.7655029296875,0.2204742431640625,-0.59393310546875
0.846038818359375,0.3987884521484375,-0.667694091796875
0.7872772216796875,0.4236907958984375,-0.478240966796875
0.747833251953125,0.2994842529296875,-0.3383331298828125
0.7186737060546875,0.29144287109375,-0.4059600830078125
0.6986846923828125,0.3105926513671875,-0.5078277587890625
0.7613525390625,0.375885009765625,-0.5588226318359375
0.749176025390625,0.3646392822265625,-0.473785400390625
0.7714080810546875,0.34576416015625,-0.4549713134765625
0.7911834716796875,0.3375396728515625,-0.468597412109375
0.801788330078125,0.31109619140625,-0.5045928955078125
0.823516845703125,0.31414794921875,-0.52239990234375
0.845977783203125,0.3214569091796875,-0.5072479248046875
0.8578948974609375,0.323211669921875,-0.5280303955078125
0.8764190673828125,0.3097991943359375,-0.54669189453125
0.891815185546875,0.288360595703125,-0.5268707275390625
0.912078857421875,0.295135498046875,-0.5553741455078125
0.930267333984375,0.40081787109375,-0.6350555419921875
0.857208251953125,0.36529541015625,-0.529022216796875
0.9444427490234376,0.32147216796875,-0.520416259765625
0.96954345703125,0.3088226318359375,-0.49688720703125
0.8910675048828125,0.286956787109375,-0.4181060791015625
0.798919677734375,0.267974853515625,-0.3492584228515625
0.764617919921875,0.290008544921875,-0.3708648681640625
0.8789215087890625,0.4644622802734375,-0.5434722900390625
0.9620361328125,0.6573638916015625,-0.619720458984375
0.963104248046875,0.5723419189453125,-0.448760986328125
0.919464111328125,0.386871337890625,-0.3339080810546875
0.8676605224609375,0.3713226318359375,-0.3962249755859375
0.7906341552734375,0.4632110595703125,-0.4603424072265625
0.7374114990234375,0.488433837890625,-0.4471588134765625
0.7136077880859375,0.4863433837890625,-0.433990478515625
0.6691741943359375,0.4625091552734375,-0.42864990234375
0.630828857421875,0.450286865234375,-0.4296722412109375
0.614044189453125,0.422760009765625,-0.4384918212890625
0.6291351318359375,0.4093475341796875,-0.454376220703125
0.6941680908203125,0.4321441650390625,-0.558563232421875
0.8640594482421875,0.5608978271484375,-0.7698822021484375
0.924530029296875,0.583404541015625,-0.789825439453125
0.8352508544921875,0.4785308837890625,-0.6095733642578125
0.78466796875,0.2946014404296875,-0.469512939453125
0.7138519287109375,0.1663818359375,-0.4215545654296875
0.7339935302734375,0.18170166015625,-0.43743896484375
0.885589599609375,0.297637939453125,-0.597412109375
0.9789886474609376,0.4992523193359375,-0.688690185546875
0.9333343505859376,0.406524658203125,-0.474853515625
0.8549957275390625,0.2486724853515625,-0.370849609375
0.8046112060546875,0.224029541015625,-0.4588775634765625
0.7708282470703125,0.23126220703125,-0.500823974609375
0.7892913818359375,0.256134033203125,-0.4584503173828125
0.8076171875,0.315704345703125,-0.42755126953125
0.865997314453125,0.359710693359375,-0.435577392578125
0.9134063720703124,0.384033203125,-0.4451141357421875
0.9083404541015624,0.357452392578125,-0.4114837646484375
0.893463134765625,0.3560943603515625,-0.3889312744140625
0.8649749755859375,0.381011962890625,-0.3789520263671875
0.9188385009765624,0.4741058349609375,-0.410369873046875
0.8876953125,0.5539398193359375,-0.3029937744140625
0.7834930419921875,0.486724853515625,-0.158111572265625
0.9199066162109376,0.47314453125,-0.2305145263671875
0.8942413330078125,0.490936279296875,-0.3174591064453125
0.9436492919921876,0.4868621826171875,-0.3065032958984375
0.9602508544921876,0.441009521484375,-0.180511474609375
0.924041748046875,0.4239044189453125,-0.1529541015625
0.8777618408203125,0.417449951171875,-0.2248992919921875
0.865509033203125,0.4125213623046875,-0.2812652587890625
0.8470001220703125,0.4148712158203125,-0.3060455322265625
0.8336334228515625,0.407440185546875,-0.3477783203125
0.855560302734375,0.4129486083984375,-0.3889007568359375
0.8756561279296875,0.3670654296875,-0.3850250244140625
0.9125518798828124,0.345855712890625,-0.3718414306640625
0.91143798828125,0.321807861328125,-0.3153533935546875
0.878936767578125,0.3197784423828125,-0.3216705322265625
0.821807861328125,0.3233489990234375,-0.385711669921875
0.81939697265625,0.294189453125,-0.3964080810546875
0.839202880859375,0.2928619384765625,-0.4097747802734375
0.8494110107421875,0.290374755859375,-0.425445556640625
0.9208526611328124,0.3420562744140625,-0.51727294921875
0.946258544921875,0.4080657958984375,-0.4860382080078125
0.876312255859375,0.3712005615234375,-0.37896728515625
0.834991455078125,0.29119873046875,-0.4285125732421875
0.8202362060546875,0.29351806640625,-0.5018768310546875
0.867828369140625,0.345367431640625,-0.5662841796875
0.8475799560546875,0.4282989501953125,-0.574371337890625
0.808258056640625,0.3526153564453125,-0.527130126953125
0.737884521484375,0.2748565673828125,-0.546539306640625
0.742401123046875,0.27313232421875,-0.5765380859375
0.759002685546875,0.3426513671875,-0.5579986572265625
0.7663421630859375,0.3165130615234375,-0.479949951171875
0.7442169189453125,0.2954864501953125,-0.4282379150390625
0.7318878173828125,0.294403076171875,-0.46734619140625
0.7111358642578125,0.2709197998046875,-0.512298583984375
0.707672119140625,0.2757110595703125,-0.5242919921875
0.721160888671875,0.3306732177734375,-0.546112060546875
0.75335693359375,0.3259735107421875,-0.57183837890625
0.78448486328125,0.331085205078125,-0.5942840576171875
0.806304931640625,0.32489013671875,-0.5900421142578125
0.8392791748046875,0.344268798828125,-0.6581573486328125
0.7570037841796875,0.294281005859375,-0.6319122314453125
0.841400146484375,0.3916473388671875,-0.6982421875
0.8391571044921875,0.4369964599609375,-0.5967864990234375
0.779937744140625,0.3798675537109375,-0.4798583984375
0.740875244140625,0.36505126953125,-0.516387939453125
0.7152862548828125,0.3570098876953125,-0.47845458984375
0.6922149658203125,0.3641357421875,-0.4203338623046875
0.755157470703125,0.4260101318359375,-0.492767333984375
0.796417236328125,0.460784912109375,-0.5358734130859375
0.7475738525390625,0.4481353759765625,-0.4907073974609375
0.7332916259765625,0.441375732421875,-0.503326416015625
0.6991119384765625,0.4582061767578125,-0.55377197265625
0.7436981201171875,0.4484710693359375,-0.5712432861328125
0.7593231201171875,0.4532470703125,-0.5324554443359375
0.726654052734375,0.4354095458984375,-0.5225982666015625
0.7409820556640625,0.407012939453125,-0.541351318359375
0.7243804931640625,0.347747802734375,-0.519439697265625
0.799163818359375,0.298126220703125,-0.50543212890625
0.774139404296875,0.2664794921875,-0.5744171142578125
0.7409515380859375,0.3244171142578125,-0.611602783203125
0.7615203857421875,0.2939453125,-0.605194091796875
0.6453857421875,0.291015625,-0.5661468505859375
0.389373779296875,0.135528564453125,-0.2429656982421875
0.0684814453125,0.0533905029296875,-0.0278472900390625
0.002471923828125,0.0056610107421875,-0.0091552734375
0.0005950927734375,0.005950927734375,-0.010101318359375
0.0065765380859375,0.0088653564453125,-0.0117340087890625
0.0034027099609375,0.0049896240234375,-0.0339202880859375
0.00433349609375,0.0054168701171875,-0.0415191650390625
0.0067901611328125,0.006591796875,-0.0466766357421875
0.0074005126953125,0.0084075927734375,-0.0551300048828125
5.3437347412109375,1.5457000732421875,0.3657073974609375
-0.0209808349609375,0.04266357421875,0.0135650634765625
0.0314788818359375,0.04315185546875,0.00225830078125
0.0372467041015625,0.048614501953125,-0.003662109375
0.0423736572265625,0.0549163818359375,-0.005523681640625
0.04949951171875,0.057861328125,-0.00909423828125
0.064453125,0.015716552734375,-0.0980072021484375
-0.477508544921875,-0.7887115478515625,2.601791381835937
-0.01568603515625,0.0081329345703125,0.041259765625
0.0546112060546875,0.019622802734375,0.01251220703125
0.34552001953125,-0.566741943359375,-3.62359619140625
-0.1374359130859375,-0.080047607421875,-0.131622314453125
-0.1333770751953125,0.0786590576171875,-1.7653350830078125
-0.0625762939453125,0.176483154296875,-1.00897216796875
-0.010650634765625,0.014007568359375,-1.0255279541015625
0.016021728515625,0.0067291259765625,-1.02197265625
0.0018463134765625,0.0064697265625,-1.005523681640625
0.0024871826171875,0.0066986083984375,-1.0044097900390625
0.0063934326171875,0.008880615234375,-1.00665283203125
0.0035247802734375,0.0079498291015625,-1.006866455078125
0.006134033203125,0.0083465576171875,-1.0073394775390625
0.0055084228515625,0.0077362060546875,-1.0059967041015625
0.0059661865234375,0.0089263916015625,-1.0073394775390625
0.0045318603515625,0.007904052734375,-1.0068817138671875
0.0056304931640625,0.008087158203125,-1.0072021484375
0.0060272216796875,0.0099639892578125,-1.0067138671875
0.00390625,0.009033203125,-1.006011962890625
0.00421142578125,0.0063018798828125,-1.0066375732421875
0.0051422119140625,0.009521484375,-1.00689697265625
0.0053558349609375,0.0093536376953125,-1.006744384765625
0.0077667236328125,0.01153564453125,-1.009124755859375
0.03204345703125,-0.0019073486328125,-1.0471954345703125
0.0135955810546875,0.0089111328125,-1.01434326171875
-0.31756591796875,-0.279205322265625,-0.92108154296875
0.189788818359375,0.2690277099609375,-0.7979888916015625
0.230560302734375,-0.08831787109375,-1.1216888427734375
0.3026123046875,-0.348724365234375,-1.235198974609375
0.2467193603515625,-0.27679443359375,-0.9646759033203124
-0.2242431640625,0.4024810791015625,-0.836151123046875
-0.485504150390625,-0.0125732421875,-0.5971832275390625
-0.31927490234375,0.079010009765625,-0.0819091796875
1.387054443359375,0.684326171875,-3.053451538085937
0.1243133544921875,-0.3313140869140625,-0.141448974609375
0.01397705078125,-0.127349853515625,-0.028167724609375
-0.021881103515625,-0.039306640625,-1.1755523681640625
0.0235137939453125,0.0409698486328125,-1.020233154296875
-0.0078582763671875,0.023345947265625,-1.0028533935546875
-0.0043487548828125,0.02447509765625,-1.007904052734375
-0.00421142578125,0.023468017578125,-1.0079803466796875
-0.0047149658203125,0.0254058837890625,-1.0059814453125
-0.00604248046875,0.02301025390625,-1.0058746337890625
-0.0051727294921875,0.024658203125,-1.0054931640625
-0.0046539306640625,0.025726318359375,-1.0068359375
-0.0043182373046875,0.025634765625,-1.0072784423828125
-0.003814697265625,0.0251922607421875,-1.0069580078125
-0.0050048828125,0.0243988037109375,-1.0072174072265625
-0.0027618408203125,0.0250701904296875,-1.0076141357421875
-0.00299072265625,0.0255889892578125,-1.00714111328125
-0.003265380859375,0.025421142578125,-1.0071258544921875
-0.0030975341796875,0.0247955322265625,-1.006622314453125
-0.004638671875,0.0243072509765625,-1.0056915283203125
-0.0032958984375,0.0253753662109375,-1.0066680908203125
-0.003387451171875,0.02392578125,-1.0067901611328125
-0.004302978515625,0.0248870849609375,-1.007049560546875
-0.003692626953125,0.0247955322265625,-1.0065155029296875
-0.00311279296875,0.025146484375,-1.0073394775390625
-0.003692626953125,0.0237274169921875,-1.006561279296875
-0.003814697265625,0.0251922607421875,-1.0065460205078125
-0.0040130615234375,0.02496337890625,-1.00732421875
-0.0030670166015625,0.024871826171875,-1.00677490234375
0.0072021484375,0.0293426513671875,-1.011810302734375
-0.0063934326171875,0.024078369140625,-1.006439208984375
