AccelerationX,AccelerationY,AccelerationZ
-0.3318023681640625,0.7079925537109375,-0.474700927734375
-0.360504150390625,0.713531494140625,-0.475067138671875
-0.3812713623046875,0.7386322021484375,-0.58935546875
-0.384979248046875,0.7260589599609375,-0.5899658203125
-0.369415283203125,0.73724365234375,-0.5516204833984375
-0.34814453125,0.734954833984375,-0.513641357421875
-0.350494384765625,0.7375030517578125,-0.5566253662109375
-0.35284423828125,0.747711181640625,-0.56494140625
-0.3453216552734375,0.736602783203125,-0.5630035400390625
-0.3611907958984375,0.7453155517578125,-0.5561981201171875
-0.353302001953125,0.75213623046875,-0.546630859375
-0.35833740234375,0.7414398193359375,-0.5379180908203125
-0.367523193359375,0.73785400390625,-0.5591583251953125
-0.3800048828125,0.74609375,-0.5864105224609375
-0.3899078369140625,0.7489166259765625,-0.6089935302734375
-0.413238525390625,0.710601806640625,-0.5555419921875
-0.3804931640625,0.71112060546875,-0.4613494873046875
-0.3234405517578125,0.7215576171875,-0.4832763671875
-0.3588104248046875,0.7324981689453125,-0.59442138671875
-0.4254913330078125,0.742218017578125,-0.5700531005859375
-0.4555511474609375,0.7281341552734375,-0.495391845703125
-0.4549102783203125,0.6990509033203125,-0.5019073486328125
-0.4644012451171875,0.724945068359375,-0.520355224609375
-0.4437713623046875,0.726593017578125,-0.4681396484375
-0.4316864013671875,0.7170257568359375,-0.528717041015625
-0.423187255859375,0.7423553466796875,-0.5000457763671875
-0.447998046875,0.6865692138671875,-0.5247039794921875
-0.4759979248046875,0.6773529052734375,-0.5186767578125
-0.4764556884765625,0.715240478515625,-0.4844207763671875
-0.4920806884765625,0.7333831787109375,-0.5394287109375
-0.4722137451171875,0.70635986328125,-0.536834716796875
-0.5018310546875,0.673187255859375,-0.446441650390625
-0.5478515625,0.67840576171875,-0.453277587890625
-0.6048126220703125,0.64849853515625,-0.4069671630859375
-0.6573638916015625,0.611053466796875,-0.396209716796875
-0.682952880859375,0.6222076416015625,-0.3763580322265625
-0.6533966064453125,0.601806640625,-0.40008544921875
-0.637481689453125,0.5926513671875,-0.4554443359375
-0.692138671875,0.581207275390625,-0.440399169921875
-0.70294189453125,0.5672760009765625,-0.3982086181640625
-0.697052001953125,0.570709228515625,-0.3918609619140625
-0.716644287109375,0.5802459716796875,-0.3898468017578125
-0.7244720458984375,0.5735931396484375,-0.408538818359375
-0.7714996337890625,0.5797576904296875,-0.463287353515625
-0.848388671875,0.629486083984375,-0.554290771484375
-0.827392578125,0.66131591796875,-0.3337554931640625
-0.8302764892578125,0.7076416015625,-0.2371673583984375
-0.7788238525390625,0.7196044921875,-0.352447509765625
-0.6617279052734375,0.70684814453125,-0.4500885009765625
-0.5815582275390625,0.6533966064453125,-0.3644561767578125
-0.6610565185546875,0.6182098388671875,-0.2764739990234375
-0.6125030517578125,0.7939910888671875,-0.507720947265625
-0.5299072265625,0.7381591796875,-0.402801513671875
-0.5309295654296875,0.604400634765625,-0.2581634521484375
-0.4114837646484375,0.7421875,-0.1908721923828125
-0.379058837890625,0.713104248046875,-0.2036590576171875
-0.470306396484375,0.6464996337890625,-0.21429443359375
-0.5154876708984375,0.681060791015625,-0.04351806640625
-0.62896728515625,0.781951904296875,-0.031494140625
-0.6443634033203125,0.781494140625,-0.0985260009765625
-0.631317138671875,0.845489501953125,-0.045867919921875
-0.6791839599609375,0.93572998046875,-0.1906585693359375
-0.71405029296875,0.915802001953125,-0.11981201171875
-0.881805419921875,0.89251708984375,0.0172882080078125
-0.904632568359375,0.8099365234375,-0.0792236328125
-0.9066009521484376,0.6316070556640625,-0.1566925048828125
-0.8627471923828125,0.4483795166015625,-0.0839691162109375
-0.9490814208984376,0.4708099365234375,-0.0502471923828125
-0.917877197265625,0.41961669921875,0.0162200927734375
-0.875946044921875,0.364532470703125,0.0450897216796875
-0.7909698486328125,0.439117431640625,0.08612060546875
-0.9677581787109376,0.576141357421875,0.107818603515625
-0.7398681640625,0.617279052734375,0.0164642333984375
-0.819854736328125,0.6141204833984375,-0.1885986328125
-0.7887115478515625,0.7778778076171875,-0.147705078125
-0.6974639892578125,0.7931976318359375,-0.15570068359375
-0.8032073974609375,0.8548736572265625,0.007720947265625
-0.84881591796875,0.8109283447265625,0.0311431884765625
-0.87432861328125,0.86810302734375,-0.0174102783203125
-0.81207275390625,0.902008056640625,-0.15130615234375
-0.71221923828125,0.6525726318359375,-0.116729736328125
-0.719085693359375,0.66534423828125,-0.0052490234375
-0.625518798828125,0.8383636474609375,-0.0464630126953125
-0.480438232421875,0.7394561767578125,-0.0852203369140625
-0.4401092529296875,0.5837249755859375,0.0253143310546875
-0.444000244140625,0.54034423828125,0.0372772216796875
-0.4259033203125,0.5577850341796875,0.010406494140625
-0.4256134033203125,0.6060943603515625,0.0698089599609375
-0.47540283203125,0.6931304931640625,0.1377105712890625
-0.6273193359375,0.8286590576171875,0.0715484619140625
-0.734222412109375,0.972442626953125,-0.0281982421875
-0.78729248046875,0.995086669921875,-0.0842437744140625
-0.9577178955078124,1.12896728515625,-0.104888916015625
-0.8968505859375,0.956817626953125,-0.1702880859375
-0.856414794921875,0.689971923828125,-0.13525390625
-0.841766357421875,0.577850341796875,-0.04840087890625
-0.8491973876953125,0.66021728515625,-0.0391845703125
-0.8811187744140625,0.6550445556640625,-0.0726470947265625
-0.84161376953125,0.5865478515625,-0.0843658447265625
-0.76763916015625,0.5921783447265625,-0.0740814208984375
-0.7467193603515625,0.6231689453125,0.0186309814453125
-0.6982879638671875,0.6451263427734375,0.0673980712890625
-0.684326171875,0.6746368408203125,0.05548095703125
-0.737060546875,0.7338104248046875,-0.0017852783203125
-0.7935791015625,0.84808349609375,-0.08056640625
-0.80364990234375,0.8923492431640625,-0.1392059326171875
-0.7222900390625,0.8642730712890625,-0.166656494140625
-0.699249267578125,0.8679962158203125,-0.1964111328125
-0.6728363037109375,0.957611083984375,-0.1414031982421875
-0.68182373046875,0.782623291015625,-0.1142578125
-0.7263336181640625,0.5712890625,-0.1151123046875
-0.7307281494140625,0.67779541015625,-0.0485687255859375
-0.576385498046875,0.8329620361328125,-0.09185791015625
-0.4927825927734375,0.7259368896484375,-0.090423583984375
-0.572021484375,0.591064453125,-0.0233917236328125
-0.583831787109375,0.5858612060546875,-0.0765228271484375
-0.538543701171875,0.6175384521484375,-0.019805908203125
-0.508148193359375,0.6903228759765625,0.1027984619140625
-0.508636474609375,0.762725830078125,0.1605682373046875
-0.54315185546875,0.842376708984375,0.14453125
-0.53997802734375,0.9334869384765624,0.1038818359375
-0.5843353271484375,0.8817291259765625,0.0246429443359375
-0.76470947265625,0.9733734130859376,-0.0122833251953125
-0.718658447265625,1.032928466796875,-0.038116455078125
-0.7190399169921875,0.66058349609375,-0.068572998046875
-0.861541748046875,0.7187652587890625,-0.008544921875
-0.8855133056640625,0.8077545166015625,-0.0284271240234375
-0.8444976806640625,0.6575775146484375,-0.091644287109375
-0.805908203125,0.54302978515625,-0.1660614013671875
-0.7451019287109375,0.585784912109375,-0.14605712890625
-0.7154541015625,0.62738037109375,-0.0627593994140625
-0.6988525390625,0.6446380615234375,-0.0636749267578125
-0.74609375,0.7257537841796875,-0.0994720458984375
-0.7887420654296875,0.844390869140625,-0.1115570068359375
-0.8392333984375,0.878021240234375,-0.101806640625
-0.8106536865234375,0.89434814453125,-0.12860107421875
-0.775543212890625,0.85693359375,-0.1887054443359375
-0.8740692138671875,0.9830322265625,-0.0665740966796875
-0.748626708984375,0.839385986328125,0.0071258544921875
-0.82171630859375,0.7283477783203125,-0.0453948974609375
-0.7922515869140625,0.8038330078125,-0.2371826171875
-0.640411376953125,0.7890777587890625,-0.1522674560546875
-0.6371612548828125,0.604400634765625,-0.0585479736328125
-0.605560302734375,0.5048675537109375,-0.0535430908203125
-0.592864990234375,0.656951904296875,-0.0440216064453125
-0.482177734375,0.6702880859375,-0.1178131103515625
-0.4396820068359375,0.689971923828125,-0.0684051513671875
-0.3997039794921875,0.7388763427734375,-0.0301666259765625
-0.52239990234375,0.8686981201171875,-0.0105438232421875
-0.7065582275390625,0.9708251953125,-0.0503692626953125
-0.5363311767578125,0.756378173828125,0.03277587890625
-0.7393646240234375,1.0973358154296875,0.04937744140625
-0.5400390625,1.0365447998046875,-0.157379150390625
-0.58953857421875,0.7549896240234375,-0.22509765625
-0.7496490478515625,0.788177490234375,-0.172698974609375
-0.802001953125,0.805511474609375,-0.0871429443359375
-0.7274627685546875,0.709503173828125,-0.10894775390625
-0.7251739501953125,0.6058502197265625,-0.095550537109375
-0.64630126953125,0.6634674072265625,-0.110443115234375
-0.580535888671875,0.71630859375,-0.111236572265625
-0.5566253662109375,0.72979736328125,-0.1730499267578125
-0.64801025390625,0.7276458740234375,-0.1908416748046875
-0.759979248046875,0.7818145751953125,-0.1110382080078125
-0.8289642333984375,0.857177734375,-0.0753173828125
-0.780548095703125,0.8417205810546875,-0.1380615234375
-0.8709869384765625,0.93768310546875,-0.1766204833984375
-0.776153564453125,0.9520111083984376,-0.1867523193359375
-0.684051513671875,0.84027099609375,-0.165802001953125
-0.7567291259765625,0.87249755859375,-0.13104248046875
-0.6820831298828125,0.960235595703125,-0.1825408935546875
-0.53863525390625,0.9446258544921876,-0.2271270751953125
-0.4568939208984375,0.8209381103515625,-0.22430419921875
-0.444305419921875,0.7612762451171875,-0.181365966796875
-0.4205474853515625,0.756378173828125,-0.1227874755859375
-0.4080810546875,0.741485595703125,-0.05841064453125
-0.3844451904296875,0.7422027587890625,-0.0376129150390625
-0.37493896484375,0.7347564697265625,-0.032562255859375
-0.43560791015625,0.778106689453125,-0.008544921875
-0.477294921875,0.873321533203125,-0.0010528564453125
-0.525360107421875,0.889190673828125,-0.033966064453125
-0.58172607421875,1.0514373779296875,-0.088226318359375
-0.5506439208984375,1.013580322265625,-0.2034454345703125
-0.547637939453125,0.82440185546875,-0.254058837890625
-0.6829071044921875,0.748626708984375,-0.1549835205078125
-0.7497406005859375,0.793182373046875,-0.0644073486328125
-0.7936859130859375,0.8233489990234375,-0.045318603515625
-0.7393035888671875,0.7199554443359375,-0.1299896240234375
-0.7158966064453125,0.6619110107421875,-0.1937408447265625
-0.7239532470703125,0.6251678466796875,-0.1438751220703125
-0.7182769775390625,0.666107177734375,-0.056427001953125
-0.705535888671875,0.7475433349609375,-0.07513427734375
-0.7085723876953125,0.81121826171875,-0.1662445068359375
-0.7371673583984375,0.8669586181640625,-0.1729278564453125
-0.8021087646484375,0.9055633544921876,-0.084716796875
-0.7368316650390625,0.8721771240234375,-0.02789306640625
-0.736724853515625,1.104278564453125,-0.06475830078125
-0.6321563720703125,1.07379150390625,-0.10992431640625
-0.5235137939453125,0.823974609375,-0.115966796875
-0.593231201171875,0.80615234375,-0.085784912109375
-0.5435028076171875,0.8998565673828125,-0.065673828125
-0.4251861572265625,0.893341064453125,-0.0872650146484375
-0.3925323486328125,0.6891937255859375,-0.103668212890625
-0.476898193359375,0.61669921875,-0.0984954833984375
-0.484832763671875,0.609161376953125,-0.062286376953125
-0.47467041015625,0.659423828125,-0.0244598388671875
-0.445037841796875,0.7186737060546875,0.041412353515625
-0.4538726806640625,0.75518798828125,0.059906005859375
-0.537811279296875,0.8314056396484375,0.0327606201171875
-0.5847930908203125,0.9219207763671876,-0.0243988037109375
-0.6162872314453125,0.91534423828125,-0.0750579833984375
-0.7777252197265625,0.999267578125,-0.068572998046875
-0.717529296875,1.0673675537109375,-0.144317626953125
-0.555877685546875,0.74505615234375,-0.2319183349609375
-0.6850738525390625,0.6913604736328125,-0.1392822265625
-0.7389373779296875,0.8068084716796875,-0.0765533447265625
-0.71966552734375,0.80059814453125,-0.1158905029296875
-0.6528167724609375,0.6673431396484375,-0.1932373046875
-0.6648406982421875,0.62628173828125,-0.2219696044921875
-0.64111328125,0.6817626953125,-0.123382568359375
-0.59051513671875,0.741790771484375,-0.045379638671875
-0.5786895751953125,0.82427978515625,-0.1270904541015625
-0.619293212890625,0.88983154296875,-0.1535797119140625
-0.646453857421875,0.882568359375,-0.1293182373046875
-0.6794891357421875,0.9041290283203124,-0.1185760498046875
-0.659088134765625,0.9314727783203124,-0.11871337890625
-0.7332000732421875,1.036468505859375,-0.1625213623046875
-0.710784912109375,1.1452178955078125,-0.211761474609375
-0.5962677001953125,0.956024169921875,-0.216644287109375
-0.667816162109375,0.8368988037109375,-0.1207427978515625
-0.602447509765625,0.8737640380859375,-0.13031005859375
-0.458709716796875,0.8991546630859375,-0.1472320556640625
-0.382537841796875,0.7958526611328125,-0.1399078369140625
-0.3984527587890625,0.728179931640625,-0.1292572021484375
-0.3761138916015625,0.681549072265625,-0.1870574951171875
-0.3840484619140625,0.689208984375,-0.159637451171875
-0.39642333984375,0.724517822265625,-0.0495758056640625
-0.4027557373046875,0.761993408203125,0.007598876953125
-0.4501495361328125,0.8731536865234375,-0.0112762451171875
-0.47003173828125,0.9808197021484376,-0.032073974609375
-0.5242767333984375,0.944427490234375,-0.034912109375
-0.65521240234375,1.0806732177734375,0.0420074462890625
-0.6251068115234375,1.0128631591796875,-0.0350341796875
-0.6213531494140625,0.74468994140625,-0.12823486328125
-0.71392822265625,0.794525146484375,-0.015655517578125
-0.7364501953125,0.8288116455078125,0.090911865234375
-0.7420806884765625,0.763519287109375,0.0842437744140625
-0.7310028076171875,0.638519287109375,-0.0204620361328125
-0.6588134765625,0.6256256103515625,-0.0078582763671875
-0.5398101806640625,0.6702880859375,-0.0488128662109375
-0.5482635498046875,0.6830902099609375,-0.058868408203125
-0.6232147216796875,0.7535858154296875,-0.041351318359375
-0.6290740966796875,0.775238037109375,-0.0674591064453125
-0.66741943359375,0.7996673583984375,-0.071685791015625
-0.8045806884765625,0.8115997314453125,-0.050079345703125
-0.7537994384765625,0.82305908203125,-0.01373291015625
-0.8096771240234375,0.989288330078125,0.0408172607421875
-0.747161865234375,1.0612640380859375,-0.05584716796875
-0.6581573486328125,0.8860931396484375,-0.14141845703125
-0.720947265625,0.8250579833984375,-0.1421966552734375
-0.727691650390625,0.936798095703125,-0.099884033203125
-0.6378173828125,1.0443572998046875,-0.109130859375
-0.52227783203125,0.945587158203125,-0.1234588623046875
-0.506927490234375,0.854583740234375,-0.0998992919921875
-0.4423980712890625,0.8159027099609375,-0.080169677734375
-0.3712005615234375,0.78912353515625,-0.0153656005859375
-0.2950592041015625,0.7185516357421875,0.010986328125
-0.248626708984375,0.693695068359375,0.0404052734375
-0.259918212890625,0.7120361328125,0.05389404296875
-0.35418701171875,0.81280517578125,0.0708770751953125
-0.4159698486328125,0.9113922119140624,0.0736236572265625
-0.536285400390625,0.936676025390625,-0.008697509765625
-0.7645721435546875,1.136962890625,-0.01116943359375
-0.74676513671875,1.198699951171875,-0.116912841796875
-0.708953857421875,0.9099578857421876,-0.225799560546875
-0.809356689453125,0.765625,-0.1721649169921875
-0.8177337646484375,0.79302978515625,-0.1637725830078125
-0.7729644775390625,0.7873077392578125,-0.153228759765625
-0.6616973876953125,0.7211151123046875,-0.18328857421875
-0.576568603515625,0.6638031005859375,-0.159210205078125
-0.5040283203125,0.7197113037109375,-0.1059722900390625
-0.43011474609375,0.73675537109375,-0.1058349609375
-0.432342529296875,0.7381744384765625,-0.1254119873046875
-0.5680084228515625,0.7840118408203125,-0.1238250732421875
-0.703277587890625,0.83349609375,-0.0931396484375
-0.796844482421875,0.8335418701171875,-0.097991943359375
-0.8211822509765625,0.813323974609375,-0.081024169921875
-0.73565673828125,0.8656768798828125,-0.0876922607421875
-0.62603759765625,0.8838958740234375,-0.12744140625
-0.5677947998046875,0.8698272705078125,-0.16717529296875
-0.6417388916015625,1.1185455322265625,-0.1976318359375
-0.6014404296875,1.1607666015625,-0.2164764404296875
-0.5767669677734375,0.8976287841796875,-0.1509552001953125
-0.566741943359375,0.7312469482421875,-0.1474151611328125
-0.527496337890625,0.762176513671875,-0.1718292236328125
-0.42974853515625,0.9132232666015624,-0.2449188232421875
-0.3170623779296875,0.87530517578125,-0.22332763671875
-0.3892974853515625,0.792999267578125,-0.1802215576171875
-0.4380950927734375,0.801971435546875,-0.2037353515625
-0.4305572509765625,0.8490753173828125,-0.1961212158203125
-0.458587646484375,0.8494110107421875,-0.1881256103515625
-0.53289794921875,0.8594818115234375,-0.200103759765625
-0.5550689697265625,0.8531341552734375,-0.258148193359375
-0.546173095703125,0.8294525146484375,-0.276947021484375
-0.4930267333984375,0.8265838623046875,-0.24383544921875
-0.5075225830078125,0.8385772705078125,-0.1787261962890625
-0.3925628662109375,0.87249755859375,-0.100250244140625
-0.41656494140625,0.928985595703125,-0.1456756591796875
-0.5666351318359375,0.9288787841796876,-0.1552276611328125
-0.6280364990234375,0.9024658203125,-0.0792388916015625
-0.623016357421875,0.9015350341796876,-0.0987091064453125
-0.6052093505859375,0.8897705078125,-0.1521148681640625
-0.60955810546875,0.8701629638671875,-0.202484130859375
-0.6433563232421875,0.8652496337890625,-0.215301513671875
-0.6269073486328125,0.8654022216796875,-0.20635986328125
-0.5894317626953125,0.8767242431640625,-0.2194061279296875
-0.5739898681640625,0.8773040771484375,-0.1935882568359375
-0.5190277099609375,0.8478851318359375,-0.1788787841796875
-0.4944610595703125,0.819671630859375,-0.1597442626953125
-0.475189208984375,0.828826904296875,-0.144195556640625
-0.429046630859375,0.8366851806640625,-0.1835174560546875
-0.35418701171875,0.7523956298828125,-0.2173004150390625
-0.39862060546875,0.707916259765625,-0.1096954345703125
-0.4099273681640625,0.6827239990234375,-0.001373291015625
-0.520294189453125,0.9746246337890624,0.042327880859375
-0.4171905517578125,1.149993896484375,0.0247955322265625
-0.4237213134765625,1.002716064453125,0.1383209228515625
-0.486358642578125,0.8977813720703125,0.1807861328125
-0.511871337890625,0.8686370849609375,0.115966796875
-0.5024871826171875,0.81085205078125,0.1362457275390625
-0.496185302734375,0.779205322265625,0.1723785400390625
-0.53411865234375,0.7592315673828125,0.2003936767578125
-0.5389251708984375,0.7749481201171875,0.194976806640625
-0.593048095703125,0.81158447265625,0.07470703125
-0.6472930908203125,0.8686370849609375,-0.0184478759765625
-0.708587646484375,0.847381591796875,-0.0442657470703125
-0.7581329345703125,0.7430419921875,-0.09234619140625
-0.9170684814453124,0.9604644775390624,-0.15179443359375
-0.7783203125,0.95819091796875,-0.244415283203125
-0.735260009765625,0.878204345703125,-0.1350860595703125
-0.72052001953125,1.02117919921875,-0.143646240234375
-0.62127685546875,1.0343780517578125,-0.1844482421875
-0.5996246337890625,0.954864501953125,-0.254302978515625
-0.615570068359375,0.8724517822265625,-0.248291015625
-0.6173248291015625,0.8831329345703125,-0.176483154296875
-0.5515899658203125,0.9542388916015624,-0.12664794921875
-0.4472198486328125,0.987152099609375,-0.10968017578125
-0.342437744140625,0.9412078857421876,-0.1155548095703125
-0.305084228515625,0.8608856201171875,-0.119537353515625
-0.347625732421875,0.8611297607421875,-0.0408782958984375
-0.26702880859375,0.880767822265625,0.0113067626953125
-0.302093505859375,0.8373565673828125,-0.0307464599609375
-0.4137725830078125,0.9555206298828124,0.0296173095703125
-0.414093017578125,0.9633941650390624,-0.043182373046875
-0.4930267333984375,0.8467864990234375,-0.118011474609375
-0.617767333984375,0.8674774169921875,-0.046478271484375
-0.64129638671875,0.8863372802734375,0.01544189453125
-0.6137847900390625,0.8043212890625,-0.03253173828125
-0.6440887451171875,0.73614501953125,-0.0648193359375
-0.6384429931640625,0.7532501220703125,-0.07061767578125
-0.5955810546875,0.767303466796875,-0.1012115478515625
-0.58892822265625,0.7451629638671875,-0.090850830078125
-0.6062164306640625,0.789459228515625,-0.0861968994140625
-0.634735107421875,0.842193603515625,-0.09759521484375
-0.6919403076171875,0.885711669921875,-0.0669708251953125
-0.695953369140625,0.8946533203125,-0.10736083984375
-0.697998046875,0.8419647216796875,-0.1224212646484375
-0.7584381103515625,0.993316650390625,-0.07421875
-0.7362213134765625,1.115325927734375,-0.0908203125
-0.659698486328125,0.855255126953125,-0.0941162109375
-0.6963348388671875,0.7913818359375,-0.1186676025390625
-0.635284423828125,0.8915557861328125,-0.1201629638671875
-0.512725830078125,0.9514617919921876,-0.138275146484375
-0.457794189453125,0.88690185546875,-0.1913604736328125
-0.4709625244140625,0.818572998046875,-0.1924896240234375
-0.45416259765625,0.790557861328125,-0.0960693359375
-0.3765106201171875,0.77606201171875,-0.0357208251953125
-0.3116302490234375,0.7447662353515625,-0.041412353515625
-0.3187408447265625,0.74517822265625,-0.057769775390625
-0.452545166015625,0.7617034912109375,-0.089080810546875
-0.5440216064453125,0.807891845703125,-0.0673828125
-0.6622314453125,0.6793975830078125,-0.1003570556640625
-0.8817291259765625,0.7900543212890625,0.01568603515625
-0.778900146484375,0.8730316162109375,0.027313232421875
-0.755401611328125,0.89471435546875,-0.1235198974609375
-0.754852294921875,0.679901123046875,-0.202911376953125
-0.8005828857421875,0.6533050537109375,-0.1410980224609375
-0.7921295166015625,0.7109527587890625,-0.217071533203125
-0.746063232421875,0.73248291015625,-0.196563720703125
-0.65771484375,0.6930389404296875,-0.133331298828125
-0.624053955078125,0.6587677001953125,-0.0262451171875
-0.59912109375,0.6409454345703125,0.1147613525390625
-0.5676116943359375,0.685089111328125,0.19744873046875
-0.5706939697265625,0.773956298828125,0.1885223388671875
-0.60906982421875,0.8630828857421875,0.074462890625
-0.667388916015625,0.8628997802734375,0.0150604248046875
-0.6620025634765625,0.80242919921875,0.039581298828125
-0.6205902099609375,0.92822265625,-0.0019073486328125
-0.691162109375,1.011077880859375,-0.1179962158203125
-0.7412109375,0.821136474609375,-0.24847412109375
-0.7459564208984375,0.6385345458984375,-0.0782012939453125
-0.6313934326171875,0.7263946533203125,0.2472686767578125
-0.531890869140625,0.850128173828125,0.280120849609375
-0.49822998046875,0.7884063720703125,-0.078765869140625
-0.5645751953125,0.724517822265625,-0.2156982421875
-0.5553131103515625,0.688385009765625,-0.071014404296875
-0.571075439453125,0.6705474853515625,0.01055908203125
-0.571014404296875,0.720977783203125,-0.0951690673828125
-0.5130767822265625,0.78778076171875,-0.129730224609375
-0.476654052734375,0.7740325927734375,-0.178436279296875
-0.5243988037109375,0.756378173828125,-0.1523590087890625
-0.5897979736328125,0.775360107421875,-0.12353515625
-0.619873046875,0.84393310546875,-0.1502532958984375
-0.561065673828125,1.0215606689453125,-0.22442626953125
-0.5063323974609375,0.9748992919921876,-0.3263092041015625
-0.554718017578125,0.7515716552734375,-0.1773529052734375
-0.617279052734375,0.7447509765625,-0.0417633056640625
-0.6304931640625,0.8556365966796875,-0.0942535400390625
-0.6077423095703125,0.877777099609375,-0.1572418212890625
-0.5804901123046875,0.7670135498046875,-0.18438720703125
-0.6161041259765625,0.710968017578125,-0.1555633544921875
-0.5956878662109375,0.7028350830078125,-0.0693511962890625
-0.558624267578125,0.7137451171875,0.0010833740234375
-0.5546417236328125,0.7996978759765625,-0.0401153564453125
-0.5960540771484375,0.8237762451171875,-0.14385986328125
-0.7058258056640625,0.82073974609375,-0.131805419921875
-0.7739410400390625,0.8741607666015625,-0.117095947265625
-0.772491455078125,0.8869476318359375,-0.136993408203125
-0.7688751220703125,1.06744384765625,-0.201873779296875
-0.7004852294921875,1.05340576171875,-0.2282562255859375
-0.661407470703125,0.8713226318359375,-0.1313629150390625
-0.7050323486328125,0.918182373046875,-0.098480224609375
-0.6381683349609375,1.0256500244140625,-0.158447265625
-0.515716552734375,1.0022125244140625,-0.21221923828125
-0.4943695068359375,0.8567657470703125,-0.19647216796875
-0.4750213623046875,0.7852020263671875,-0.1857452392578125
-0.447235107421875,0.775665283203125,-0.097320556640625
-0.3941802978515625,0.792755126953125,-0.032745361328125
-0.2862396240234375,0.804290771484375,-0.016937255859375
-0.2689208984375,0.775848388671875,-0.0836944580078125
-0.318389892578125,0.8251190185546875,-0.0537261962890625
-0.3153839111328125,0.8623809814453125,-0.010711669921875
-0.38873291015625,0.8517303466796875,0.0182037353515625
-0.4847412109375,1.090118408203125,0.0633392333984375
-0.470611572265625,1.085723876953125,-0.067901611328125
-0.5891265869140625,0.9400482177734376,-0.13140869140625
-0.728607177734375,1.0010528564453125,-0.1078948974609375
-0.74151611328125,0.9906158447265624,-0.082000732421875
-0.7039031982421875,0.785125732421875,-0.12774658203125
-0.69329833984375,0.6743927001953125,-0.1212615966796875
-0.6287994384765625,0.7132720947265625,-0.0908660888671875
-0.5365447998046875,0.75421142578125,-0.078125
-0.504486083984375,0.734771728515625,-0.083892822265625
-0.56915283203125,0.77020263671875,-0.0687408447265625
-0.679595947265625,0.84063720703125,-0.02783203125
-0.74896240234375,0.9240264892578124,-0.047760009765625
-0.7835693359375,0.8777008056640625,-0.139892578125
-0.8522186279296875,0.8940582275390625,-0.1449127197265625
-0.834136962890625,1.1632843017578125,-0.1275177001953125
-0.6428375244140625,1.0550384521484375,-0.1134796142578125
-0.6624603271484375,0.84637451171875,-0.0998992919921875
-0.6505126953125,0.89263916015625,-0.1221466064453125
-0.5428466796875,1.0315399169921875,-0.1554718017578125
-0.43011474609375,1.0001373291015625,-0.1912078857421875
-0.4563446044921875,0.87481689453125,-0.154449462890625
-0.4694976806640625,0.8055267333984375,-0.1168060302734375
-0.394775390625,0.806396484375,-0.077972412109375
-0.3267974853515625,0.7909698486328125,-0.0603485107421875
-0.3196563720703125,0.76190185546875,-0.0384979248046875
-0.3217010498046875,0.7712860107421875,-0.0244293212890625
-0.3352813720703125,0.8509979248046875,0.00494384765625
-0.30291748046875,0.87677001953125,-0.01934814453125
-0.421173095703125,0.832244873046875,0.001495361328125
-0.472991943359375,1.0202178955078125,0.100677490234375
-0.43634033203125,1.1340484619140625,-0.0789794921875
-0.5135040283203125,0.98236083984375,-0.2077178955078125
-0.7333831787109375,0.9654541015625,-0.109649658203125
-0.812957763671875,0.999725341796875,-0.025909423828125
-0.7489776611328125,0.8179168701171875,-0.04302978515625
-0.72991943359375,0.68157958984375,-0.094818115234375
-0.667724609375,0.722320556640625,-0.1453704833984375
-0.529937744140625,0.77581787109375,-0.0636138916015625
-0.4648590087890625,0.7458648681640625,-0.065521240234375
-0.515838623046875,0.7519989013671875,-0.1063995361328125
-0.6335296630859375,0.894073486328125,-0.1285552978515625
-0.721160888671875,0.94769287109375,-0.1276397705078125
-0.78973388671875,0.88519287109375,-0.150970458984375
-0.8505706787109375,0.8554534912109375,-0.083251953125
-0.8555755615234375,1.05731201171875,-0.0099334716796875
-0.6584014892578125,0.990692138671875,-0.0401763916015625
-0.73480224609375,0.9285888671875,-0.08868408203125
-0.6999664306640625,1.02313232421875,-0.1073760986328125
-0.599517822265625,1.074005126953125,-0.09429931640625
-0.5145721435546875,0.9820098876953124,-0.069122314453125
-0.491424560546875,0.8592529296875,-0.021514892578125
-0.45758056640625,0.8435821533203125,0.036712646484375
-0.354766845703125,0.8382415771484375,0.0578460693359375
-0.307403564453125,0.7963409423828125,0.08111572265625
-0.283721923828125,0.7705078125,0.0792236328125
-0.2587738037109375,0.7780303955078125,0.0173492431640625
-0.287353515625,0.8612060546875,-0.0063018798828125
-0.3437957763671875,0.915985107421875,-0.041778564453125
-0.5468902587890625,0.9567413330078124,-0.085357666015625
-0.5604400634765625,1.0699615478515625,-0.0610504150390625
-0.4906768798828125,1.12689208984375,-0.2418060302734375
-0.53485107421875,0.9271697998046876,-0.389862060546875
-0.727203369140625,0.8798980712890625,-0.2265472412109375
-0.72052001953125,0.9124755859375,-0.210052490234375
-0.64337158203125,0.8311920166015625,-0.270416259765625
-0.645172119140625,0.7246551513671875,-0.20648193359375
-0.61688232421875,0.7120361328125,-0.1199951171875
-0.561279296875,0.7283172607421875,-0.069549560546875
-0.525909423828125,0.7047576904296875,-0.0448760986328125
-0.56134033203125,0.6977386474609375,-0.0428314208984375
-0.66912841796875,0.79754638671875,-0.055023193359375
-0.7750091552734375,0.95489501953125,-0.066650390625
-0.82562255859375,0.9145050048828124,-0.1451568603515625
-0.85406494140625,0.82598876953125,-0.1882781982421875
-0.9052276611328124,0.9351348876953124,-0.12615966796875
-0.825164794921875,1.045684814453125,-0.0937347412109375
-0.71002197265625,0.83062744140625,-0.189056396484375
-0.798370361328125,0.8195953369140625,-0.182586669921875
-0.7574462890625,1.0251312255859375,-0.10418701171875
-0.577239990234375,1.1343994140625,-0.1801910400390625
-0.438262939453125,0.9780426025390624,-0.2637176513671875
-0.4387359619140625,0.853424072265625,-0.1867828369140625
-0.3893585205078125,0.8242950439453125,-0.0836639404296875
-0.2653045654296875,0.793487548828125,-0.0112152099609375
-0.2832794189453125,0.7318115234375,0.004974365234375
-0.319366455078125,0.726654052734375,0.040740966796875
-0.341949462890625,0.79656982421875,0.0239715576171875
-0.3795623779296875,0.8679046630859375,0.02178955078125
-0.3946990966796875,0.893524169921875,0.030242919921875
-0.493194580078125,0.9355316162109376,-0.0103759765625
-0.518310546875,1.1551971435546875,-0.0322723388671875
-0.487457275390625,1.065155029296875,-0.1436614990234375
-0.6581268310546875,0.9482879638671876,-0.175750732421875
-0.767333984375,0.973052978515625,-0.1063690185546875
-0.79498291015625,0.9188690185546876,-0.11285400390625
-0.7238311767578125,0.7317047119140625,-0.1682891845703125
-0.686431884765625,0.68255615234375,-0.201080322265625
-0.5744476318359375,0.764434814453125,-0.1003875732421875
-0.5230712890625,0.752166748046875,-0.079925537109375
-0.555389404296875,0.7338104248046875,-0.1259613037109375
-0.60675048828125,0.75823974609375,-0.166839599609375
-0.7587890625,0.8433837890625,-0.207366943359375
-0.868133544921875,0.916168212890625,-0.2554168701171875
-0.9025726318359376,0.912933349609375,-0.21563720703125
-0.8485260009765625,0.9405670166015624,-0.1310882568359375
-0.756591796875,1.09185791015625,-0.1833648681640625
-0.678314208984375,1.1046600341796875,-0.228851318359375
-0.585906982421875,0.936920166015625,-0.03375244140625
-0.650543212890625,0.8870849609375,-0.016937255859375
-0.568511962890625,1.0052947998046875,-0.232421875
-0.3946380615234375,1.0572052001953125,-0.223358154296875
-0.316986083984375,0.862274169921875,-0.08209228515625
-0.362823486328125,0.7724151611328125,0.0368499755859375
-0.35211181640625,0.783935546875,-0.1104278564453125
-0.323150634765625,0.749114990234375,-0.050567626953125
-0.364593505859375,0.720794677734375,0.075653076171875
-0.3714752197265625,0.6817169189453125,0.11083984375
-0.393890380859375,0.7471466064453125,0.076934814453125
-0.4397430419921875,0.8496246337890625,0.0800323486328125
-0.501251220703125,0.8964691162109375,0.2310943603515625
-0.606231689453125,0.9117889404296876,0.287841796875
-0.7877197265625,1.126861572265625,0.2861785888671875
-0.827239990234375,1.07696533203125,0.1351318359375
-0.8464813232421875,0.8410797119140625,0.171844482421875
-0.920074462890625,0.69781494140625,0.1650238037109375
-0.9423980712890624,0.7323760986328125,-0.045318603515625
-0.9156951904296876,0.69659423828125,-0.1277313232421875
-0.8418121337890625,0.637237548828125,-0.0584869384765625
-0.6717376708984375,0.67828369140625,-0.02532958984375
-0.5667266845703125,0.782073974609375,-0.13690185546875
-0.4744110107421875,0.7771148681640625,-0.1252288818359375
-0.56842041015625,0.854522705078125,-0.104827880859375
-0.4638671875,0.747650146484375,-0.094390869140625
-0.55755615234375,0.8538055419921875,-0.0783538818359375
-0.6732940673828125,0.922943115234375,-0.17852783203125
-0.641021728515625,0.9500885009765624,-0.1441497802734375
-0.60589599609375,0.935577392578125,-0.1573944091796875
-0.536895751953125,0.920806884765625,-0.1770782470703125
-0.5273590087890625,0.923248291015625,-0.152801513671875
-0.5161895751953125,1.0180816650390625,-0.1452484130859375
-0.4425506591796875,0.9596710205078124,-0.1257476806640625
-0.4547271728515625,0.8059234619140625,-0.088836669921875
-0.474609375,0.7394256591796875,-0.1175689697265625
-0.4407501220703125,0.7463836669921875,-0.150299072265625
-0.4261932373046875,0.7650909423828125,-0.1845703125
-0.41412353515625,0.810791015625,-0.223876953125
-0.430816650390625,0.8467559814453125,-0.2590789794921875
-0.441253662109375,0.8544921875,-0.2509918212890625
-0.4897613525390625,0.8392486572265625,-0.214569091796875
-0.537994384765625,0.860137939453125,-0.2418975830078125
-0.5910186767578125,0.88677978515625,-0.288787841796875
-0.6669158935546875,0.8777923583984375,-0.2730865478515625
-0.7218017578125,0.863067626953125,-0.27294921875
-0.7092132568359375,0.90087890625,-0.2913970947265625
-0.6373443603515625,0.908294677734375,-0.2748870849609375
-0.5670623779296875,0.8719482421875,-0.2797393798828125
-0.5183868408203125,0.8554534912109375,-0.269927978515625
-0.4818115234375,0.86212158203125,-0.24847412109375
-0.4695587158203125,0.8911895751953125,-0.2024688720703125
-0.43243408203125,0.8887176513671875,-0.1841583251953125
-0.412109375,0.81072998046875,-0.1629486083984375
-0.4145965576171875,0.755767822265625,-0.1210784912109375
-0.4193115234375,0.7696380615234375,-0.070831298828125
-0.4133453369140625,0.8376312255859375,-0.0847930908203125
-0.41790771484375,0.809906005859375,-0.1993408203125
-0.512969970703125,0.7947998046875,-0.1727294921875
-0.49835205078125,0.84014892578125,-0.1201934814453125
-0.4369659423828125,0.8234100341796875,-0.0565185546875
-0.3800811767578125,0.9063720703125,-0.0271759033203125
-0.4267578125,0.913116455078125,-0.152099609375
-0.602813720703125,0.9644927978515624,-0.131103515625
-0.6650390625,1.004241943359375,-0.1390228271484375
-0.6805877685546875,0.8887939453125,-0.0992431640625
-0.70306396484375,0.7947845458984375,-0.0865631103515625
-0.6780853271484375,0.7507171630859375,-0.135345458984375
-0.645050048828125,0.738128662109375,-0.127960205078125
-0.594024658203125,0.779541015625,-0.1303253173828125
-0.5562591552734375,0.8190765380859375,-0.1917724609375
-0.544281005859375,0.8326263427734375,-0.238372802734375
-0.5751495361328125,0.81494140625,-0.1845245361328125
-0.5538787841796875,0.845306396484375,-0.1669158935546875
-0.5353851318359375,0.915679931640625,-0.228668212890625
-0.570037841796875,0.9761505126953124,-0.3088226318359375
-0.6458892822265625,0.9996795654296876,-0.3342742919921875
-0.636993408203125,1.0211334228515625,-0.2954254150390625
-0.6184539794921875,1.069671630859375,-0.2610015869140625
-0.5364837646484375,0.896209716796875,-0.2411346435546875
-0.6228485107421875,0.8865966796875,-0.22125244140625
-0.5750579833984375,0.9504852294921876,-0.2402801513671875
-0.4365692138671875,0.904754638671875,-0.241546630859375
-0.3867645263671875,0.7855682373046875,-0.2273406982421875
-0.4023284912109375,0.734130859375,-0.19219970703125
-0.3735198974609375,0.75250244140625,-0.1270904541015625
-0.323486328125,0.76995849609375,-0.0634918212890625
-0.3206024169921875,0.7827911376953125,-0.05438232421875
-0.3878631591796875,0.7855377197265625,-0.0696868896484375
-0.4591064453125,0.83013916015625,-0.0400543212890625
-0.468963623046875,0.894500732421875,-0.035369873046875
-0.5308380126953125,0.936431884765625,-0.03350830078125
-0.67718505859375,1.114959716796875,0.017578125
-0.6275482177734375,1.1522064208984375,-0.1042938232421875
-0.550750732421875,0.910919189453125,-0.22857666015625
-0.680084228515625,0.8162384033203125,-0.2037353515625
-0.761016845703125,0.83721923828125,-0.157135009765625
-0.732696533203125,0.7879791259765625,-0.080291748046875
-0.67059326171875,0.694183349609375,-0.0958404541015625
-0.5838623046875,0.712921142578125,-0.1344451904296875
-0.482696533203125,0.7437591552734375,-0.144195556640625
-0.4592437744140625,0.7281341552734375,-0.1201171875
-0.5287933349609375,0.7178497314453125,-0.0837554931640625
-0.6688690185546875,0.8247833251953125,-0.04248046875
-0.7383880615234375,0.908203125,-0.08807373046875
-0.7701873779296875,0.8863983154296875,-0.180694580078125
-0.772216796875,0.882598876953125,-0.20611572265625
-0.72332763671875,0.9759063720703124,-0.113525390625
-0.6832427978515625,1.0952606201171875,-0.1026611328125
-0.5442047119140625,0.9311981201171876,-0.1558380126953125
-0.59820556640625,0.890106201171875,-0.1817779541015625
-0.611053466796875,0.9969635009765624,-0.1882781982421875
-0.514251708984375,0.974945068359375,-0.1951446533203125
-0.503082275390625,0.835357666015625,-0.1924285888671875
-0.5349578857421875,0.795257568359375,-0.1523590087890625
-0.4970245361328125,0.8080902099609375,-0.1152496337890625
-0.4080963134765625,0.7659912109375,-0.08551025390625
-0.330841064453125,0.727020263671875,-0.0442962646484375
-0.308502197265625,0.764129638671875,-0.079193115234375
-0.3104400634765625,0.7931671142578125,-0.08526611328125
-0.385406494140625,0.8585357666015625,-0.0336761474609375
-0.42901611328125,0.8588104248046875,-0.0255584716796875
-0.5752410888671875,0.9345855712890624,-0.01715087890625
-0.5951690673828125,1.117584228515625,-0.033538818359375
-0.516693115234375,0.9656982421875,-0.1929931640625
-0.6471710205078125,0.8416290283203125,-0.155914306640625
-0.756500244140625,0.9101409912109376,-0.1258697509765625
-0.80419921875,0.90972900390625,-0.0908203125
-0.7973480224609375,0.770782470703125,-0.133880615234375
-0.7722015380859375,0.7090606689453125,-0.15460205078125
-0.6642913818359375,0.7658843994140625,-0.193145751953125
-0.58447265625,0.75762939453125,-0.158355712890625
-0.5826568603515625,0.737945556640625,-0.170623779296875
-0.6316070556640625,0.7768402099609375,-0.10980224609375
-0.6843414306640625,0.825408935546875,-0.1241912841796875
-0.7152557373046875,0.850006103515625,-0.1560211181640625
-0.7098388671875,0.879486083984375,-0.1900482177734375
-0.7246551513671875,0.9466400146484376,-0.2197265625
-0.764373779296875,1.1676177978515625,-0.2520599365234375
-0.65350341796875,1.0489959716796875,-0.3020172119140625
-0.6730194091796875,0.8428497314453125,-0.2541961669921875
-0.6774749755859375,0.935150146484375,-0.2209014892578125
-0.5788421630859375,1.0569610595703125,-0.2637939453125
-0.440643310546875,0.9945831298828124,-0.2732696533203125
-0.3934173583984375,0.87579345703125,-0.342193603515625
-0.3560333251953125,0.8112945556640625,-0.23773193359375
-0.3072662353515625,0.7647247314453125,-0.1929779052734375
-0.2682647705078125,0.7750244140625,-0.200347900390625
-0.2862396240234375,0.8086395263671875,-0.1202239990234375
-0.3038482666015625,0.82177734375,0.034393310546875
-0.306121826171875,0.83917236328125,0.003662109375
-0.3580322265625,0.8106231689453125,-0.0776519775390625
-0.559722900390625,1.0016937255859375,0.030792236328125
-0.57525634765625,1.1851043701171875,0.0399017333984375
-0.6038055419921875,1.0260772705078125,-0.1801300048828125
-0.7874755859375,0.962860107421875,-0.23260498046875
-0.860931396484375,0.9095916748046876,-0.1708221435546875
-0.84991455078125,0.82861328125,-0.188629150390625
-0.788299560546875,0.6979217529296875,-0.1920318603515625
-0.691314697265625,0.7008514404296875,-0.1261444091796875
-0.5930633544921875,0.7579345703125,-0.1039886474609375
-0.483428955078125,0.753753662109375,-0.1558685302734375
-0.48333740234375,0.752716064453125,-0.2013702392578125
-0.583251953125,0.8226318359375,-0.2027740478515625
-0.681884765625,0.8746337890625,-0.2137603759765625
-0.7521209716796875,0.8396148681640625,-0.240203857421875
-0.779327392578125,0.80059814453125,-0.2315673828125
-0.795867919921875,0.9553375244140624,-0.17266845703125
-0.723388671875,1.1046295166015625,-0.20892333984375
-0.6411895751953125,0.923248291015625,-0.259674072265625
-0.7135009765625,0.812286376953125,-0.2738189697265625
-0.6912078857421875,0.9196929931640624,-0.309967041015625
-0.5745849609375,0.9889068603515624,-0.280059814453125
-0.480072021484375,0.93829345703125,-0.2626190185546875
-0.4593658447265625,0.828155517578125,-0.27215576171875
-0.4012603759765625,0.79559326171875,-0.2559661865234375
-0.323638916015625,0.76702880859375,-0.1792144775390625
-0.2911224365234375,0.756622314453125,-0.1243438720703125
-0.2728729248046875,0.7373809814453125,-0.0746917724609375
-0.31280517578125,0.747833251953125,-0.0643157958984375
-0.38165283203125,0.8705902099609375,-0.0746307373046875
-0.388397216796875,0.8799896240234375,-0.070220947265625
-0.5652923583984375,1.0029449462890625,-0.07806396484375
-0.5068359375,1.1089935302734375,-0.1710357666015625
-0.518524169921875,1.0657501220703125,-0.3268585205078125
-0.619720458984375,0.9124755859375,-0.284759521484375
-0.76776123046875,0.87213134765625,-0.1821441650390625
-0.8235931396484375,0.8316192626953125,-0.1913604736328125
-0.7535858154296875,0.69189453125,-0.1885986328125
-0.695556640625,0.650482177734375,-0.173858642578125
-0.5634307861328125,0.73858642578125,-0.1773529052734375
-0.4717864990234375,0.763885498046875,-0.20074462890625
-0.4558868408203125,0.743682861328125,-0.1724853515625
-0.4947357177734375,0.764312744140625,-0.1371002197265625
-0.5997467041015625,0.8081817626953125,-0.1373443603515625
-0.6735382080078125,0.89404296875,-0.144012451171875
-0.71136474609375,0.904998779296875,-0.230255126953125
-0.7907562255859375,1.0145416259765625,-0.2657012939453125
-0.7515411376953125,1.0660400390625,-0.26177978515625
-0.637054443359375,0.9451141357421876,-0.2428741455078125
-0.6352386474609375,0.80474853515625,-0.2515411376953125
-0.6205596923828125,0.8474578857421875,-0.2203216552734375
-0.5240020751953125,0.958251953125,-0.2119293212890625
-0.4289093017578125,0.9336700439453124,-0.242706298828125
-0.3951568603515625,0.8256683349609375,-0.2868194580078125
-0.381439208984375,0.76483154296875,-0.28021240234375
-0.362457275390625,0.7486419677734375,-0.14361572265625
-0.337432861328125,0.737396240234375,-0.075531005859375
-0.3264617919921875,0.7288970947265625,-0.0456390380859375
-0.3282318115234375,0.773895263671875,-0.0459442138671875
-0.3582305908203125,0.8704376220703125,-0.071075439453125
-0.3875274658203125,0.9029541015625,-0.109649658203125
-0.520263671875,0.98614501953125,-0.16082763671875
-0.5302581787109375,1.063720703125,-0.227813720703125
-0.562744140625,1.1001129150390625,-0.320770263671875
-0.554901123046875,0.9305419921875,-0.303985595703125
-0.6355438232421875,0.80194091796875,-0.2295074462890625
-0.7147064208984375,0.8478851318359375,-0.2565765380859375
-0.7296295166015625,0.8389434814453125,-0.2594146728515625
-0.6825714111328125,0.745635986328125,-0.2459869384765625
-0.6185150146484375,0.7231903076171875,-0.15673828125
-0.5418243408203125,0.7327728271484375,-0.1113739013671875
-0.52508544921875,0.69842529296875,-0.0493316650390625
-0.580780029296875,0.6943511962890625,-0.07965087890625
-0.6894683837890625,0.7282867431640625,-0.23736572265625
-0.7884674072265625,0.8207855224609375,-0.30316162109375
-0.817962646484375,0.924896240234375,-0.2948760986328125
-0.724365234375,1.00225830078125,-0.2132415771484375
-0.7003173828125,1.15594482421875,-0.2486572265625
-0.5987548828125,1.190643310546875,-0.3348541259765625
-0.4192047119140625,1.045135498046875,-0.3520355224609375
-0.4453887939453125,0.8519287109375,-0.263336181640625
-0.558258056640625,0.8485260009765625,-0.126129150390625
-0.4608154296875,0.899322509765625,-0.16278076171875
-0.3106536865234375,0.7813873291015625,-0.280609130859375
-0.3527679443359375,0.65301513671875,-0.3150482177734375
-0.409942626953125,0.6295166015625,-0.2734832763671875
-0.414581298828125,0.6873321533203125,-0.197723388671875
-0.4148101806640625,0.75732421875,-0.12469482421875
-0.38543701171875,0.828125,-0.0500946044921875
-0.4360504150390625,0.9138031005859376,0.0052642822265625
-0.4123077392578125,0.953643798828125,0.069915771484375
-0.447235107421875,0.93988037109375,0.0367584228515625
-0.4764556884765625,1.1541900634765625,-0.0031890869140625
-0.4290008544921875,1.13787841796875,-0.097808837890625
-0.5736083984375,0.905120849609375,-0.1614990234375
-0.746490478515625,0.94451904296875,-0.1240692138671875
-0.7915191650390625,0.9713287353515624,-0.1080169677734375
-0.7557373046875,0.78399658203125,-0.1742706298828125
-0.7792205810546875,0.64215087890625,-0.226959228515625
-0.7592620849609375,0.648529052734375,-0.251190185546875
-0.60784912109375,0.7391815185546875,-0.1982574462890625
-0.4915924072265625,0.768096923828125,-0.194488525390625
-0.47100830078125,0.784576416015625,-0.229278564453125
-0.544036865234375,0.859893798828125,-0.2108154296875
-0.6184539794921875,0.9521484375,-0.176177978515625
-0.672088623046875,1.0237274169921875,-0.2190399169921875
-0.7136077880859375,1.0426483154296875,-0.2626495361328125
-0.752471923828125,1.2340850830078125,-0.2637481689453125
-0.5828399658203125,1.1665496826171875,-0.264129638671875
-0.555755615234375,0.9736480712890624,-0.2498779296875
-0.5679473876953125,1.045074462890625,-0.1719207763671875
-0.472686767578125,1.047698974609375,-0.1809234619140625
-0.35479736328125,0.9344635009765624,-0.1752777099609375
-0.337615966796875,0.8000640869140625,-0.159454345703125
-0.37774658203125,0.738006591796875,-0.1700286865234375
-0.3268585205078125,0.740875244140625,-0.158935546875
-0.2823333740234375,0.7441864013671875,-0.1086578369140625
-0.2691192626953125,0.7387542724609375,-0.04217529296875
-0.28521728515625,0.739959716796875,-0.03448486328125
-0.3553466796875,0.845550537109375,0.0014190673828125
-0.3665771484375,0.9391937255859376,-0.0092010498046875
-0.5461578369140625,1.1062469482421875,-0.0331268310546875
-0.5813446044921875,1.268218994140625,-0.0810089111328125
-0.564361572265625,1.14801025390625,-0.2604217529296875
-0.6510009765625,0.9405975341796876,-0.307525634765625
-0.783416748046875,0.90521240234375,-0.2185211181640625
-0.808746337890625,0.863250732421875,-0.07977294921875
-0.7433013916015625,0.7340240478515625,-0.12615966796875
-0.64495849609375,0.6920623779296875,-0.166961669921875
-0.502777099609375,0.7559356689453125,-0.1806182861328125
-0.4100799560546875,0.764373779296875,-0.1529998779296875
-0.4182586669921875,0.7417449951171875,-0.158599853515625
-0.4893341064453125,0.7885589599609375,-0.167633056640625
-0.615692138671875,0.81512451171875,-0.1440887451171875
-0.7152252197265625,0.8626861572265625,-0.12066650390625
-0.728912353515625,0.88311767578125,-0.17913818359375
-0.7841644287109375,0.9747467041015624,-0.1787261962890625
-0.7330780029296875,1.148773193359375,-0.1860198974609375
-0.5943450927734375,1.0067901611328125,-0.2099456787109375
-0.645660400390625,0.8725128173828125,-0.170135498046875
-0.6558990478515625,0.9625091552734376,-0.1581573486328125
-0.5770263671875,1.064544677734375,-0.16802978515625
-0.4882049560546875,1.001220703125,-0.2362823486328125
-0.4579010009765625,0.905609130859375,-0.2745819091796875
-0.4125213623046875,0.864654541015625,-0.2362823486328125
-0.3781585693359375,0.832366943359375,-0.1058502197265625
-0.338134765625,0.80206298828125,-0.0654144287109375
-0.2689971923828125,0.7749481201171875,-0.090057373046875
-0.2494964599609375,0.7674407958984375,-0.118865966796875
-0.25445556640625,0.7897491455078125,-0.0673675537109375
-0.281402587890625,0.829132080078125,-0.0457916259765625
-0.3679962158203125,0.8355255126953125,-0.025299072265625
-0.5329742431640625,1.1001129150390625,0.03875732421875
-0.5216522216796875,1.23651123046875,-0.0809173583984375
-0.6047515869140625,1.0639495849609375,-0.216094970703125
-0.7232818603515625,0.863555908203125,-0.126312255859375
-0.81195068359375,0.85162353515625,0.0019683837890625
-0.81988525390625,0.870025634765625,-0.055267333984375
-0.7974700927734375,0.851959228515625,-0.1763763427734375
-0.7140960693359375,0.832000732421875,-0.2818603515625
-0.6009368896484375,0.8113555908203125,-0.3290863037109375
-0.5322113037109375,0.80267333984375,-0.253143310546875
-0.4968109130859375,0.7871246337890625,-0.1819610595703125
-0.477508544921875,0.7646331787109375,-0.1298065185546875
-0.4940032958984375,0.8050994873046875,-0.1238555908203125
-0.5634002685546875,0.8395843505859375,-0.189422607421875
-0.5791473388671875,0.875,-0.20379638671875
-0.56085205078125,0.8861236572265625,-0.207672119140625
-0.5506439208984375,0.92462158203125,-0.2322845458984375
-0.4971160888671875,0.9573974609375,-0.271026611328125
-0.4472198486328125,0.947174072265625,-0.2675018310546875
-0.3258819580078125,0.9359130859375,-0.1457977294921875
-0.2070770263671875,0.9357147216796876,-0.187225341796875
-0.2631683349609375,0.888031005859375,-0.2801055908203125
-0.2892608642578125,0.8428192138671875,-0.302825927734375
-0.305267333984375,0.8507080078125,-0.3570404052734375
-0.2708282470703125,0.8782958984375,-0.38372802734375
-0.2880706787109375,0.8839263916015625,-0.385955810546875
-0.356689453125,0.9002532958984375,-0.2974090576171875
-0.3982696533203125,0.9391326904296876,-0.2946319580078125
-0.44537353515625,0.952728271484375,-0.367767333984375
-0.5068206787109375,0.93475341796875,-0.3928985595703125
-0.5677032470703125,0.8990478515625,-0.3315887451171875
-0.567840576171875,0.8637542724609375,-0.2349700927734375
-0.5731048583984375,0.8644561767578125,-0.1805572509765625
-0.5826873779296875,0.87469482421875,-0.2067718505859375
-0.564666748046875,0.889312744140625,-0.310943603515625
-0.5462188720703125,0.8809967041015625,-0.344696044921875
-0.5434722900390625,0.90606689453125,-0.3041534423828125
-0.5438690185546875,0.93951416015625,-0.27044677734375
-0.5199432373046875,0.966217041015625,-0.2670135498046875
-0.4908294677734375,0.9810791015625,-0.289093017578125
-0.4370880126953125,0.9060821533203124,-0.3347015380859375
-0.4573516845703125,0.8464202880859375,-0.306060791015625
-0.4698638916015625,0.9375152587890624,-0.1910247802734375
-0.3884429931640625,1.04583740234375,-0.2008209228515625
-0.25408935546875,1.0012359619140625,-0.1555328369140625
-0.2168731689453125,0.915374755859375,-0.0970916748046875
-0.248809814453125,0.87481689453125,0.0568084716796875
-0.259674072265625,0.8639068603515625,0.1934661865234375
-0.2790985107421875,0.8612213134765625,0.1821746826171875
-0.3289031982421875,0.87554931640625,0.1608123779296875
-0.42279052734375,0.9132843017578124,0.1223297119140625
-0.5212860107421875,0.963104248046875,0.09698486328125
-0.5994415283203125,0.99517822265625,0.0699005126953125
-0.68939208984375,1.0346527099609375,0.03302001953125
-0.7816009521484375,1.02630615234375,-0.0362701416015625
-0.8718109130859375,0.954010009765625,-0.173248291015625
-1.024261474609375,1.0348052978515625,-0.4238433837890625
-0.9444427490234376,0.8625946044921875,-0.498748779296875
-0.83154296875,0.792144775390625,-0.341217041015625
-0.704986572265625,0.937255859375,-0.217742919921875
-0.56085205078125,1.0205841064453125,-0.1893463134765625
-0.4625701904296875,0.9732818603515624,-0.3115081787109375
-0.472503662109375,0.902984619140625,-0.3797760009765625
-0.46734619140625,0.975677490234375,-0.3533782958984375
-0.4188079833984375,0.9811553955078124,-0.2886505126953125
-0.401580810546875,0.971588134765625,-0.2158966064453125
-0.33062744140625,0.9501953125,-0.16510009765625
-0.3076171875,0.9223785400390624,-0.150421142578125
-0.321990966796875,0.945220947265625,-0.149932861328125
-0.2999420166015625,0.85565185546875,-0.1259918212890625
-0.397186279296875,0.811676025390625,-0.1616668701171875
-0.4687347412109375,0.87548828125,-0.1114044189453125
-0.4745330810546875,0.9200897216796876,-0.165374755859375
-0.5283050537109375,0.82794189453125,-0.3124847412109375
-0.6503753662109375,0.80474853515625,-0.2795867919921875
-0.7106781005859375,0.81878662109375,-0.2804107666015625
-0.642364501953125,0.7356414794921875,-0.3093109130859375
-0.5593109130859375,0.6613311767578125,-0.2486572265625
-0.454986572265625,0.6725311279296875,-0.1779632568359375
-0.4308929443359375,0.6688995361328125,-0.253875732421875
-0.4758453369140625,0.6623992919921875,-0.314422607421875
-0.5732421875,0.6519317626953125,-0.2900238037109375
-0.665557861328125,0.6924591064453125,-0.3353271484375
-0.75067138671875,0.7900390625,-0.4392242431640625
-0.7888946533203125,0.7852325439453125,-0.473236083984375
-0.8255462646484375,0.7695770263671875,-0.52081298828125
-0.7717742919921875,0.89349365234375,-0.4998779296875
-0.6736907958984375,0.916290283203125,-0.438995361328125
-0.6763916015625,0.7633056640625,-0.444671630859375
-0.656494140625,0.8068084716796875,-0.363677978515625
-0.618865966796875,0.924591064453125,-0.345916748046875
-0.5248565673828125,0.838714599609375,-0.3176727294921875
-0.5131072998046875,0.72344970703125,-0.26971435546875
-0.5027618408203125,0.71600341796875,-0.225860595703125
-0.448974609375,0.742279052734375,-0.17559814453125
-0.3777313232421875,0.7501373291015625,-0.128082275390625
-0.3035736083984375,0.731201171875,-0.0809326171875
-0.3111419677734375,0.7559356689453125,-0.0369110107421875
-0.3448944091796875,0.8451690673828125,-0.01568603515625
-0.331878662109375,0.8757781982421875,-0.082611083984375
-0.528533935546875,1.0381927490234375,-0.180084228515625
-0.5859832763671875,1.175689697265625,-0.175048828125
-0.5291595458984375,1.081878662109375,-0.2890625
-0.540374755859375,0.840362548828125,-0.351287841796875
-0.67474365234375,0.806976318359375,-0.2885284423828125
-0.7086181640625,0.8553314208984375,-0.110809326171875
-0.682861328125,0.85797119140625,-0.056060791015625
-0.6513671875,0.7848968505859375,-0.1988983154296875
-0.5571136474609375,0.7408447265625,-0.2589874267578125
-0.494110107421875,0.7265625,-0.2936248779296875
-0.54351806640625,0.7681427001953125,-0.1900177001953125
-0.6494293212890625,0.7742919921875,-0.1076507568359375
-0.8013153076171875,0.814849853515625,-0.1041107177734375
-0.8066253662109375,0.88946533203125,-0.1339263916015625
-0.70770263671875,0.910491943359375,-0.2219085693359375
-0.7391510009765625,0.958221435546875,-0.25604248046875
-0.7615509033203125,1.1548309326171875,-0.1797637939453125
-0.6868896484375,1.076141357421875,-0.2407684326171875
-0.7522735595703125,0.9082489013671876,-0.27874755859375
-0.7768707275390625,1.027862548828125,-0.239898681640625
-0.6618804931640625,1.1482696533203125,-0.1025543212890625
-0.5129547119140625,1.04534912109375,-0.0540771484375
-0.4406585693359375,0.8984222412109375,-0.1069488525390625
-0.3766021728515625,0.8137969970703125,-0.1407318115234375
-0.30902099609375,0.7513275146484375,-0.0684814453125
-0.2542724609375,0.673736572265625,-0.010345458984375
-0.2851715087890625,0.6131744384765625,0.0166168212890625
-0.3023681640625,0.67889404296875,-0.0157012939453125
-0.327850341796875,0.780426025390625,-0.0692901611328125
-0.3729400634765625,0.8713836669921875,-0.1185760498046875
-0.504547119140625,0.9340362548828124,-0.1354522705078125
-0.6300506591796875,1.1751556396484375,-0.1204833984375
-0.5475006103515625,1.12213134765625,-0.2923126220703125
-0.6786041259765625,0.9463043212890624,-0.307830810546875
-0.81561279296875,0.9733428955078124,-0.2879180908203125
-0.80816650390625,0.9242095947265624,-0.2657928466796875
-0.7539825439453125,0.6845550537109375,-0.2467803955078125
-0.7486419677734375,0.5854339599609375,-0.213165283203125
-0.650970458984375,0.6657562255859375,-0.095001220703125
-0.52191162109375,0.74932861328125,-0.0743865966796875
-0.4207305908203125,0.7699127197265625,-0.0864410400390625
-0.52349853515625,0.7581024169921875,-0.12713623046875
-0.732696533203125,0.858856201171875,-0.1497344970703125
-0.8421630859375,0.965911865234375,-0.154998779296875
-0.847412109375,0.921356201171875,-0.25640869140625
-0.931732177734375,1.0755767822265625,-0.3720703125
-0.825408935546875,1.1839599609375,-0.3099822998046875
-0.6418914794921875,1.1087646484375,-0.2461090087890625
-0.5823974609375,0.942626953125,-0.259063720703125
-0.5888214111328125,0.978607177734375,-0.23895263671875
-0.47320556640625,1.0398712158203125,-0.1956787109375
-0.3364105224609375,0.9993896484375,-0.2193450927734375
-0.251495361328125,0.835479736328125,-0.2361907958984375
-0.29132080078125,0.7120361328125,-0.20684814453125
-0.3010101318359375,0.6746063232421875,-0.1338348388671875
-0.31829833984375,0.699432373046875,-0.0869140625
-0.3414764404296875,0.7363128662109375,-0.0287628173828125
-0.4096527099609375,0.8075103759765625,-0.0111236572265625
-0.4412384033203125,0.92724609375,-0.049591064453125
-0.40899658203125,0.8909149169921875,-0.1327362060546875
-0.5788116455078125,1.035400390625,-0.068389892578125
-0.518798828125,1.10198974609375,-0.0614013671875
-0.4943695068359375,0.92608642578125,-0.210113525390625
-0.652587890625,0.97528076171875,-0.2330169677734375
-0.7388916015625,1.0062103271484375,-0.170196533203125
-0.7821807861328125,0.857269287109375,-0.1185455322265625
-0.776458740234375,0.6983642578125,-0.1063079833984375
-0.734405517578125,0.68609619140625,-0.1253814697265625
-0.6144866943359375,0.748748779296875,-0.154022216796875
-0.5282440185546875,0.75927734375,-0.1881866455078125
-0.5421905517578125,0.767242431640625,-0.2279815673828125
-0.5909423828125,0.7894744873046875,-0.1911468505859375
-0.669189453125,0.87286376953125,-0.1707305908203125
-0.6735382080078125,0.8566131591796875,-0.1949005126953125
-0.66278076171875,0.8188934326171875,-0.218536376953125
-0.7200927734375,1.017730712890625,-0.1884765625
-0.641815185546875,1.1804962158203125,-0.202972412109375
-0.533905029296875,0.918609619140625,-0.2412872314453125
-0.6494903564453125,0.8033447265625,-0.2412109375
-0.675689697265625,0.9266357421875,-0.1734619140625
-0.5615386962890625,1.042205810546875,-0.1822052001953125
-0.466522216796875,0.9530792236328124,-0.223663330078125
-0.4825439453125,0.8301544189453125,-0.2460174560546875
-0.4300384521484375,0.8080596923828125,-0.1875762939453125
-0.36767578125,0.80438232421875,-0.1056671142578125
-0.3278350830078125,0.7662200927734375,-0.052215576171875
-0.2808074951171875,0.7191925048828125,-0.0351715087890625
-0.2999267578125,0.7575531005859375,-0.08709716796875
-0.2916259765625,0.8468170166015625,-0.076141357421875
-0.3402252197265625,0.8436431884765625,-0.1119384765625
-0.5224456787109375,0.941986083984375,-0.0978851318359375
-0.544586181640625,1.13653564453125,-0.1243438720703125
-0.513916015625,1.1688385009765625,-0.2984619140625
-0.57501220703125,0.935577392578125,-0.3581695556640625
-0.738861083984375,0.8413238525390625,-0.2740631103515625
-0.7876739501953125,0.834686279296875,-0.16790771484375
-0.7505950927734375,0.7717132568359375,-0.1358184814453125
-0.6930389404296875,0.7187042236328125,-0.171600341796875
-0.57818603515625,0.76898193359375,-0.2238922119140625
-0.477874755859375,0.7664337158203125,-0.232086181640625
-0.43560791015625,0.7501373291015625,-0.2116546630859375
-0.44024658203125,0.7522735595703125,-0.171905517578125
-0.520294189453125,0.7913665771484375,-0.1588287353515625
-0.6273193359375,0.85589599609375,-0.18634033203125
-0.7000732421875,0.8624267578125,-0.1898345947265625
-0.7454071044921875,0.8676605224609375,-0.1982421875
-0.75445556640625,0.9949493408203124,-0.1582489013671875
-0.680206298828125,1.0810546875,-0.1537933349609375
-0.6579437255859375,0.8834381103515625,-0.187957763671875
-0.751495361328125,0.9016876220703124,-0.1833953857421875
-0.741424560546875,1.04351806640625,-0.152679443359375
-0.6201324462890625,1.0789642333984375,-0.1741180419921875
-0.518585205078125,0.9585723876953124,-0.2413330078125
-0.46026611328125,0.8625640869140625,-0.2161865234375
-0.3964080810546875,0.8288116455078125,-0.10406494140625
-0.36053466796875,0.787689208984375,-0.044097900390625
-0.309234619140625,0.7475738525390625,-0.0033721923828125
-0.289703369140625,0.75762939453125,-0.0238189697265625
-0.311187744140625,0.758758544921875,-0.108367919921875
-0.3544921875,0.7962646484375,-0.1107940673828125
-0.3338165283203125,0.8232574462890625,-0.1288909912109375
-0.3742828369140625,0.8845977783203125,-0.1905517578125
-0.43768310546875,1.0767974853515625,-0.2072906494140625
-0.4790802001953125,1.1385650634765625,-0.2819061279296875
-0.50360107421875,1.0502166748046875,-0.3722381591796875
-0.6665191650390625,0.9756927490234376,-0.392364501953125
-0.7340087890625,0.94586181640625,-0.3796844482421875
-0.753082275390625,0.8830108642578125,-0.3153839111328125
-0.7088470458984375,0.7376251220703125,-0.2664947509765625
-0.6101531982421875,0.70819091796875,-0.1965789794921875
-0.527374267578125,0.73944091796875,-0.1796722412109375
-0.46295166015625,0.7766265869140625,-0.1573944091796875
-0.43731689453125,0.795745849609375,-0.1649627685546875
-0.504791259765625,0.7916412353515625,-0.1663055419921875
-0.627288818359375,0.8565673828125,-0.1755218505859375
-0.73004150390625,0.935150146484375,-0.2184600830078125
-0.7681427001953125,0.8728485107421875,-0.1748504638671875
-0.7759246826171875,0.839569091796875,-0.1178436279296875
-0.7818450927734375,0.99200439453125,-0.1044921875
-0.7006683349609375,1.097412109375,-0.104705810546875
-0.5865936279296875,0.880035400390625,-0.1850433349609375
-0.6415557861328125,0.775543212890625,-0.2425994873046875
-0.658599853515625,0.91900634765625,-0.2111968994140625
-0.5749053955078125,1.078887939453125,-0.187255859375
-0.4247283935546875,1.0289459228515625,-0.2375946044921875
-0.3246002197265625,0.8681488037109375,-0.2830657958984375
-0.323516845703125,0.757049560546875,-0.267181396484375
-0.3204193115234375,0.68914794921875,-0.201171875
-0.27093505859375,0.679840087890625,-0.1477508544921875
-0.2359771728515625,0.68670654296875,-0.12518310546875
-0.3123626708984375,0.7073974609375,-0.1179962158203125
-0.3946685791015625,0.775146484375,-0.0845947265625
-0.4974517822265625,0.8826446533203125,-0.1152801513671875
-0.6159515380859375,0.927490234375,-0.1454620361328125
-0.753448486328125,1.0259246826171875,-0.2034912109375
-0.8389434814453125,1.25054931640625,-0.29486083984375
-0.8102569580078125,1.1583709716796875,-0.399383544921875
-0.8354644775390625,0.7606658935546875,-0.4247589111328125
-0.981475830078125,0.5584564208984375,-0.424713134765625
-1.0066986083984375,0.6606903076171875,-0.376678466796875
-0.87945556640625,0.83148193359375,-0.412750244140625
-0.848236083984375,0.892974853515625,-0.4656524658203125
-0.7784576416015625,0.8930816650390625,-0.579315185546875
-0.805877685546875,0.796478271484375,-0.7286834716796875
-0.91546630859375,0.7234344482421875,-0.8994140625
-0.81878662109375,0.860382080078125,-1.0970611572265625
-0.609222412109375,0.86407470703125,-1.205078125
-0.4994354248046875,0.885833740234375,-1.2407073974609375
-0.3391876220703125,0.81964111328125,-1.222991943359375
-0.34332275390625,0.7484283447265625,-1.0592498779296875
-0.2153167724609375,0.7031097412109375,-1.02459716796875
-0.09588623046875,0.611419677734375,-0.976593017578125
-0.09942626953125,0.4814605712890625,-0.89642333984375
-0.0309906005859375,0.3458099365234375,-0.9471893310546876
-0.0363311767578125,0.3277587890625,-0.9066619873046876
-0.0862274169921875,0.4298553466796875,-0.8659515380859375
0.0435638427734375,0.3704681396484375,-0.907073974609375
0.0901641845703125,0.295318603515625,-0.8234710693359375
-0.148468017578125,0.3013458251953125,-0.669219970703125
-0.218231201171875,0.325286865234375,-0.892974853515625
0.0860443115234375,0.2062835693359375,-0.9362640380859376
0.03363037109375,0.1038360595703125,-0.4130706787109375
0.0267791748046875,-0.1701812744140625,-0.1698760986328125
-0.1394195556640625,-0.219207763671875,-0.6703033447265625
-0.0177459716796875,-0.1501312255859375,-0.818084716796875
0.0968170166015625,-0.31561279296875,-0.48687744140625
0.146575927734375,-0.2703094482421875,-0.445037841796875
0.17864990234375,-0.344207763671875,-0.65985107421875
0.13128662109375,-0.24273681640625,-0.780548095703125
0.2088165283203125,-0.3187103271484375,-0.7824249267578125
0.1658935546875,-0.2833099365234375,-0.8804779052734375
0.22021484375,-0.3442230224609375,-0.76788330078125
0.1082763671875,-0.2939453125,-0.75506591796875
0.079681396484375,-0.2953033447265625,-0.9227447509765624
0.2574920654296875,-0.15625,-0.97265625
0.3102264404296875,-0.1583251953125,-0.894775390625
0.38311767578125,-0.1741485595703125,-0.8067626953125
0.360076904296875,-0.23321533203125,-0.3145599365234375
0.004241943359375,0.007904052734375,0.00286865234375
0.01092529296875,0.00531005859375,-0.0027923583984375
0.01190185546875,0.0051727294921875,-0.0050506591796875
0.0120849609375,0.00537109375,-0.012359619140625
0.01177978515625,0.0056610107421875,-0.0185089111328125
0.0120086669921875,0.0066070556640625,-0.024627685546875
0.012420654296875,0.0064849853515625,-0.0287017822265625
0.0125274658203125,0.0063323974609375,-0.0366058349609375
0.01239013671875,0.0054168701171875,-0.041046142578125
0.0124359130859375,0.0061492919921875,-0.0503082275390625
0.011932373046875,0.00738525390625,-0.071319580078125
2.9442596435546875,-4.65142822265625,-7.9648590087890625
-0.1781463623046875,0.328704833984375,-0.0209503173828125
0.0052642822265625,0.0285186767578125,0.017242431640625
0.0068359375,0.027313232421875,0.00848388671875
0.00799560546875,0.0276947021484375,0.0055389404296875
-0.065216064453125,-0.72412109375,0.3127899169921875
0.1721954345703125,-0.172821044921875,-1.271026611328125
0.9430389404296876,0.1097564697265625,-1.8646697998046875
0.0239105224609375,-0.351165771484375,-0.4015350341796875
0.1206817626953125,-0.302978515625,-1.1113128662109375
0.1407012939453125,-0.2380828857421875,-0.9427947998046876
0.11236572265625,-0.2792510986328125,-0.90704345703125
0.1459197998046875,-0.246246337890625,-0.9531402587890624
0.15728759765625,-0.2881927490234375,-0.94110107421875
0.1535797119140625,-0.2480010986328125,-0.965728759765625
0.15692138671875,-0.277801513671875,-0.944854736328125
0.16448974609375,-0.2430267333984375,-0.95880126953125
0.1518707275390625,-0.2725982666015625,-0.93572998046875
0.1714935302734375,-0.2602081298828125,-0.9622344970703124
0.1419830322265625,-0.2788238525390625,-0.941131591796875
0.17279052734375,-0.2523193359375,-0.958526611328125
0.1595306396484375,-0.2632904052734375,-0.940673828125
0.1728515625,-0.2581634521484375,-0.9542236328125
0.15478515625,-0.266510009765625,-0.9500732421875
0.164947509765625,-0.2666015625,-0.9516754150390624
0.1650238037109375,-0.2698211669921875,-0.952667236328125
0.164154052734375,-0.261627197265625,-0.9478912353515624
0.16558837890625,-0.2666778564453125,-0.9481353759765624
0.165618896484375,-0.2643585205078125,-0.9562835693359376
0.1582183837890625,-0.275848388671875,-0.9495697021484376
0.1611175537109375,-0.2773895263671875,-0.9407958984375
