AccelerationX,AccelerationY,AccelerationZ
-0.4358978271484375,0.4620208740234375,-0.7626495361328125
-0.427337646484375,0.4571990966796875,-0.7239227294921875
-0.4286956787109375,0.46575927734375,-0.7468414306640625
-0.4321441650390625,0.4835205078125,-0.7618865966796875
-0.4290618896484375,0.461273193359375,-0.746673583984375
-0.4420318603515625,0.458892822265625,-0.73968505859375
-0.4397125244140625,0.4709625244140625,-0.7622222900390625
-0.4439849853515625,0.46600341796875,-0.77532958984375
-0.443145751953125,0.4539947509765625,-0.7532501220703125
-0.4347686767578125,0.45281982421875,-0.7440185546875
-0.422882080078125,0.4622955322265625,-0.765045166015625
-0.41748046875,0.4596710205078125,-0.77520751953125
-0.419921875,0.4478302001953125,-0.7556915283203125
-0.4142913818359375,0.4482574462890625,-0.7655029296875
-0.4084014892578125,0.4281463623046875,-0.7642974853515625
-0.464385986328125,0.4138336181640625,-0.784515380859375
-0.54718017578125,0.38800048828125,-0.6083831787109375
-0.6178436279296875,0.41339111328125,-0.4068603515625
-0.590545654296875,0.511993408203125,-0.446502685546875
-0.6018829345703125,0.6915435791015625,-0.584442138671875
-0.61004638671875,0.666748046875,-0.5141448974609375
-0.6455841064453125,0.5681304931640625,-0.254852294921875
-0.8051605224609375,0.6272735595703125,-0.2143096923828125
-0.9016876220703124,0.5692901611328125,-0.10577392578125
-0.7953643798828125,0.5516204833984375,-0.0189666748046875
-0.7449188232421875,0.6179351806640625,-0.2034912109375
-0.8350982666015625,0.703033447265625,-0.1488037109375
-1.0883636474609375,0.5402679443359375,-0.026702880859375
-1.092559814453125,0.53857421875,-0.2000579833984375
-1.1522674560546875,0.6416778564453125,-0.4177093505859375
-1.110870361328125,0.708648681640625,-0.412750244140625
-1.092132568359375,0.7401580810546875,-0.4746246337890625
-1.12109375,0.80517578125,-0.604095458984375
-1.0687255859375,0.8777313232421875,-0.54571533203125
-0.86700439453125,0.72314453125,-0.524322509765625
-0.9893951416015624,1.0677490234375,-0.4616241455078125
-0.9188690185546876,1.1013031005859375,-0.3182220458984375
-0.7776031494140625,1.0189361572265625,-0.360748291015625
-0.6977386474609375,0.9903106689453124,-0.331146240234375
-0.6157073974609375,0.9392242431640624,-0.2218017578125
-0.6118316650390625,0.9795379638671876,-0.2258453369140625
-0.5603485107421875,1.06683349609375,-0.25201416015625
-0.4879608154296875,1.11370849609375,-0.24945068359375
-0.4301605224609375,1.118927001953125,-0.1164703369140625
-0.1690216064453125,0.954010009765625,0.068450927734375
-0.09088134765625,0.878875732421875,0.2788238525390625
-0.1151885986328125,0.7081451416015625,0.2002410888671875
-0.363372802734375,0.9259185791015624,0.2132110595703125
-0.6615142822265625,1.2949981689453125,0.15191650390625
-0.8141937255859375,1.3627777099609375,-0.079315185546875
-0.861114501953125,1.0243682861328125,-0.0680084228515625
-0.8778076171875,0.8568878173828125,0.0172119140625
-0.888397216796875,0.864593505859375,-0.0044097900390625
-0.867950439453125,0.8814697265625,-0.0399932861328125
-0.9770965576171876,0.9212799072265624,-0.09295654296875
-1.2088165283203125,1.0198974609375,-0.1906890869140625
-1.2910614013671875,0.9599456787109376,-0.1973114013671875
-1.1468353271484375,0.7326507568359375,-0.2784423828125
-1.0807342529296875,0.677154541015625,-0.455322265625
-1.0794525146484375,0.944610595703125,-0.53436279296875
-1.10906982421875,1.02947998046875,-0.3222503662109375
-1.1626739501953125,1.208343505859375,-0.2564849853515625
-1.0321044921875,1.4149932861328125,-0.267242431640625
-0.899688720703125,1.481597900390625,-0.3630523681640625
-0.863311767578125,1.573028564453125,-0.3339080810546875
-0.71038818359375,1.5721588134765625,-0.238189697265625
-0.5037994384765625,1.43389892578125,-0.1717681884765625
-0.2969512939453125,1.2184600830078125,-0.139434814453125
-0.1611480712890625,1.0340118408203125,-0.098388671875
0.100128173828125,0.9801788330078124,0.119232177734375
0.4617156982421875,0.7930450439453125,0.108001708984375
0.1322174072265625,0.79779052734375,-0.0132293701171875
-0.1167144775390625,0.8791046142578125,0.0052490234375
-0.3698883056640625,1.220123291015625,-0.066680908203125
-0.685760498046875,1.487701416015625,-0.020294189453125
-0.90264892578125,1.4040679931640625,-0.003814697265625
-0.9590606689453124,1.15924072265625,-0.09576416015625
-0.916839599609375,1.0982513427734375,-0.146636962890625
-0.8292236328125,1.1449432373046875,-0.2131195068359375
-0.95660400390625,1.221832275390625,-0.233734130859375
-1.0233612060546875,1.251861572265625,-0.3206787109375
-1.225250244140625,1.0723114013671875,-0.0771636962890625
-1.489349365234375,0.8893890380859375,-0.14385986328125
-1.4505767822265625,0.6544036865234375,-0.384307861328125
-1.4924774169921875,0.8650665283203125,-0.4792633056640625
-1.45574951171875,1.0330963134765625,-0.34979248046875
-1.2591552734375,1.30780029296875,-0.381072998046875
-0.932464599609375,1.5239715576171875,-0.522735595703125
-0.726959228515625,1.530426025390625,-0.6891021728515625
-0.6593475341796875,1.5386962890625,-0.4289398193359375
-0.552093505859375,1.4116973876953125,-0.3712615966796875
-0.4700927734375,1.5310516357421875,-0.595184326171875
-0.469757080078125,1.6982421875,-0.656524658203125
-0.3524932861328125,1.897491455078125,-0.6727752685546875
0.264892578125,1.5929107666015625,-0.5147705078125
1.0463104248046875,1.2607574462890625,-0.477813720703125
0.9698333740234376,0.9751129150390624,-0.19989013671875
0.5182952880859375,0.91839599609375,0.530975341796875
-0.0990447998046875,1.11224365234375,0.425750732421875
-0.489501953125,1.6259002685546875,0.149658203125
-0.7431640625,1.7702789306640625,0.1487274169921875
-0.7625885009765625,1.446990966796875,0.103759765625
-0.826507568359375,1.2363433837890625,0.02435302734375
-0.920623779296875,1.1610565185546875,0.1525115966796875
-0.9574127197265624,1.138458251953125,0.1092376708984375
-1.0173492431640625,1.1846466064453125,-0.19256591796875
-1.0911102294921875,1.15850830078125,-0.427490234375
-1.2065887451171875,1.0205230712890625,-0.212310791015625
-1.0345001220703125,0.8685302734375,-0.0833892822265625
-1.123870849609375,0.8453826904296875,-0.1321868896484375
-1.1779327392578125,0.8690643310546875,-0.262359619140625
-1.1557159423828125,1.1374053955078125,-0.236846923828125
-1.0792388916015625,1.484954833984375,-0.277862548828125
-0.9337158203125,1.7420196533203125,-0.328643798828125
-0.788818359375,1.775299072265625,-0.32672119140625
-0.6326904296875,1.6793670654296875,-0.2581329345703125
-0.4552764892578125,1.6029052734375,-0.2210235595703125
-0.36737060546875,1.585601806640625,-0.2674560546875
-0.209564208984375,1.53631591796875,-0.1450653076171875
0.25286865234375,1.2673797607421875,0.2180023193359375
0.64788818359375,1.05621337890625,0.0217132568359375
0.438323974609375,0.7762908935546875,-0.10870361328125
0.12176513671875,1.0159454345703125,0.141204833984375
-0.0029449462890625,1.15460205078125,0.1116485595703125
-0.3404541015625,1.4606781005859375,-0.1414947509765625
-0.5590667724609375,1.661163330078125,-0.1347808837890625
-0.72509765625,1.542938232421875,-0.1315155029296875
-0.85321044921875,1.2579803466796875,-0.05316162109375
-0.855255126953125,1.030059814453125,0.0359954833984375
-0.7862396240234375,0.871826171875,0.0711822509765625
-0.7156982421875,0.974334716796875,-0.0384674072265625
-0.827545166015625,1.290435791015625,-0.2795867919921875
-1.0025787353515625,1.380950927734375,-0.3740234375
-1.0830078125,1.2417144775390625,-0.553375244140625
-1.1541290283203125,0.8552398681640625,-0.7007293701171875
-1.0126190185546875,0.7374420166015625,-0.5568389892578125
-0.7283172607421875,0.9506988525390624,-0.47613525390625
-0.684112548828125,1.19873046875,-0.4037628173828125
-0.6807403564453125,1.5522308349609375,-0.3961334228515625
-0.6752471923828125,1.7510833740234375,-0.3072357177734375
0.2510986328125,1.7755126953125,0.1732177734375
1.3287200927734375,1.59759521484375,-1.00274658203125
-1.6124725341796875,3.217864990234375,1.3051910400390625
1.1146392822265625,0.1350555419921875,2.846343994140625
0.530670166015625,1.163665771484375,-0.475830078125
-0.24993896484375,1.5369110107421875,-3.344940185546875
-1.1032562255859375,0.2797393798828125,-1.5776214599609375
-2.6399688720703125,2.518890380859375,6.82122802734375
-0.9541168212890624,2.898666381835937,-0.6993255615234375
-0.9453887939453124,1.3263702392578125,-1.0194854736328125
-0.3412933349609375,0.822967529296875,-0.2507171630859375
0.270263671875,1.1182708740234375,0.3855133056640625
0.919921875,1.049407958984375,-0.5550537109375
0.416961669921875,1.1064453125,-0.8107147216796875
-0.065643310546875,1.0490570068359375,-0.033935546875
-0.11090087890625,1.06524658203125,0.1177825927734375
-0.2920684814453125,1.1072845458984375,-0.2512969970703125
-0.40374755859375,1.0159454345703125,-0.474700927734375
-0.8374176025390625,1.1388397216796875,-0.2919769287109375
-0.80682373046875,0.9881439208984376,-0.106201171875
-0.7707366943359375,1.0279083251953125,-0.2711181640625
-0.8332366943359375,1.0238037109375,-0.6494293212890625
-0.9739532470703124,0.9012603759765624,-0.4708251953125
-1.0350189208984375,1.0564117431640625,-0.443115234375
-1.007232666015625,1.4378204345703125,-0.33026123046875
-0.9625091552734376,1.6427154541015625,-0.3971099853515625
-0.9276123046875,1.7469635009765625,-0.50775146484375
-0.79510498046875,1.6461029052734375,-0.474884033203125
-0.7924041748046875,1.4881439208984375,-0.37322998046875
-0.6361083984375,1.42999267578125,-0.29345703125
-0.5218963623046875,1.3816070556640625,-0.2352447509765625
-0.3650665283203125,1.276611328125,-0.2760772705078125
-0.0553436279296875,1.206817626953125,-0.22467041015625
0.241790771484375,1.09771728515625,-0.10394287109375
0.3310394287109375,0.8049774169921875,-0.04620361328125
0.1155242919921875,0.8116455078125,0.05633544921875
0.0697479248046875,0.92266845703125,0.130615234375
-0.33935546875,1.3173065185546875,-0.077301025390625
-0.6513519287109375,1.5080108642578125,0.0615386962890625
-0.7745819091796875,1.4785919189453125,-0.0332794189453125
-0.786163330078125,1.2621612548828125,-0.2205963134765625
-0.790496826171875,1.16583251953125,-0.197723388671875
-0.84490966796875,1.103363037109375,-0.043670654296875
-0.8720550537109375,1.0258331298828125,-0.0026397705078125
-0.95440673828125,1.11224365234375,-0.097412109375
-0.9378814697265624,1.251068115234375,-0.2401580810546875
-0.970855712890625,1.145111083984375,-0.2188262939453125
-1.0416412353515625,0.8311920166015625,-0.1913604736328125
-1.1849822998046875,0.7860870361328125,-0.3234405517578125
-1.278472900390625,0.6859588623046875,-0.4185028076171875
-1.160400390625,0.8990631103515625,-0.227752685546875
-1.1116943359375,1.1794586181640625,-0.2060089111328125
-1.169158935546875,1.46514892578125,-0.17449951171875
-1.0748748779296875,1.62677001953125,-0.197723388671875
-1.0452728271484375,1.7738800048828125,-0.2360687255859375
-0.90576171875,1.8514556884765625,-0.26513671875
-0.6341552734375,1.71856689453125,-0.2515106201171875
-0.395904541015625,1.434478759765625,-0.246978759765625
-0.2990875244140625,1.123809814453125,-0.209930419921875
-0.2527618408203125,0.9088897705078124,-0.1423797607421875
-0.173065185546875,0.6735992431640625,-0.1207122802734375
-0.1660919189453125,0.5962677001953125,-0.0048065185546875
-0.0069122314453125,0.60675048828125,-0.0438232421875
0.00958251953125,0.5927734375,-0.1300201416015625
-0.31524658203125,0.7494354248046875,0.1715240478515625
-0.7794342041015625,0.940093994140625,0.1704559326171875
-1.05401611328125,1.08831787109375,0.179473876953125
-1.1324005126953125,1.1062164306640625,0.2144775390625
-1.1995086669921875,1.160675048828125,0.1483154296875
-1.259002685546875,1.1652069091796875,0.0587921142578125
-1.3142242431640625,1.038055419921875,0.0446319580078125
-1.384063720703125,0.9462127685546876,0.1735687255859375
-1.381011962890625,0.926025390625,0.286865234375
-1.2987060546875,0.8761444091796875,0.2178955078125
-1.2363433837890625,0.7008514404296875,0.117767333984375
-1.058349609375,0.5731353759765625,0.2542724609375
-0.8961029052734375,0.6117706298828125,0.227874755859375
-0.8572998046875,0.8292083740234375,0.0242462158203125
-0.867279052734375,1.076751708984375,-0.1466064453125
-0.8505859375,1.14801025390625,-0.4442901611328125
-0.6236419677734375,1.059478759765625,-0.68865966796875
-0.322845458984375,0.934906005859375,-0.7540283203125
-0.185791015625,0.891082763671875,-0.654754638671875
0.0624847412109375,0.9240570068359376,-0.832183837890625
-0.2841949462890625,0.8953094482421875,-1.039581298828125
-0.686492919921875,0.9723358154296876,-0.68768310546875
-0.9948272705078124,1.0366363525390625,-0.7241973876953125
-1.0488433837890625,1.008087158203125,-0.7077789306640625
-0.9191741943359376,1.1150360107421875,-0.41693115234375
-0.6538238525390625,1.3662109375,-0.5216217041015625
-1.0381011962890625,1.50543212890625,-1.283416748046875
-0.5332489013671875,1.4145355224609375,-0.724212646484375
-0.1942596435546875,1.6584014892578125,-0.421051025390625
-0.40576171875,1.3053131103515625,-0.38568115234375
-0.201446533203125,1.0206451416015625,-0.115875244140625
0.620574951171875,1.167755126953125,0.194000244140625
0.715423583984375,1.100372314453125,0.254302978515625
0.0019378662109375,1.0482635498046875,0.032257080078125
-0.0605621337890625,1.1876068115234375,0.0192413330078125
0.0903778076171875,1.2681427001953125,-0.0067138671875
-0.176300048828125,1.2751617431640625,0.1287841796875
-0.47119140625,1.218719482421875,0.3148040771484375
-0.623565673828125,1.170135498046875,0.3588714599609375
-0.7142486572265625,1.244537353515625,0.1875
-0.7256011962890625,1.321014404296875,0.0240325927734375
-0.74853515625,1.216064453125,-0.1230316162109375
-0.917388916015625,1.1424407958984375,0.008026123046875
-0.9808349609375,0.989593505859375,-0.0026397705078125
-1.2814178466796875,0.7980804443359375,-0.4271087646484375
-1.4710693359375,0.797149658203125,-0.5426788330078125
-1.298858642578125,0.9881591796875,-0.2847137451171875
-1.1051483154296875,1.3965606689453125,-0.239410400390625
-0.968902587890625,1.8351593017578125,-0.2971038818359375
-0.7847442626953125,1.9179534912109373,-0.30780029296875
-0.7169647216796875,1.770294189453125,-0.289306640625
-0.567718505859375,1.6090087890625,-0.303558349609375
-0.4294586181640625,1.5048065185546875,-0.34893798828125
-0.3250274658203125,1.4130706787109375,-0.3197174072265625
-0.235015869140625,1.2679901123046875,-0.233306884765625
-0.2600250244140625,1.174896240234375,-0.191192626953125
0.09405517578125,1.0178070068359375,-0.0676422119140625
0.3801116943359375,0.83172607421875,-0.195068359375
0.22528076171875,0.8425445556640625,-0.2583160400390625
0.101409912109375,0.9283294677734376,-0.052459716796875
-0.21539306640625,1.2432861328125,0.00518798828125
-0.514617919921875,1.511383056640625,0.038726806640625
-0.684234619140625,1.51080322265625,-0.0538330078125
-0.769378662109375,1.335968017578125,-0.022857666015625
-0.82000732421875,1.2863311767578125,0.0073699951171875
-0.8228759765625,1.32769775390625,-0.0139617919921875
-0.859222412109375,1.2566680908203125,-0.011016845703125
-0.9692840576171876,1.155029296875,-0.110015869140625
-0.9767608642578124,1.1625823974609375,-0.161529541015625
-0.8823699951171875,1.092803955078125,-0.13140869140625
-0.7735137939453125,0.877471923828125,-0.1217193603515625
-0.7735595703125,0.769439697265625,-0.0598602294921875
-0.832733154296875,0.86651611328125,-0.0624542236328125
-0.9305419921875,0.8940887451171875,-0.0717620849609375
-1.116302490234375,0.9981231689453124,-0.2062530517578125
-1.1519317626953125,1.295684814453125,-0.1982879638671875
-1.093902587890625,1.6609954833984375,-0.2067108154296875
-1.0472869873046875,1.9508056640625,-0.2672576904296875
-0.8448486328125,2.0669097900390625,-0.290496826171875
-0.4329376220703125,1.78839111328125,-0.216949462890625
-0.2745513916015625,1.38250732421875,-0.132110595703125
-0.2010345458984375,1.084869384765625,-0.091339111328125
-0.06341552734375,0.8852691650390625,-0.1197967529296875
0.02020263671875,0.7607269287109375,-0.060821533203125
0.09173583984375,0.62530517578125,0.019927978515625
-0.10333251953125,0.6086578369140625,0.092254638671875
-0.1834564208984375,0.7393646240234375,0.22021484375
-0.3172760009765625,0.9508209228515624,0.1035614013671875
-0.4830474853515625,1.316070556640625,0.0600738525390625
-0.771514892578125,1.4380950927734375,0.0020904541015625
-0.9410858154296876,1.1071319580078125,0.025177001953125
-0.908782958984375,0.85247802734375,0.0430145263671875
-0.7231292724609375,0.789276123046875,0.053131103515625
-0.652435302734375,0.7992706298828125,0.088623046875
-0.6966094970703125,0.72198486328125,0.0557403564453125
-0.75164794921875,0.69561767578125,-0.148040771484375
-0.9406890869140624,0.779876708984375,-0.2440338134765625
-1.165985107421875,0.9704132080078124,-0.3439788818359375
-1.2300262451171875,0.99566650390625,-0.3463287353515625
-1.1224212646484375,0.86676025390625,-0.127105712890625
-1.2345428466796875,0.8748931884765625,0.103790283203125
-1.0942230224609375,0.7686004638671875,0.0790252685546875
-0.921539306640625,0.7434234619140625,-0.10552978515625
-0.9299468994140624,1.1050262451171875,-0.213653564453125
-0.794189453125,1.248046875,-0.28582763671875
-0.60894775390625,1.0386199951171875,-0.351531982421875
-0.6024627685546875,0.846832275390625,-0.2895050048828125
-0.573272705078125,0.777557373046875,-0.06103515625
-0.3891448974609375,0.6939544677734375,0.22808837890625
-0.3275146484375,0.65240478515625,0.187103271484375
-0.306854248046875,0.7572479248046875,0.036834716796875
-0.2220458984375,0.8270416259765625,-0.0722808837890625
-0.2931060791015625,0.91241455078125,-0.0684356689453125
-0.04058837890625,0.96417236328125,0.264984130859375
-0.1685791015625,1.127655029296875,0.230865478515625
-0.2545318603515625,1.1664886474609375,-0.070556640625
-0.5737152099609375,1.27484130859375,-0.228515625
-0.7954559326171875,1.5574951171875,-0.0968475341796875
-0.8861236572265625,1.4725799560546875,-0.03314208984375
-0.8687744140625,1.1608123779296875,-0.063568115234375
-0.8483428955078125,0.98382568359375,-0.1161041259765625
-0.783721923828125,0.8743133544921875,-0.12664794921875
-0.7329254150390625,0.79248046875,-0.137237548828125
-0.796112060546875,0.7342681884765625,-0.151611328125
-0.77783203125,0.869873046875,-0.1749725341796875
-0.85809326171875,1.0062713623046875,-0.1303253173828125
-0.887664794921875,0.89105224609375,-0.0913848876953125
-1.041107177734375,0.781219482421875,-0.1885528564453125
-1.2389373779296875,0.9994049072265624,-0.275543212890625
-1.1445465087890625,1.1580657958984375,-0.1601715087890625
-1.1517791748046875,1.406463623046875,-0.2715301513671875
-1.20526123046875,1.7743377685546875,-0.3468017578125
-1.0521087646484375,1.955963134765625,-0.431121826171875
-0.84967041015625,1.8989105224609373,-0.4246826171875
-0.623809814453125,1.71673583984375,-0.318511962890625
-0.418914794921875,1.4833831787109375,-0.2740936279296875
-0.2845916748046875,1.2575531005859375,-0.23638916015625
-0.1900177001953125,1.0734710693359375,-0.19708251953125
-0.0465240478515625,0.9123687744140624,-0.0531768798828125
0.0816802978515625,0.7909088134765625,0.0770416259765625
0.1291351318359375,0.706573486328125,0.010223388671875
0.0292510986328125,0.7812957763671875,-0.039306640625
-0.021026611328125,0.8675994873046875,-0.080596923828125
-0.266571044921875,1.1351776123046875,-0.0731048583984375
-0.526702880859375,1.4188079833984375,0.056732177734375
-0.703155517578125,1.57080078125,0.0358123779296875
-0.83880615234375,1.5146636962890625,-0.060394287109375
-0.9087066650390624,1.450775146484375,-0.1402740478515625
-0.9984588623046876,1.4237518310546875,-0.167877197265625
-1.02142333984375,1.197998046875,-0.15887451171875
-1.056793212890625,1.0697174072265625,-0.1430816650390625
-1.0272064208984375,1.169342041015625,-0.14117431640625
-0.9515838623046876,1.0906219482421875,-0.121337890625
-0.989654541015625,0.8564300537109375,-0.2174835205078125
-1.0386505126953125,0.6752471923828125,-0.22918701171875
-0.9603118896484376,0.757843017578125,-0.241729736328125
-0.8172760009765625,0.89251708984375,-0.2309112548828125
-0.8749237060546875,1.085418701171875,-0.2613983154296875
-0.9887847900390624,1.3238677978515625,-0.2852020263671875
-1.03900146484375,1.480682373046875,-0.301055908203125
-1.0661773681640625,1.5664215087890625,-0.2286376953125
-1.1797027587890625,1.80267333984375,-0.0815277099609375
-0.8504486083984375,1.94244384765625,0.1529693603515625
-0.4812164306640625,1.67205810546875,0.2909088134765625
-0.3768157958984375,1.388031005859375,0.0848541259765625
0.0004425048828125,1.125701904296875,0.2394866943359375
0.2067108154296875,0.8282928466796875,0.4651336669921875
0.22552490234375,0.7710113525390625,0.32159423828125
-0.02423095703125,0.7425689697265625,0.0462188720703125
-0.2171173095703125,0.9236602783203124,0.0701141357421875
-0.268951416015625,1.0815887451171875,-0.1077117919921875
-0.36761474609375,1.2474822998046875,-0.352783203125
-0.5240325927734375,1.3521575927734375,-0.4382171630859375
-0.6181793212890625,1.2619781494140625,-0.391571044921875
-0.6903533935546875,1.1172637939453125,-0.327911376953125
-0.747314453125,1.030670166015625,-0.279327392578125
-0.8033294677734375,1.013031005859375,-0.1921539306640625
-0.915130615234375,1.120269775390625,-0.225677490234375
-1.01776123046875,1.42230224609375,-0.3488311767578125
-1.1290740966796875,1.440093994140625,-0.4951324462890625
-1.313140869140625,1.2443389892578125,-0.7863311767578125
-1.367431640625,0.7995452880859375,-1.0028076171875
-1.5015106201171875,0.6023712158203125,-0.705169677734375
-1.30413818359375,0.6253662109375,-0.3745574951171875
-1.1893310546875,0.9528656005859376,-0.3628692626953125
-1.129638671875,1.41912841796875,-0.4249725341796875
-1.043487548828125,1.7274932861328125,-0.4011993408203125
-0.86920166015625,1.7232513427734375,-0.4015960693359375
-0.7758331298828125,1.6450042724609375,-0.3375091552734375
-0.60308837890625,1.5736083984375,-0.238861083984375
-0.32415771484375,1.3741302490234375,-0.2018890380859375
-0.20184326171875,1.1361846923828125,-0.1857757568359375
-0.13446044921875,0.9917144775390624,-0.14691162109375
0.0349884033203125,0.87249755859375,0.027923583984375
0.1755523681640625,0.8256988525390625,0.1579132080078125
0.2039337158203125,0.7570648193359375,0.1228485107421875
-0.049530029296875,0.8739166259765625,-0.073272705078125
-0.059722900390625,1.0121002197265625,0.130157470703125
-0.23541259765625,1.3643798828125,-0.0038909912109375
-0.5602874755859375,1.7505340576171875,-0.18341064453125
-0.8277435302734375,2.036956787109375,-0.2438201904296875
-1.0048828125,1.8497467041015625,-0.3352203369140625
-1.058563232421875,1.550872802734375,-0.32366943359375
-1.0387115478515625,1.33624267578125,-0.2691497802734375
-0.98944091796875,1.1479644775390625,-0.3369903564453125
-0.935302734375,0.959930419921875,-0.4022674560546875
-0.9088134765625,0.9133148193359376,-0.3101043701171875
-0.840728759765625,0.9501495361328124,-0.129180908203125
-0.7891998291015625,0.842315673828125,-0.1326751708984375
-0.92828369140625,0.8518829345703125,-0.2919921875
-0.976531982421875,0.9814453125,-0.3300628662109375
-0.9750518798828124,1.0447845458984375,-0.2388916015625
-1.023284912109375,1.29833984375,-0.2661590576171875
-1.03680419921875,1.70220947265625,-0.323638916015625
-1.0230865478515625,1.9239959716796875,-0.4306640625
-1.05267333984375,2.030975341796875,-0.43170166015625
-0.8118438720703125,2.047119140625,-0.395294189453125
-0.480072021484375,1.8469390869140625,-0.3603363037109375
-0.250396728515625,1.4151763916015625,-0.2920989990234375
-0.194671630859375,1.0360565185546875,-0.1688690185546875
-0.223236083984375,0.841033935546875,-0.124847412109375
-0.1676483154296875,0.7000732421875,-0.1343994140625
-0.0879058837890625,0.59320068359375,-0.173065185546875
-0.0364227294921875,0.615325927734375,-0.15838623046875
0.0971221923828125,0.6848602294921875,-0.1437835693359375
0.087677001953125,0.7489776611328125,-0.2034759521484375
-0.3754425048828125,1.00335693359375,-0.0420684814453125
-0.64801025390625,1.44146728515625,0.46002197265625
-0.9085845947265624,1.7845001220703125,0.376373291015625
-1.1365966796875,1.7445220947265625,0.2162933349609375
-1.2003173828125,1.5370330810546875,0.0913848876953125
-1.183441162109375,1.309112548828125,0.0988616943359375
-1.1053619384765625,1.092010498046875,0.247894287109375
-1.0516510009765625,0.967010498046875,0.3810272216796875
-1.0177459716796875,0.8760986328125,0.385101318359375
-0.9079132080078124,0.859222412109375,0.223663330078125
-0.792236328125,0.832916259765625,0.0917816162109375
-0.70050048828125,0.7944183349609375,0.0313873291015625
-0.703582763671875,0.841217041015625,-0.01947021484375
-0.6989593505859375,0.9833526611328124,-0.1354522705078125
-0.6339263916015625,1.1127471923828125,-0.2823944091796875
-0.4741973876953125,1.163848876953125,-0.6162567138671875
-0.1773223876953125,1.035064697265625,-0.8983917236328125
-0.2606353759765625,0.935211181640625,-0.6809844970703125
-0.6348419189453125,1.015625,-0.6388092041015625
-0.54656982421875,0.8715362548828125,-1.033416748046875
-0.52386474609375,0.883056640625,-0.9627227783203124
-0.582763671875,1.0233306884765625,-0.72015380859375
-0.59893798828125,1.0721435546875,-0.7917633056640625
-0.638641357421875,1.10955810546875,-0.7460479736328125
-0.6370697021484375,1.250885009765625,-0.6745758056640625
-0.4876861572265625,1.328125,-0.6305999755859375
-0.3251800537109375,1.2716064453125,-0.564483642578125
-0.3483428955078125,1.2254638671875,-0.4108734130859375
-0.3514556884765625,1.2365875244140625,-0.2775421142578125
-0.10986328125,1.1365509033203125,-0.1609344482421875
0.1214447021484375,1.0741729736328125,-0.1065673828125
0.35272216796875,1.1191253662109375,-0.12530517578125
0.3157958984375,1.225067138671875,-0.172271728515625
0.266937255859375,1.3213653564453125,-0.04058837890625
0.0290985107421875,1.4278411865234375,0.16680908203125
-0.418212890625,1.4258270263671875,0.4486541748046875
-0.73992919921875,1.4209747314453125,0.766998291015625
-0.82427978515625,1.444122314453125,0.3797454833984375
-0.8221435546875,1.4009246826171875,0.0220947265625
-0.9269256591796876,1.3401947021484375,-0.083648681640625
-1.0969390869140625,1.38031005859375,0.03521728515625
-0.9623260498046876,1.2750396728515625,-0.0362396240234375
-1.0501861572265625,0.849884033203125,-0.24884033203125
-1.2090911865234375,0.7480621337890625,-0.290008544921875
-1.1956634521484375,0.7753143310546875,-0.362152099609375
-1.279510498046875,0.852783203125,-0.47332763671875
-1.1745147705078125,1.2725677490234375,-0.3445587158203125
-1.1744537353515625,1.85125732421875,-0.3746185302734375
-1.0622406005859375,2.2904510498046875,-0.46136474609375
-0.843475341796875,2.365142822265625,-0.5419769287109375
-0.6211090087890625,2.201400756835937,-0.5634918212890625
-0.3289794921875,1.8623504638671875,-0.4150238037109375
-0.223907470703125,1.4318389892578125,-0.2818603515625
-0.332000732421875,1.3136749267578125,-0.218109130859375
-0.03106689453125,1.2492218017578125,-0.028106689453125
0.6346282958984375,1.0916748046875,0.0310516357421875
0.8619842529296875,0.9500274658203124,-0.2462310791015625
0.618438720703125,1.0469512939453125,0.024932861328125
0.1091156005859375,1.3524932861328125,0.3753204345703125
-0.396820068359375,1.8826751708984373,0.1440887451171875
-0.830596923828125,2.3678436279296875,-0.1037445068359375
-0.9792022705078124,2.3642578125,-0.231719970703125
-1.039337158203125,1.9878692626953125,-0.3549957275390625
-0.9886627197265624,1.5835418701171875,-0.2862701416015625
-0.925048828125,1.1964569091796875,-0.1691131591796875
-0.855926513671875,0.8680267333984375,-0.2799224853515625
-0.7746429443359375,0.7353363037109375,-0.2159576416015625
-0.7915802001953125,1.00897216796875,-0.178985595703125
-0.790924072265625,1.2205810546875,-0.2337188720703125
-0.8636932373046875,1.1141357421875,-0.49285888671875
-1.231842041015625,0.902008056640625,-0.715240478515625
-1.1252593994140625,0.9435272216796876,-0.3586273193359375
-0.8792266845703125,1.3388671875,-0.0891876220703125
-0.88006591796875,1.5128021240234375,0.3475494384765625
-0.7436676025390625,1.8046112060546875,-0.7080230712890625
-0.413543701171875,2.208984375,-0.7033538818359375
-0.269683837890625,2.046600341796875,-0.3684234619140625
-0.2534027099609375,1.6595001220703125,-0.444183349609375
-0.25714111328125,1.4465789794921875,-0.33978271484375
-0.2652130126953125,1.3618316650390625,-0.1467742919921875
-0.292449951171875,1.193817138671875,-0.14532470703125
-0.231475830078125,1.1246490478515625,-0.239288330078125
-0.0089111328125,1.133026123046875,-0.1956024169921875
0.14385986328125,1.0103607177734375,-0.2309722900390625
0.27227783203125,0.8065338134765625,-0.2574310302734375
0.27313232421875,0.7961883544921875,-0.1583709716796875
0.2193603515625,0.86065673828125,0.0190887451171875
-0.2179107666015625,1.0046234130859375,0.0916748046875
-0.3861236572265625,1.2371368408203125,0.1598052978515625
-0.424896240234375,1.4605255126953125,-0.095367431640625
-0.673583984375,1.539154052734375,-0.2763214111328125
-0.9803924560546876,1.40521240234375,-0.1459503173828125
-1.235687255859375,1.2560272216796875,-0.05657958984375
-1.30792236328125,1.0469207763671875,-0.04241943359375
-1.1619720458984375,1.0685882568359375,-0.1546630859375
-0.9161376953125,1.063201904296875,-0.17401123046875
-0.882598876953125,1.0039215087890625,-0.2648773193359375
-0.92877197265625,0.882965087890625,-0.2734222412109375
-0.8583984375,0.82879638671875,-0.31195068359375
-0.7085418701171875,0.9717254638671876,-0.4248504638671875
-0.6882781982421875,1.136474609375,-0.6099395751953125
-0.697357177734375,1.2414703369140625,-0.73162841796875
-0.6254425048828125,1.42596435546875,-0.783233642578125
-0.566680908203125,1.6268768310546875,-0.6645965576171875
-0.5679931640625,1.630889892578125,-0.46697998046875
-0.5813446044921875,1.530120849609375,-0.2940826416015625
-0.516204833984375,1.3877105712890625,-0.1571502685546875
-0.4029388427734375,1.2295989990234375,-0.08673095703125
-0.1878662109375,1.08624267578125,0.0283660888671875
0.0615997314453125,1.0152130126953125,0.1162261962890625
0.2292327880859375,1.0335845947265625,-0.0275726318359375
0.162109375,1.067718505859375,-0.187591552734375
0.06463623046875,0.9702606201171876,-0.1625518798828125
-0.0480194091796875,0.980010986328125,-0.2076873779296875
-0.0188751220703125,0.94366455078125,-0.2034912109375
-0.2000732421875,1.075469970703125,-0.241119384765625
-0.2846832275390625,1.40155029296875,-0.1957244873046875
-0.442962646484375,1.770263671875,-0.1827850341796875
-0.7415313720703125,1.9212493896484373,-0.3109588623046875
-0.983551025390625,1.6881866455078125,-0.2810821533203125
-1.10064697265625,1.3095703125,-0.1544342041015625
-1.1680145263671875,1.0539093017578125,-0.062896728515625
-1.086700439453125,1.0802154541015625,-0.202117919921875
-0.8875274658203125,1.2014923095703125,-0.292022705078125
-0.707794189453125,1.1774139404296875,-0.38958740234375
-0.6613311767578125,1.0005340576171875,-0.4343414306640625
-0.6103057861328125,0.8175811767578125,-0.361297607421875
-0.7595062255859375,0.87957763671875,-0.3116607666015625
-0.9539794921875,1.0666961669921875,-0.1646881103515625
-1.08734130859375,1.3325958251953125,-0.251922607421875
-1.0688323974609375,1.6456451416015625,-0.47540283203125
-1.009918212890625,1.958404541015625,-0.6819610595703125
-0.828460693359375,2.101318359375,-0.4843902587890625
-0.6356353759765625,2.05816650390625,-0.32537841796875
-0.4362335205078125,1.8702239990234373,-0.3778076171875
-0.2229461669921875,1.489776611328125,-0.4068603515625
-0.2398681640625,1.291473388671875,-0.165924072265625
-0.1761932373046875,1.0731201171875,0.0282440185546875
0.0138092041015625,0.8703155517578125,0.0208892822265625
0.2681732177734375,0.5856170654296875,-0.020599365234375
0.207061767578125,0.49560546875,-0.022857666015625
0.1244659423828125,0.5999755859375,0.01361083984375
-0.130645751953125,0.8473358154296875,-0.0731964111328125
-0.3219451904296875,1.2756805419921875,-0.1154327392578125
-0.4136962890625,1.52960205078125,-0.300811767578125
-0.6419830322265625,1.3983001708984375,-0.5303497314453125
-0.900604248046875,1.181304931640625,-0.4156494140625
-0.9190216064453124,1.1047210693359375,-0.064727783203125
-0.92132568359375,1.1450042724609375,-0.093719482421875
-0.8578033447265625,1.113067626953125,-0.301025390625
-1.1143035888671875,1.1993408203125,-0.1877593994140625
-1.4585113525390625,1.11376953125,-0.142669677734375
-1.545867919921875,0.927093505859375,-0.4224700927734375
-1.371185302734375,0.747894287109375,-0.418121337890625
-1.363494873046875,0.9017333984375,-0.42401123046875
-1.153350830078125,0.9705657958984376,-0.4527587890625
-1.0422210693359375,1.3132476806640625,-0.5289459228515625
-0.863128662109375,1.550872802734375,-0.570831298828125
-0.5770111083984375,1.4349517822265625,-0.6319732666015625
-0.5035552978515625,1.103973388671875,-0.67059326171875
-0.5529937744140625,1.0230865478515625,-0.51251220703125
-0.6124114990234375,1.1113128662109375,-0.3032684326171875
-0.5854949951171875,1.3238677978515625,-0.18853759765625
-0.40777587890625,1.3892059326171875,-0.1698760986328125
-0.3565826416015625,1.390594482421875,-0.415985107421875
-0.07989501953125,1.307037353515625,-0.271484375
0.80548095703125,1.097991943359375,0.3092498779296875
0.854461669921875,1.0992584228515625,0.244598388671875
0.229034423828125,1.115997314453125,0.3408966064453125
-0.3766632080078125,1.1876373291015625,0.2672576904296875
-0.5456085205078125,1.506134033203125,0.1698455810546875
-0.6129608154296875,1.8047637939453125,-0.091827392578125
-0.7893829345703125,1.6406707763671875,0.137451171875
-0.9698333740234376,1.4725341796875,0.2446441650390625
-0.990234375,1.29107666015625,0.17376708984375
-1.0438995361328125,1.09381103515625,-0.0525970458984375
-1.169219970703125,1.0217742919921875,-0.340057373046875
-1.0974884033203125,1.0377197265625,-0.354034423828125
-0.918975830078125,1.0435333251953125,-0.026885986328125
-0.81768798828125,0.9599456787109376,0.1134185791015625
-0.884002685546875,0.8472747802734375,-0.0208282470703125
-0.970977783203125,1.0842132568359375,-0.162689208984375
-1.0107574462890625,1.31622314453125,-0.15313720703125
-1.107086181640625,1.61029052734375,-0.2772216796875
-1.1744537353515625,1.9381103515625,-0.3310699462890625
-0.951385498046875,2.0698394775390625,-0.3585205078125
-0.703887939453125,1.9917449951171875,-0.3896942138671875
-0.497161865234375,1.804046630859375,-0.2772369384765625
-0.3148956298828125,1.53082275390625,-0.216064453125
-0.2088165283203125,1.23046875,-0.1997222900390625
-0.0903472900390625,1.00628662109375,-0.1118011474609375
-0.0004730224609375,0.831268310546875,0.0345306396484375
0.1629638671875,0.7021636962890625,0.1751556396484375
0.2387237548828125,0.5501861572265625,0.103912353515625
0.0667572021484375,0.6704559326171875,0.02197265625
0.097900390625,0.88409423828125,0.021270751953125
-0.1275177001953125,1.2647857666015625,-0.1239471435546875
-0.48919677734375,1.7622222900390625,-0.098114013671875
-0.8005828857421875,2.0489501953125,-0.190338134765625
-1.0183563232421875,1.8579864501953125,-0.2318878173828125
-1.085235595703125,1.574981689453125,-0.2113037109375
-1.120147705078125,1.405914306640625,-0.1902008056640625
-1.0666656494140625,1.228179931640625,-0.17919921875
-0.931549072265625,1.099212646484375,-0.1966705322265625
-0.8815155029296875,1.1389007568359375,-0.2185516357421875
-0.8140869140625,1.0797119140625,-0.127777099609375
-0.8554840087890625,0.874359130859375,-0.18780517578125
-1.0659637451171875,0.748382568359375,-0.2772674560546875
-1.1104888916015625,0.900299072265625,-0.2739410400390625
-0.873016357421875,0.9958038330078124,-0.27069091796875
-0.8628082275390625,1.08636474609375,-0.315521240234375
-0.910614013671875,1.3038330078125,-0.28094482421875
-0.92926025390625,1.6497344970703125,-0.3180694580078125
-0.8547515869140625,1.761505126953125,-0.36248779296875
-0.7955780029296875,1.751861572265625,-0.43505859375
-0.6713409423828125,1.712921142578125,-0.40789794921875
-0.4774932861328125,1.551727294921875,-0.334747314453125
-0.2606201171875,1.265167236328125,-0.2797698974609375
-0.2091217041015625,1.0257720947265625,-0.23065185546875
-0.1834564208984375,0.845306396484375,-0.18963623046875
-0.130584716796875,0.6630401611328125,-0.1659088134765625
-0.1214752197265625,0.617767333984375,-0.105865478515625
-0.0836334228515625,0.6598052978515625,-0.02239990234375
-0.0302276611328125,0.6704864501953125,-0.0080718994140625
-0.2384796142578125,0.827972412109375,0.009185791015625
-0.5442657470703125,1.113800048828125,0.0261077880859375
-0.71038818359375,1.430084228515625,-0.0299835205078125
-0.8642120361328125,1.519866943359375,0.0762786865234375
-1.03875732421875,1.399627685546875,0.2003021240234375
-1.0338287353515625,1.3213043212890625,0.1509246826171875
-0.958892822265625,1.270294189453125,0.1756591796875
-0.9162750244140624,1.17218017578125,0.3354339599609375
-0.9269866943359376,1.0505523681640625,0.4261627197265625
-0.94305419921875,0.99298095703125,0.33154296875
-0.892059326171875,0.94476318359375,0.2416839599609375
-0.79437255859375,0.9644775390625,0.115203857421875
-0.66644287109375,0.902984619140625,-0.02484130859375
-0.5846710205078125,0.9756622314453124,-0.1598358154296875
-0.4490966796875,1.1385650634765625,-0.3848724365234375
-0.2061614990234375,1.179412841796875,-0.67901611328125
-0.1263275146484375,1.1664886474609375,-1.240142822265625
-0.3347320556640625,0.9400787353515624,-1.108123779296875
-0.425567626953125,0.5681610107421875,-1.0831451416015625
-0.343841552734375,0.51495361328125,-0.853759765625
-0.1355438232421875,0.764556884765625,-0.8359832763671875
-0.0955352783203125,1.060821533203125,-0.92181396484375
-0.0724334716796875,1.16119384765625,-0.7379302978515625
0.08544921875,1.3837432861328125,-0.4914398193359375
-0.021270751953125,1.3199920654296875,-0.605010986328125
-0.4585723876953125,1.1299285888671875,-0.6923065185546875
-0.4321746826171875,1.20452880859375,-0.87890625
-0.134552001953125,1.54364013671875,-0.6682281494140625
0.1525726318359375,1.7785797119140625,-0.702117919921875
0.7436676025390625,1.4314117431640625,-0.721435546875
1.4353485107421875,0.971038818359375,-0.423492431640625
1.1111907958984375,0.9736328125,-0.2097625732421875
0.6769561767578125,1.1625518798828125,-0.0848236083984375
0.3317108154296875,1.362823486328125,0.0044403076171875
0.072845458984375,1.4429168701171875,0.1703338623046875
-0.31036376953125,1.373809814453125,0.39794921875
-0.565155029296875,1.29669189453125,0.420623779296875
-0.72686767578125,1.221466064453125,0.2429656982421875
-0.8486328125,1.1437225341796875,0.318939208984375
-0.9455413818359376,1.100341796875,0.21728515625
-1.0380859375,1.060821533203125,0.12982177734375
-1.0842132568359375,0.8879547119140625,-0.0334320068359375
-1.2619476318359375,0.68804931640625,-0.2967681884765625
-1.5935821533203125,0.5979156494140625,-0.493255615234375
-1.2603759765625,0.7853851318359375,-0.2223663330078125
-1.02313232421875,1.2866363525390625,-0.2926788330078125
-1.0193634033203125,1.6631622314453125,-0.33575439453125
-0.9572296142578124,1.7940216064453125,-0.2962493896484375
-0.8607940673828125,1.8166046142578125,-0.2556610107421875
-0.744140625,1.8404998779296875,-0.317626953125
-0.5571746826171875,1.805694580078125,-0.2816009521484375
-0.3514404296875,1.6566162109375,-0.20001220703125
-0.0446929931640625,1.331298828125,-0.05908203125
0.473602294921875,1.1510772705078125,0.060699462890625
0.654693603515625,0.926116943359375,-0.0158843994140625
0.1869354248046875,0.7989959716796875,-0.039306640625
-0.0007476806640625,0.8892364501953125,0.226959228515625
-0.088409423828125,1.1513824462890625,0.1459197998046875
-0.23687744140625,1.51751708984375,-0.0850982666015625
-0.5085906982421875,1.6135406494140625,-0.1446075439453125
-0.718994140625,1.442779541015625,-0.03131103515625
-0.7710418701171875,1.3825225830078125,-0.0311431884765625
-0.773590087890625,1.4491424560546875,-0.00799560546875
-0.8454437255859375,1.3662872314453125,-0.0796356201171875
-0.896697998046875,1.28106689453125,-0.1831817626953125
-0.88238525390625,1.2738800048828125,-0.1701507568359375
-0.8366241455078125,1.2286529541015625,-0.1279296875
-0.8294525146484375,1.0109405517578125,-0.1547698974609375
-0.9520111083984376,0.871368408203125,-0.167816162109375
-0.9507293701171876,0.8485107421875,-0.1173248291015625
-0.8607177734375,0.8221435546875,-0.091705322265625
-0.8522186279296875,0.9228363037109376,-0.1387939453125
-0.8820953369140625,1.194244384765625,-0.170501708984375
-0.8498077392578125,1.434326171875,-0.2438201904296875
-0.794342041015625,1.5599517822265625,-0.348785400390625
-0.8223724365234375,1.6930999755859375,-0.38140869140625
-0.7909088134765625,1.7842559814453125,-0.0985107421875
-0.5852508544921875,1.754150390625,0.1254730224609375
-0.3253326416015625,1.5395355224609375,0.020721435546875
-0.1354827880859375,1.20526123046875,-0.061309814453125
0.0358734130859375,0.8764495849609375,0.2705841064453125
-0.01812744140625,0.6807861328125,0.5342254638671875
-0.2649078369140625,0.8978424072265625,0.48785400390625
-0.2867889404296875,1.0847015380859375,0.1477813720703125
-0.2898406982421875,1.118408203125,-0.0829620361328125
-0.30877685546875,1.0817718505859375,-0.1835479736328125
-0.3513336181640625,1.033721923828125,-0.19873046875
-0.41473388671875,0.9331817626953124,-0.1707763671875
-0.4766845703125,0.7996063232421875,0.042938232421875
-0.5087432861328125,0.7544097900390625,0.0360870361328125
-0.61676025390625,0.80328369140625,-0.316314697265625
-1.0785369873046875,0.889495849609375,-0.6000518798828125
-1.323699951171875,1.141632080078125,-0.2314453125
-1.2169952392578125,1.392547607421875,0.0532684326171875
-1.4337615966796875,1.2354278564453125,0.068359375
-1.7034149169921875,0.752349853515625,0.0919036865234375
-1.72491455078125,0.760955810546875,-0.072235107421875
-1.274261474609375,0.8329315185546875,-0.23138427734375
-1.073394775390625,1.098175048828125,-0.4383697509765625
-0.903045654296875,1.3833160400390625,-0.50323486328125
-0.6606597900390625,1.37371826171875,-0.4070281982421875
-0.5491485595703125,1.127227783203125,-0.2912750244140625
-0.5462646484375,1.0015716552734375,-0.0487823486328125
-0.4407501220703125,0.9390411376953124,0.116943359375
-0.2974853515625,0.8260955810546875,0.0602264404296875
-0.2446441650390625,0.7848358154296875,0.011199951171875
-0.1456298828125,0.788970947265625,0.06427001953125
-0.0559844970703125,0.775726318359375,-0.0161590576171875
-0.07318115234375,0.8650970458984375,-0.0403289794921875
-0.13214111328125,0.835418701171875,-0.0109100341796875
-0.228424072265625,1.0202178955078125,0.06683349609375
-0.2320556640625,1.0115203857421875,0.0031585693359375
-0.5471954345703125,1.2421875,0.094268798828125
-0.6319580078125,1.50897216796875,-0.0070953369140625
-0.65509033203125,1.4910736083984375,-0.22259521484375
-0.8126678466796875,1.2167816162109375,-0.171356201171875
-0.9163818359375,1.0356903076171875,-0.0095367431640625
-0.9277801513671876,0.998046875,0.0296630859375
-0.8620758056640625,0.97137451171875,-0.1082916259765625
-0.829925537109375,1.0300750732421875,-0.1795654296875
-0.8642425537109375,1.0997467041015625,-0.1055450439453125
-0.9499359130859376,1.07135009765625,-0.1514892578125
-1.0156402587890625,0.9024200439453124,-0.3394317626953125
-1.1418914794921875,1.0218048095703125,-0.331787109375
-0.8794708251953125,1.0850372314453125,-0.1787261962890625
-0.862396240234375,1.2095489501953125,-0.2665863037109375
-0.88336181640625,1.4357147216796875,-0.2616119384765625
-0.707672119140625,1.4769134521484375,-0.2595977783203125
-0.616485595703125,1.332611083984375,-0.3308563232421875
-0.644012451171875,1.32672119140625,-0.2728271484375
-0.6108856201171875,1.45855712890625,-0.2165985107421875
-0.45068359375,1.563140869140625,-0.2601470947265625
-0.1926727294921875,1.4990234375,-0.2411651611328125
0.121002197265625,1.2440032958984375,0.0582122802734375
0.4889373779296875,1.0369720458984375,0.05487060546875
0.37579345703125,0.8505859375,-0.1329345703125
0.1186370849609375,0.880523681640625,0.13397216796875
-0.136444091796875,1.063629150390625,0.03900146484375
-0.2757415771484375,1.4235992431640625,-0.080474853515625
-0.47515869140625,1.5308837890625,-0.075592041015625
-0.66387939453125,1.3393707275390625,-0.0415802001953125
-0.78509521484375,1.1505584716796875,0.0071258544921875
-0.76129150390625,1.137298583984375,-0.0218658447265625
-0.764617919921875,1.1729888916015625,-0.090667724609375
-0.866119384765625,1.2350616455078125,-0.24468994140625
-1.020721435546875,1.1908721923828125,-0.2756500244140625
-1.1932220458984375,1.0536651611328125,-0.27142333984375
-1.1293182373046875,0.8603668212890625,-0.1732330322265625
-1.0428009033203125,0.9819793701171876,-0.1297454833984375
-0.8708953857421875,1.1091461181640625,-0.1906585693359375
-0.836761474609375,1.0263671875,-0.2599945068359375
-0.96484375,1.254486083984375,-0.297576904296875
-0.94830322265625,1.5801544189453125,-0.265167236328125
-0.859466552734375,1.69537353515625,-0.232574462890625
-0.7644805908203125,1.7438201904296875,-0.2097320556640625
-0.517059326171875,1.6612396240234375,-0.1201019287109375
-0.33056640625,1.4261627197265625,0.064117431640625
-0.1799774169921875,1.192901611328125,0.125518798828125
-0.1397857666015625,1.0345611572265625,0.191162109375
-0.167877197265625,0.80218505859375,0.0787811279296875
-0.33184814453125,0.634002685546875,-0.118621826171875
-0.4690704345703125,0.6785125732421875,-0.155731201171875
-0.4337921142578125,0.670074462890625,-0.33428955078125
-0.4615936279296875,0.6741485595703125,-0.4462738037109375
-0.4284515380859375,0.6909637451171875,-0.547088623046875
-0.45758056640625,0.5326080322265625,-0.7273406982421875
-0.5291595458984375,0.312652587890625,-0.73431396484375
-0.5762176513671875,0.18890380859375,-0.6305999755859375
-0.6044464111328125,0.1421356201171875,-0.6168975830078125
-0.679412841796875,0.11187744140625,-0.5984649658203125
-0.804107666015625,0.1639404296875,-0.6663055419921875
-0.9276275634765624,0.326690673828125,-0.7276611328125
-0.9658966064453124,0.409698486328125,-0.834197998046875
-0.9753570556640624,0.4302978515625,-0.8727874755859375
-1.065643310546875,0.6068267822265625,-0.7059326171875
-0.760406494140625,0.6513824462890625,-0.5373687744140625
-0.4891510009765625,0.7660369873046875,-0.3614044189453125
-0.3127288818359375,0.9290618896484376,-0.2014617919921875
-0.186279296875,1.0114898681640625,-0.0788421630859375
-0.2046051025390625,0.8603515625,-0.1811370849609375
-0.297119140625,0.76983642578125,-0.1387939453125
-0.297515869140625,0.83489990234375,-0.0867767333984375
-0.3383026123046875,0.9952850341796876,-0.0168304443359375
-0.563507080078125,1.179779052734375,0.204132080078125
-0.8431854248046875,1.3574981689453125,0.2968902587890625
-0.9174041748046876,1.59783935546875,0.0622100830078125
-0.9099578857421876,1.7164459228515625,-0.2239532470703125
-0.9928741455078124,1.465423583984375,-0.3218841552734375
-1.03106689453125,1.200225830078125,-0.36273193359375
-0.818695068359375,0.767364501953125,-0.2545013427734375
-0.8225555419921875,0.624267578125,-0.1811065673828125
-0.856414794921875,0.6699371337890625,-0.176025390625
-0.717987060546875,0.6559295654296875,-0.0653228759765625
-0.61102294921875,0.552154541015625,-0.15020751953125
-0.5959014892578125,0.618682861328125,-0.2166748046875
-0.5196685791015625,0.7582550048828125,-0.1670989990234375
-0.54949951171875,0.8868865966796875,-0.126220703125
-0.7430877685546875,1.101348876953125,-0.042724609375
-0.9837799072265624,1.4087371826171875,-0.19012451171875
-1.1493377685546875,1.5160675048828125,-0.3549346923828125
-1.087799072265625,1.5393524169921875,-0.5098724365234375
-1.0521697998046875,1.774749755859375,-0.46868896484375
-0.7693634033203125,1.5983734130859375,-0.31390380859375
-0.6589202880859375,1.40155029296875,-0.232879638671875
-0.5235748291015625,1.311004638671875,-0.1687469482421875
-0.3281707763671875,1.121551513671875,-0.149078369140625
-0.133941650390625,0.813812255859375,-0.1540374755859375
-0.1386260986328125,0.5860595703125,-0.1269989013671875
-0.1915740966796875,0.475830078125,-0.0993194580078125
-0.179901123046875,0.4459686279296875,-0.0857696533203125
-0.11773681640625,0.47686767578125,-0.0923614501953125
-0.075653076171875,0.570953369140625,-0.0844268798828125
-0.1573028564453125,0.728729248046875,0.0477447509765625
-0.3356781005859375,0.9266357421875,0.1033782958984375
-0.5482940673828125,1.2272491455078125,0.0293121337890625
-0.76763916015625,1.562896728515625,0.044586181640625
-1.0167083740234375,1.929351806640625,-0.052337646484375
-1.2251434326171875,1.987701416015625,-0.1834716796875
-1.4432220458984375,1.637420654296875,0.1365203857421875
-1.46319580078125,1.0914306640625,0.4017333984375
-1.3076019287109375,0.7538299560546875,0.1396484375
-1.1327972412109375,0.64251708984375,-0.0181121826171875
-0.8859710693359375,0.7151947021484375,-0.0634307861328125
-0.69970703125,0.7745208740234375,-0.125091552734375
-0.661651611328125,0.717437744140625,-0.1537933349609375
-0.697662353515625,0.7195281982421875,-0.20635986328125
-0.7127227783203125,0.795501708984375,-0.275543212890625
-0.690155029296875,0.896881103515625,-0.3392791748046875
-0.6834259033203125,0.9819183349609376,-0.394989013671875
-0.628997802734375,1.06695556640625,-0.5396575927734375
-0.50054931640625,1.07196044921875,-0.5791168212890625
-0.3147735595703125,1.0793914794921875,-0.594268798828125
-0.204132080078125,1.0809173583984375,-0.7029571533203125
-0.260528564453125,0.9490509033203124,-0.7632293701171875
-0.2686309814453125,0.765960693359375,-0.869903564453125
-0.32958984375,0.6970367431640625,-0.9289093017578124
-0.447784423828125,0.6976318359375,-0.8316192626953125
-0.597137451171875,0.786651611328125,-0.8327484130859375
-0.6975860595703125,0.9154815673828124,-0.781341552734375
-0.7791595458984375,1.011383056640625,-0.706573486328125
-0.8407745361328125,1.0334014892578125,-0.6251983642578125
-0.8675537109375,1.0536041259765625,-0.6332244873046875
-0.831512451171875,1.0859375,-0.585113525390625
-0.7104339599609375,1.0720367431640625,-0.470947265625
-0.52056884765625,1.0531463623046875,-0.3616790771484375
-0.2951507568359375,0.9562835693359376,-0.241729736328125
-0.10516357421875,0.8305206298828125,-0.18408203125
0.0456695556640625,0.7252197265625,-0.168121337890625
0.0019378662109375,0.66253662109375,-0.1518096923828125
-0.15374755859375,0.743499755859375,-0.039154052734375
-0.2676544189453125,0.9060211181640624,0.016754150390625
-0.3872833251953125,1.0658111572265625,0.046600341796875
-0.5201263427734375,1.1590576171875,0.165557861328125
-0.7806549072265625,1.3078460693359375,0.1229705810546875
-0.9392852783203124,1.4542236328125,-0.0925445556640625
-0.8914337158203125,1.233123779296875,-0.149871826171875
-0.8789215087890625,0.983123779296875,-0.1374053955078125
-0.850982666015625,0.8249053955078125,-0.047515869140625
-0.7627716064453125,0.7926025390625,-0.0002593994140625
-0.6270751953125,0.8029632568359375,0.0327606201171875
-0.529541015625,0.7981719970703125,-0.01910400390625
-0.4779510498046875,0.80615234375,-0.1017303466796875
-0.5012969970703125,0.870147705078125,-0.1727294921875
-0.6837615966796875,0.98834228515625,-0.185821533203125
-0.870208740234375,1.044158935546875,-0.2279052734375
-1.0163726806640625,0.9330596923828124,-0.3792572021484375
-1.2447967529296875,1.0339202880859375,-0.6189117431640625
-1.032928466796875,1.073089599609375,-0.547027587890625
-0.8226318359375,1.1717681884765625,-0.4217376708984375
-0.8155517578125,1.4871368408203125,-0.4221343994140625
-0.65802001953125,1.5357818603515625,-0.3719635009765625
-0.5735321044921875,1.3353424072265625,-0.371917724609375
-0.6434478759765625,1.2572479248046875,-0.389007568359375
-0.6251678466796875,1.2234649658203125,-0.336700439453125
-0.544921875,1.09246826171875,-0.2751007080078125
-0.51513671875,0.984375,-0.2454681396484375
-0.5016937255859375,0.901824951171875,-0.2739715576171875
-0.3860626220703125,0.80047607421875,-0.34161376953125
-0.299407958984375,0.740692138671875,-0.4725189208984375
-0.096832275390625,0.604522705078125,-0.4285125732421875
-0.1306915283203125,0.5946197509765625,-0.210968017578125
-0.640594482421875,0.798797607421875,-0.1983642578125
-1.255035400390625,0.7253875732421875,-0.7492828369140625
-1.8370819091796875,0.4824371337890625,-1.073455810546875
-1.5653228759765625,0.5541534423828125,-0.74853515625
-1.2287445068359375,0.7505645751953125,-1.020782470703125
-1.0835418701171875,0.8403778076171875,-1.3646240234375
-1.0967559814453125,0.926239013671875,-1.379180908203125
-1.05712890625,0.9152679443359376,-1.29217529296875
-0.9065704345703124,1.0597381591796875,-1.5032958984375
-0.744781494140625,1.3511810302734375,-1.761627197265625
-0.56939697265625,1.3894195556640625,-1.6319732666015625
-0.4682159423828125,1.2112884521484375,-1.418426513671875
-0.4384613037109375,1.0630950927734375,-1.18438720703125
-0.3770904541015625,0.8874359130859375,-1.0091552734375
-0.094573974609375,0.609375,-0.6828460693359375
-0.121002197265625,0.43634033203125,-0.341033935546875
0.0532379150390625,0.2278289794921875,-0.275390625
0.3590087890625,-0.0184783935546875,-0.371368408203125
-0.108551025390625,0.0203399658203125,-0.381622314453125
0.115875244140625,-0.06890869140625,-0.458892822265625
0.379425048828125,-0.2334747314453125,-0.1727447509765625
0.189849853515625,-0.3927001953125,-0.117462158203125
0.0568084716796875,-0.531005859375,-0.288970947265625
0.062255859375,-0.5370025634765625,-0.331878662109375
0.09808349609375,-0.58575439453125,-0.1544036865234375
0.084808349609375,-0.630157470703125,-0.1356964111328125
-0.0232696533203125,-0.6323089599609375,0.08221435546875
0.061981201171875,-0.5500946044921875,0.2155914306640625
0.0681304931640625,-0.3056182861328125,0.430023193359375
0.4029693603515625,0.15216064453125,0.3105316162109375
0.3091583251953125,0.892791748046875,0.415313720703125
-0.0015106201171875,1.5235595703125,0.923248291015625
-0.5474090576171875,1.4535675048828125,1.1488800048828125
0.061187744140625,0.40875244140625,0.09619140625
0.0758514404296875,0.06097412109375,-0.0308837890625
0.0492401123046875,0.052276611328125,-0.0323486328125
0.0539398193359375,0.047882080078125,-0.01385498046875
-7.9196624755859375,-7.201919555664063,-7.130889892578125
0.59454345703125,1.3159027099609375,-0.1802520751953125
0.3377227783203125,0.1855010986328125,0.0359344482421875
0.3331146240234375,0.16314697265625,0.0207672119140625
0.4587860107421875,0.0995330810546875,-0.2481842041015625
1.0747528076171875,0.175079345703125,-0.1137237548828125
1.325836181640625,0.77642822265625,0.4515380859375
0.8464508056640625,0.3946990966796875,0.6127166748046875
0.8169708251953125,0.0715789794921875,0.534576416015625
-0.1709136962890625,-0.131805419921875,0.178680419921875
-1.67474365234375,0.247344970703125,0.158447265625
-0.592041015625,0.65753173828125,0.0622100830078125
0.206695556640625,0.352447509765625,-0.0031585693359375
0.4093475341796875,0.1950225830078125,0.020751953125
0.792510986328125,0.341278076171875,-0.9201202392578124
1.944549560546875,3.02679443359375,-0.9057464599609376
0.0717926025390625,0.1636505126953125,0.0067291259765625
0.0643310546875,0.155364990234375,0.00445556640625
0.0585784912109375,0.1466827392578125,0.001708984375
0.1394500732421875,0.07220458984375,-0.1020660400390625
1.3877105712890625,-0.46258544921875,-0.2229156494140625
-4.762496948242188,1.5914459228515625,-0.6558837890625
0.0128631591796875,0.0064849853515625,0.0063629150390625
-0.0897979736328125,-0.121612548828125,0.45928955078125
0.2985992431640625,-0.08782958984375,0.0609893798828125
-0.3734283447265625,1.2128448486328125,-1.7257232666015625
-0.1224212646484375,-0.299346923828125,0.286865234375
0.04461669921875,0.001983642578125,-1.5052337646484375
-0.0888824462890625,-0.17022705078125,0.2303314208984375
0.1209259033203125,0.0235595703125,-2.0824432373046875
0.010498046875,-0.257781982421875,-0.21160888671875
0.03948974609375,-0.041595458984375,-0.989776611328125
0.025177001953125,0.016693115234375,-1.326263427734375
0.00262451171875,0.006591796875,-1.025177001953125
-6.103515625e-05,-0.01422119140625,-0.9446868896484376
0.02532958984375,-0.0399322509765625,-1.0229949951171875
0.032135009765625,-0.0450897216796875,-1.0166015625
0.0139312744140625,-0.0336151123046875,-0.9967193603515624
0.012908935546875,-0.05126953125,-0.987884521484375
0.015838623046875,-0.0356292724609375,-0.9913787841796876
0.0401763916015625,-0.0064697265625,-1.015289306640625
-0.0009918212890625,-0.055755615234375,-0.984100341796875
-0.0033111572265625,-0.0566253662109375,-0.96868896484375
