AccelerationX,AccelerationY,AccelerationZ
-0.201690673828125,0.693115234375,-0.7533111572265625
-0.2635040283203125,0.662353515625,-0.687835693359375
-0.320037841796875,0.6550750732421875,-0.5955810546875
-0.32122802734375,0.6851654052734375,-0.6478271484375
-0.3030242919921875,0.675689697265625,-0.6907806396484375
-0.2916412353515625,0.6600189208984375,-0.6629486083984375
-0.304107666015625,0.6831512451171875,-0.6688385009765625
-0.3112945556640625,0.680908203125,-0.662078857421875
-0.314208984375,0.6968994140625,-0.6368865966796875
-0.3189849853515625,0.7226104736328125,-0.684600830078125
-0.31304931640625,0.6991424560546875,-0.6611785888671875
-0.2893829345703125,0.67022705078125,-0.5555267333984375
-0.2963714599609375,0.6659393310546875,-0.5900726318359375
-0.3858184814453125,0.6733245849609375,-0.5272674560546875
-0.4124908447265625,0.6933441162109375,-0.4937744140625
-0.349395751953125,0.7164764404296875,-0.2774810791015625
-0.1942901611328125,0.849090576171875,-0.347137451171875
-0.1812286376953125,0.8819580078125,-0.49188232421875
-0.3933868408203125,0.8163299560546875,-0.206451416015625
-0.6987762451171875,0.8716278076171875,-0.3256378173828125
-0.69512939453125,0.7729034423828125,-0.329498291015625
-0.6905670166015625,0.751739501953125,-0.36376953125
-0.61883544921875,0.8016204833984375,-0.26702880859375
-0.705963134765625,0.810089111328125,-0.27899169921875
-0.767486572265625,0.7829132080078125,-0.106201171875
-0.8396759033203125,0.7874603271484375,-0.069366455078125
-0.856658935546875,0.8704376220703125,-0.007720947265625
-0.710418701171875,0.8059539794921875,0.0618896484375
-0.736724853515625,0.8104095458984375,0.0637664794921875
-0.6976470947265625,0.8225250244140625,0.2496185302734375
-0.7974090576171875,0.9355621337890624,0.1865081787109375
-0.829620361328125,0.90362548828125,-0.0986785888671875
-0.805328369140625,0.760467529296875,-0.0027923583984375
-0.78436279296875,0.941162109375,-0.12127685546875
-0.6578216552734375,1.0503082275390625,-0.218841552734375
-0.5625,0.9106292724609376,-0.100311279296875
-0.547607421875,0.782958984375,-0.0446319580078125
-0.53643798828125,0.7455902099609375,-0.0585784912109375
-0.493408203125,0.8007659912109375,0.0315704345703125
-0.4473114013671875,0.6720123291015625,0.2718963623046875
-0.21197509765625,0.7001800537109375,0.1815338134765625
-0.284576416015625,0.7998504638671875,0.09429931640625
-0.434051513671875,0.8909759521484375,0.2402496337890625
-0.4740753173828125,0.946807861328125,0.330078125
-0.6455841064453125,0.9652252197265624,0.347564697265625
-0.58624267578125,1.1474151611328125,0.1763916015625
-0.645050048828125,0.9301910400390624,0.0090789794921875
-0.73016357421875,0.768585205078125,0.0825347900390625
-0.704559326171875,0.8839569091796875,0.2058258056640625
-0.7242584228515625,0.9379730224609376,0.0653533935546875
-0.7959747314453125,0.761627197265625,-0.00482177734375
-0.79071044921875,0.62408447265625,0.0240631103515625
-0.72662353515625,0.642242431640625,0.07476806640625
-0.6282196044921875,0.6680450439453125,0.1267547607421875
-0.5855255126953125,0.7048492431640625,0.06085205078125
-0.615966796875,0.767547607421875,0.0479736328125
-0.675323486328125,0.843170166015625,0.058837890625
-0.6782073974609375,0.92645263671875,0.011474609375
-0.6951141357421875,0.907745361328125,0.00274658203125
-0.758758544921875,0.99688720703125,0.0655059814453125
-0.689788818359375,1.122222900390625,0.0768890380859375
-0.5711669921875,0.9800567626953124,0.0500030517578125
-0.6260986328125,0.8889923095703125,0.0413818359375
-0.640716552734375,0.9889068603515624,-0.04827880859375
-0.5656280517578125,1.0504150390625,-0.149444580078125
-0.5092010498046875,0.887725830078125,-0.1380615234375
-0.5238037109375,0.7577667236328125,0.063232421875
-0.4530181884765625,0.7641448974609375,0.0729522705078125
-0.351409912109375,0.768402099609375,0.053741455078125
-0.3031768798828125,0.7222442626953125,0.130340576171875
-0.305908203125,0.7607421875,0.15264892578125
-0.3555145263671875,0.831573486328125,0.14776611328125
-0.406585693359375,0.8747711181640625,0.1641082763671875
-0.49066162109375,0.90252685546875,0.1666259765625
-0.5762176513671875,1.0181427001953125,0.1587982177734375
-0.4931793212890625,1.106903076171875,0.0298309326171875
-0.5308990478515625,0.830047607421875,-0.000762939453125
-0.70068359375,0.809295654296875,0.1303863525390625
-0.6865081787109375,0.97320556640625,0.07000732421875
-0.77032470703125,0.95819091796875,-0.01885986328125
-0.835418701171875,0.76300048828125,-0.0059967041015625
-0.846893310546875,0.66925048828125,-0.0391845703125
-0.7767791748046875,0.6905517578125,-0.0651397705078125
-0.7020111083984375,0.7029571533203125,-0.030181884765625
-0.7085723876953125,0.70111083984375,-0.042816162109375
-0.7674407958984375,0.756103515625,0.031280517578125
-0.80450439453125,0.8402557373046875,0.0021820068359375
-0.7677154541015625,0.8973541259765625,-0.0970001220703125
-0.7465057373046875,0.9456024169921876,-0.0796966552734375
-0.7679595947265625,1.1823272705078125,0.0108489990234375
-0.579498291015625,1.091033935546875,-3.0517578125e-05
-0.6390533447265625,0.9784698486328124,-0.1277923583984375
-0.701751708984375,1.0488128662109375,-0.2148590087890625
-0.617156982421875,1.0457916259765625,-0.13031005859375
-0.5192108154296875,0.918182373046875,-0.09332275390625
-0.49298095703125,0.843780517578125,-0.0905914306640625
-0.431854248046875,0.8136444091796875,-0.0359649658203125
-0.38079833984375,0.800628662109375,0.0431365966796875
-0.3734588623046875,0.7980194091796875,0.0157928466796875
-0.35784912109375,0.792510986328125,0.06787109375
-0.39007568359375,0.882659912109375,0.1563720703125
-0.3422393798828125,0.9555511474609376,0.1188201904296875
-0.391571044921875,0.9327239990234376,0.0478668212890625
-0.444549560546875,1.0423583984375,0.1051177978515625
-0.4562530517578125,0.9235992431640624,0.00213623046875
-0.5843353271484375,0.8036041259765625,0.0935211181640625
-0.5491180419921875,0.9855194091796876,0.0273590087890625
-0.5138397216796875,1.06842041015625,-0.04522705078125
-0.618927001953125,0.893585205078125,-0.037689208984375
-0.716400146484375,0.7697906494140625,-0.01470947265625
-0.7527008056640625,0.7937469482421875,-0.08929443359375
-0.813140869140625,0.7465057373046875,-0.09112548828125
-0.8688812255859375,0.7123565673828125,-0.098480224609375
-0.815643310546875,0.746734619140625,-0.0712432861328125
-0.7574005126953125,0.819061279296875,-0.071868896484375
-0.7270660400390625,0.8609466552734375,-0.078399658203125
-0.724212646484375,0.8218231201171875,-0.039886474609375
-0.761383056640625,0.9958038330078124,-0.017791748046875
-0.68853759765625,1.0620574951171875,-0.145843505859375
-0.7685546875,1.013946533203125,-0.0863494873046875
-0.856048583984375,1.117279052734375,-0.1111602783203125
-0.7227783203125,1.1164703369140625,-0.1759033203125
-0.606689453125,1.0275726318359375,-0.2151031494140625
-0.5290069580078125,0.9505615234375,-0.1458892822265625
-0.4520416259765625,0.9388580322265624,-0.0970611572265625
-0.34930419921875,0.8470916748046875,0.019256591796875
-0.29034423828125,0.7439117431640625,0.0300140380859375
-0.2759552001953125,0.725006103515625,0.0605316162109375
-0.262725830078125,0.68524169921875,0.03741455078125
-0.3361663818359375,0.80755615234375,0.0614013671875
-0.38134765625,0.8525848388671875,0.0462493896484375
-0.5661163330078125,0.9381256103515624,0.039398193359375
-0.51068115234375,0.9852752685546876,0.0473175048828125
-0.5154571533203125,0.94903564453125,-0.091033935546875
-0.675323486328125,0.97027587890625,-0.0845794677734375
-0.78497314453125,0.99658203125,0.0125732421875
-0.83319091796875,0.9230804443359376,0.038299560546875
-0.7952117919921875,0.718719482421875,0.0526275634765625
-0.8058319091796875,0.6375579833984375,0.0840301513671875
-0.752197265625,0.6887664794921875,0.0701446533203125
-0.6939849853515625,0.6996612548828125,0.0384368896484375
-0.6943511962890625,0.6854400634765625,-0.012176513671875
-0.699554443359375,0.6901397705078125,-0.0042877197265625
-0.746917724609375,0.73858642578125,-0.0210113525390625
-0.786163330078125,0.7849884033203125,-0.0451812744140625
-0.7445068359375,0.7758941650390625,-0.028106689453125
-0.8925628662109375,0.9186859130859376,0.035186767578125
-0.8806610107421875,1.033447265625,0.024261474609375
-0.82952880859375,0.8285064697265625,0.026824951171875
-0.923736572265625,0.801605224609375,0.015289306640625
-0.838714599609375,0.988922119140625,-0.1025543212890625
-0.6615142822265625,1.024871826171875,-0.080322265625
-0.5774383544921875,0.90997314453125,0.0390777587890625
-0.4959259033203125,0.817596435546875,0.0049896240234375
-0.4387054443359375,0.798004150390625,-0.039947509765625
-0.3610992431640625,0.7652435302734375,0.048980712890625
-0.3083343505859375,0.686126708984375,0.119415283203125
-0.3217315673828125,0.641937255859375,0.0996551513671875
-0.36468505859375,0.7265625,0.0616455078125
-0.3703460693359375,0.8430023193359375,0.0679168701171875
-0.4454345703125,0.8482666015625,0.0265045166015625
-0.556243896484375,1.0424652099609375,0.073822021484375
-0.596099853515625,1.06658935546875,-0.11834716796875
-0.71417236328125,0.8760986328125,-0.2531585693359375
-0.8764801025390625,0.8396759033203125,-0.212127685546875
-0.864532470703125,0.869415283203125,-0.2267913818359375
-0.8810577392578125,0.7503814697265625,-0.2263031005859375
-0.88592529296875,0.629364013671875,-0.1203155517578125
-0.788116455078125,0.6598052978515625,-0.054534912109375
-0.70953369140625,0.710693359375,-0.0556793212890625
-0.6882781982421875,0.752777099609375,0.008331298828125
-0.6513824462890625,0.7660064697265625,0.084625244140625
-0.658203125,0.8269805908203125,-0.01556396484375
-0.69390869140625,0.878326416015625,-0.0573272705078125
-0.673431396484375,0.8401336669921875,0.014251708984375
-0.6835784912109375,0.8432464599609375,-0.011260986328125
-0.688690185546875,0.947845458984375,-0.083984375
-0.6998291015625,0.8551788330078125,-0.167266845703125
-0.7171630859375,0.6747283935546875,-0.191619873046875
-0.7009429931640625,0.83258056640625,-0.2179107666015625
-0.6578826904296875,0.964691162109375,-0.2426605224609375
-0.555023193359375,0.799407958984375,-0.2508392333984375
-0.5318450927734375,0.7176361083984375,-0.2764892578125
-0.466064453125,0.7417144775390625,-0.2486419677734375
-0.409637451171875,0.7957611083984375,-0.1491851806640625
-0.3389739990234375,0.784393310546875,-0.0827789306640625
-0.3896026611328125,0.7753143310546875,0.02581787109375
-0.4995880126953125,0.8823089599609375,0.0708160400390625
-0.5746612548828125,1.01580810546875,0.0016021728515625
-0.5484161376953125,0.909393310546875,-0.09283447265625
-0.5676422119140625,0.8154296875,-0.0934906005859375
-0.541748046875,0.9241485595703124,0.03521728515625
-0.48211669921875,0.793914794921875,0.0161285400390625
-0.6362457275390625,0.8277435302734375,-0.0066375732421875
-0.7203826904296875,0.958587646484375,-0.0727996826171875
-0.73175048828125,0.888397216796875,-0.1267852783203125
-0.7374114990234375,0.667999267578125,-0.115966796875
-0.7416839599609375,0.6258697509765625,-0.0206451416015625
-0.707855224609375,0.674346923828125,0.0200347900390625
-0.66253662109375,0.7113189697265625,-0.0290069580078125
-0.6492156982421875,0.70904541015625,-0.1019439697265625
-0.6849212646484375,0.7421112060546875,-0.1627349853515625
-0.72369384765625,0.84320068359375,-0.1634674072265625
-0.7248992919921875,0.9153594970703124,-0.1558074951171875
-0.709686279296875,0.8814544677734375,-0.1389007568359375
-0.7664337158203125,0.9924163818359376,-0.0931396484375
-0.695281982421875,1.1082000732421875,-0.111968994140625
-0.58001708984375,0.970672607421875,-0.17425537109375
-0.690460205078125,0.9351806640625,-0.1216583251953125
-0.6917877197265625,0.9942474365234376,-0.1513214111328125
-0.6087188720703125,0.982177734375,-0.2068634033203125
-0.529541015625,0.83367919921875,-0.15093994140625
-0.5222930908203125,0.7475738525390625,-0.0561065673828125
-0.4686126708984375,0.777618408203125,-0.068267822265625
-0.36248779296875,0.7939453125,-0.08612060546875
-0.2605133056640625,0.7435760498046875,-0.043304443359375
-0.2606201171875,0.721710205078125,0.0326080322265625
-0.3265228271484375,0.8195343017578125,0.047210693359375
-0.4033050537109375,0.857147216796875,-0.0504913330078125
-0.5761871337890625,0.883544921875,0.026336669921875
-0.58685302734375,1.0797119140625,0.105499267578125
-0.5566558837890625,1.05377197265625,-0.1944732666015625
-0.71307373046875,0.904998779296875,-0.2236175537109375
-0.80999755859375,0.92205810546875,-0.1092529296875
-0.7965240478515625,0.8902130126953125,-0.08203125
-0.77349853515625,0.7360076904296875,-0.0873870849609375
-0.732208251953125,0.65692138671875,-0.0435943603515625
-0.6467742919921875,0.6868896484375,0.0069580078125
-0.5801849365234375,0.7197418212890625,-0.043212890625
-0.574951171875,0.710113525390625,-0.119140625
-0.6164093017578125,0.7321319580078125,-0.0987091064453125
-0.702392578125,0.7905426025390625,-0.0584564208984375
-0.7298126220703125,0.82635498046875,-0.047393798828125
-0.72900390625,0.8150787353515625,-0.1171417236328125
-0.789459228515625,0.916534423828125,-0.05615234375
-0.78253173828125,1.0642242431640625,-0.0517120361328125
-0.62017822265625,0.96484375,-0.12060546875
-0.641265869140625,0.809967041015625,-0.1334228515625
-0.7266998291015625,0.847625732421875,-0.0559234619140625
-0.6453094482421875,0.90887451171875,-0.0681610107421875
-0.5921783447265625,0.8720550537109375,-0.2037353515625
-0.642852783203125,0.7973480224609375,-0.2071380615234375
-0.594970703125,0.783203125,-0.142364501953125
-0.4802398681640625,0.8057708740234375,-0.1073455810546875
-0.3740692138671875,0.7859039306640625,-0.0839080810546875
-0.3053741455078125,0.7187652587890625,-0.0443878173828125
-0.295501708984375,0.7052459716796875,-0.0451507568359375
-0.3312225341796875,0.8003997802734375,-0.0568695068359375
-0.3570556640625,0.8367919921875,-0.0540313720703125
-0.542694091796875,0.89959716796875,-0.02520751953125
-0.571441650390625,1.053466796875,-0.040130615234375
-0.589080810546875,0.97216796875,-0.194061279296875
-0.6904449462890625,0.8492431640625,-0.1329193115234375
-0.79339599609375,0.8551025390625,0.071319580078125
-0.907684326171875,0.92291259765625,0.0850982666015625
-0.9524383544921876,0.8260498046875,-0.015411376953125
-0.9369659423828124,0.7148284912109375,-0.0976409912109375
-0.80706787109375,0.70721435546875,-0.112335205078125
-0.6755218505859375,0.735443115234375,-0.0616607666015625
-0.592987060546875,0.7516021728515625,-0.0594940185546875
-0.5594635009765625,0.7841796875,-0.1464691162109375
-0.61578369140625,0.8342437744140625,-0.1920928955078125
-0.640625,0.8425445556640625,-0.112884521484375
-0.63153076171875,0.8329315185546875,-0.0828399658203125
-0.595367431640625,0.80096435546875,-0.0921173095703125
-0.556304931640625,0.816009521484375,-0.1068115234375
-0.50640869140625,0.84490966796875,-0.149444580078125
-0.483489990234375,0.921630859375,-0.1946868896484375
-0.47601318359375,0.8741607666015625,-0.180511474609375
-0.4830169677734375,0.7835845947265625,-0.1167755126953125
-0.4653167724609375,0.7334747314453125,-0.1041717529296875
-0.406005859375,0.7469635009765625,-0.20263671875
-0.3797149658203125,0.8014678955078125,-0.3262481689453125
-0.414337158203125,0.8160552978515625,-0.382171630859375
-0.6014404296875,0.8126678466796875,-0.4309234619140625
-0.7320404052734375,0.7823486328125,-0.43267822265625
-0.75396728515625,0.7996978759765625,-0.2866058349609375
-0.8656158447265625,0.8764495849609375,-0.2681884765625
-0.8888702392578125,0.86590576171875,-0.344757080078125
-0.91473388671875,0.8699188232421875,-0.3499908447265625
-0.855682373046875,0.86810302734375,-0.257537841796875
-0.8231353759765625,0.8699188232421875,-0.2747344970703125
-0.80023193359375,0.854583740234375,-0.3673095703125
-0.74139404296875,0.8718719482421875,-0.353363037109375
-0.629730224609375,0.8802490234375,-0.248260498046875
-0.5251617431640625,0.844635009765625,-0.248260498046875
-0.444091796875,0.7747802734375,-0.261077880859375
-0.3865966796875,0.7585906982421875,-0.1984405517578125
-0.3389434814453125,0.7908782958984375,-0.1364898681640625
-0.2308197021484375,0.7333221435546875,-0.1236419677734375
-0.3218536376953125,0.7338714599609375,-0.1370086669921875
-0.4438018798828125,0.771148681640625,-0.0583953857421875
-0.445953369140625,0.8674468994140625,0.1597900390625
-0.4525604248046875,0.9480743408203124,0.1347503662109375
-0.4874114990234375,0.9163360595703124,0.116119384765625
-0.584320068359375,0.927764892578125,0.014312744140625
-0.6172027587890625,0.9364471435546876,0.0257110595703125
-0.6419219970703125,0.9083709716796876,0.175384521484375
-0.72430419921875,0.8660736083984375,0.250732421875
-0.7629241943359375,0.8653717041015625,0.141693115234375
-0.7320098876953125,0.841522216796875,0.048614501953125
-0.7222137451171875,0.796539306640625,-0.0123748779296875
-0.7445831298828125,0.8101348876953125,-0.03839111328125
-0.746185302734375,0.776702880859375,-0.0669708251953125
-0.8659210205078125,0.8847503662109375,-0.090972900390625
-0.8454132080078125,1.021148681640625,-0.137603759765625
-0.8090057373046875,0.880096435546875,-0.07525634765625
-0.84539794921875,1.00030517578125,-0.1776275634765625
-0.7513275146484375,1.0352020263671875,-0.1988983154296875
-0.6829376220703125,0.9562530517578124,-0.234954833984375
-0.6379241943359375,0.9389190673828124,-0.2093963623046875
-0.5343170166015625,0.9297332763671876,-0.1669769287109375
-0.4259796142578125,0.91436767578125,-0.15386962890625
-0.3291778564453125,0.870574951171875,-0.1017608642578125
-0.268280029296875,0.82623291015625,-0.0677490234375
-0.2496795654296875,0.86407470703125,-0.056915283203125
-0.24462890625,0.9108734130859376,-0.0094757080078125
-0.3152618408203125,0.84759521484375,0.0205078125
-0.4867401123046875,0.9068145751953124,0.128509521484375
-0.445220947265625,1.0387420654296875,0.1954803466796875
-0.4521484375,0.952423095703125,-0.1106719970703125
-0.6791229248046875,0.9660186767578124,-0.1132354736328125
-0.74884033203125,0.9675140380859376,0.012481689453125
-0.7281036376953125,0.8489990234375,0.0179290771484375
-0.69403076171875,0.7140655517578125,-0.010345458984375
-0.624664306640625,0.714447021484375,-0.0384521484375
-0.5459136962890625,0.741241455078125,-0.0535125732421875
-0.534210205078125,0.7093658447265625,-0.046905517578125
-0.595306396484375,0.7112884521484375,-0.03509521484375
-0.6749114990234375,0.8532562255859375,-0.0712432861328125
-0.7681884765625,0.9307098388671876,-0.1100616455078125
-0.8590087890625,0.80517578125,-0.0770416259765625
-1.011444091796875,0.9608306884765624,-0.075103759765625
-0.89703369140625,1.034149169921875,-0.111846923828125
-0.728302001953125,0.8266754150390625,-0.02337646484375
-0.7359771728515625,0.8588104248046875,-0.0205230712890625
-0.722503662109375,0.975799560546875,-0.1236724853515625
-0.6692352294921875,0.9884490966796876,-0.175445556640625
-0.634185791015625,0.915252685546875,-0.118408203125
-0.5962066650390625,0.874542236328125,-0.0446014404296875
-0.5002288818359375,0.90887451171875,-0.048004150390625
-0.34344482421875,0.868133544921875,-0.022613525390625
-0.2602996826171875,0.780487060546875,0.020294189453125
-0.263671875,0.77008056640625,-0.02801513671875
-0.27911376953125,0.8252410888671875,-0.022369384765625
-0.298828125,0.810546875,0.0191192626953125
-0.4378509521484375,0.8226318359375,-0.0390625
-0.440704345703125,1.1070098876953125,-0.002899169921875
-0.4091949462890625,1.1082611083984375,-0.264923095703125
-0.5998687744140625,0.95501708984375,-0.30438232421875
-0.8075103759765625,0.9395599365234376,-0.19482421875
-0.8798980712890625,0.930023193359375,-0.1343536376953125
-0.8106536865234375,0.75341796875,-0.0656280517578125
-0.7803192138671875,0.657135009765625,-0.041107177734375
-0.6475677490234375,0.6971893310546875,-0.042633056640625
-0.5857696533203125,0.7237091064453125,-0.0470123291015625
-0.6012725830078125,0.7097015380859375,-0.0272674560546875
-0.692596435546875,0.7227630615234375,-0.052978515625
-0.82293701171875,0.818084716796875,-0.1188507080078125
-0.8889617919921875,0.8502044677734375,-0.077392578125
-0.87481689453125,0.8437347412109375,-0.0255126953125
-0.8415679931640625,0.8376922607421875,-0.0562286376953125
-0.8366851806640625,0.9349365234375,-0.0821685791015625
-0.7958984375,1.0139312744140625,-0.130889892578125
-0.702911376953125,0.8758392333984375,-0.0899505615234375
-0.705352783203125,0.9539031982421876,-0.0636444091796875
-0.6069488525390625,1.098175048828125,-0.1431732177734375
-0.452606201171875,0.9829254150390624,-0.1699371337890625
-0.43524169921875,0.7864532470703125,-0.180389404296875
-0.396728515625,0.697479248046875,-0.1316680908203125
-0.36590576171875,0.6691436767578125,-0.063446044921875
-0.3328094482421875,0.657928466796875,-0.0100555419921875
-0.34307861328125,0.69158935546875,0.04290771484375
-0.350433349609375,0.73553466796875,0.0383453369140625
-0.3953399658203125,0.8328857421875,-0.014617919921875
-0.4231414794921875,0.9573211669921876,-0.0719757080078125
-0.5576171875,1.0264129638671875,-0.0996551513671875
-0.6352996826171875,1.21075439453125,-0.0894012451171875
-0.6053009033203125,1.0277252197265625,-0.222198486328125
-0.7705535888671875,0.8212890625,-0.16961669921875
-0.9192047119140624,0.89776611328125,-0.10028076171875
-0.9566650390625,0.890625,-0.1164093017578125
-0.8804473876953125,0.7311553955078125,-0.1787109375
-0.7333831787109375,0.6078033447265625,-0.1311798095703125
-0.62554931640625,0.6412353515625,-0.0275421142578125
-0.51788330078125,0.647186279296875,0.000946044921875
-0.509002685546875,0.7053070068359375,0.0016326904296875
-0.6734161376953125,0.7648162841796875,-0.0401458740234375
-0.800262451171875,0.8462371826171875,-0.0538177490234375
-0.8288421630859375,0.9159088134765624,-0.134368896484375
-0.8132171630859375,0.9321746826171876,-0.2077178955078125
-0.8527069091796875,1.145355224609375,-0.1685943603515625
-0.752471923828125,1.1924591064453125,-0.2306671142578125
-0.6110992431640625,0.9167022705078124,-0.21258544921875
-0.6834259033203125,0.95623779296875,-0.1327667236328125
-0.6091766357421875,1.00823974609375,-0.1071929931640625
-0.437896728515625,0.9632110595703124,-0.165985107421875
-0.373016357421875,0.8052520751953125,-0.1728668212890625
-0.409942626953125,0.70489501953125,-0.106414794921875
-0.402069091796875,0.707977294921875,-0.078857421875
-0.3116912841796875,0.718170166015625,-0.04534912109375
-0.2745361328125,0.7105712890625,0.0044097900390625
-0.31634521484375,0.76788330078125,0.0534515380859375
-0.3908538818359375,0.903228759765625,0.0194854736328125
-0.43731689453125,0.87506103515625,0.015869140625
-0.6131134033203125,1.0399322509765625,0.120269775390625
-0.576751708984375,1.1360931396484375,-0.07904052734375
-0.629608154296875,0.9415740966796876,-0.221923828125
-0.7814483642578125,1.0087432861328125,-0.1180419921875
-0.8278961181640625,0.9769287109375,-0.0857696533203125
-0.8006744384765625,0.769378662109375,-0.0786895751953125
-0.788848876953125,0.64093017578125,-0.0493011474609375
-0.679473876953125,0.6714019775390625,-0.0350799560546875
-0.580963134765625,0.7237548828125,-0.0124969482421875
-0.549102783203125,0.68646240234375,-0.01202392578125
-0.6026458740234375,0.710174560546875,0.0027313232421875
-0.7433319091796875,0.802337646484375,-0.0132904052734375
-0.8195343017578125,0.8541717529296875,-0.0489349365234375
-0.8770599365234375,0.8172454833984375,-0.0808258056640625
-0.935943603515625,0.8785247802734375,-0.10443115234375
-0.8798065185546875,1.0944061279296875,-0.1238861083984375
-0.725006103515625,1.0459747314453125,-0.11712646484375
-0.7019805908203125,0.880126953125,-0.094207763671875
-0.6883544921875,0.9607696533203124,-0.140777587890625
-0.55511474609375,1.016845703125,-0.1501617431640625
-0.40802001953125,0.9174041748046876,-0.182098388671875
-0.3939361572265625,0.784881591796875,-0.1675872802734375
-0.3808135986328125,0.7393646240234375,-0.132354736328125
-0.3143310546875,0.7138214111328125,-0.0973358154296875
-0.2641754150390625,0.69146728515625,-0.0548553466796875
-0.2761688232421875,0.6772003173828125,-0.01251220703125
-0.35467529296875,0.744964599609375,0.03277587890625
-0.4078521728515625,0.92291259765625,0.0213623046875
-0.3955230712890625,0.9597930908203124,-0.01153564453125
-0.62786865234375,1.0868072509765625,0.0601348876953125
-0.616455078125,1.215789794921875,-0.053863525390625
-0.6027069091796875,1.160980224609375,-0.313690185546875
-0.7264251708984375,0.9257049560546876,-0.1981964111328125
-0.8481903076171875,0.822723388671875,0.001983642578125
-0.84259033203125,0.7817840576171875,-0.00164794921875
-0.7077484130859375,0.65966796875,-0.0633392333984375
-0.597320556640625,0.66802978515625,-0.1289520263671875
-0.512786865234375,0.7193145751953125,-0.0837554931640625
-0.483642578125,0.7332000732421875,-0.0813446044921875
-0.496612548828125,0.7174530029296875,-0.07037353515625
-0.6222991943359375,0.7761077880859375,-0.0257568359375
-0.736968994140625,0.8883819580078125,-0.021636962890625
-0.7808990478515625,0.8974151611328125,-0.120635986328125
-0.8589324951171875,0.9419708251953124,-0.10284423828125
-0.8193359375,1.1052398681640625,-0.0569305419921875
-0.7099456787109375,0.888336181640625,-0.0667877197265625
-0.8056640625,0.8684234619140625,-0.0458221435546875
-0.7825775146484375,1.0102691650390625,0.005340576171875
-0.666229248046875,1.0951690673828125,-0.015777587890625
-0.5705108642578125,1.0288238525390625,-0.021728515625
-0.4869537353515625,0.9258880615234376,-0.0081634521484375
-0.40966796875,0.86541748046875,0.0166778564453125
-0.29193115234375,0.79132080078125,0.1618804931640625
-0.2592620849609375,0.7327728271484375,0.1859283447265625
-0.27276611328125,0.7230072021484375,0.024627685546875
-0.2554473876953125,0.7774810791015625,0.01580810546875
-0.326934814453125,0.9052276611328124,-0.0263214111328125
-0.3887939453125,0.9624176025390624,-0.1613311767578125
-0.53729248046875,1.0817413330078125,-0.209075927734375
-0.4880828857421875,1.1140899658203125,-0.23687744140625
-0.6134033203125,1.0292510986328125,-0.2833404541015625
-0.8106689453125,1.028228759765625,-0.2481842041015625
-0.83709716796875,0.9423828125,-0.2538909912109375
-0.7982025146484375,0.77880859375,-0.2948760986328125
-0.77044677734375,0.7134246826171875,-0.29681396484375
-0.670501708984375,0.7949066162109375,-0.1512908935546875
-0.6102447509765625,0.7900238037109375,-0.1059417724609375
-0.565521240234375,0.711029052734375,-0.0780487060546875
-0.6390228271484375,0.7115478515625,-0.0443115234375
-0.7591705322265625,0.8298797607421875,-0.0269775390625
-0.8104705810546875,0.8969573974609375,-0.117828369140625
-0.826019287109375,0.821868896484375,-0.1579742431640625
-0.9211883544921876,0.9304351806640624,-0.1267547607421875
-0.809906005859375,1.0100555419921875,-0.042144775390625
-0.73114013671875,0.891998291015625,-0.0799407958984375
-0.786346435546875,0.9925689697265624,-0.2012176513671875
-0.7711181640625,1.0861968994140625,-0.2032470703125
-0.6866455078125,1.0634613037109375,-0.2490081787109375
-0.598052978515625,0.9998321533203124,-0.2279205322265625
-0.4987945556640625,0.943359375,-0.1612548828125
-0.3774871826171875,0.9052581787109376,-0.130157470703125
-0.2593231201171875,0.84649658203125,-0.124298095703125
-0.2228546142578125,0.781463623046875,-0.0762939453125
-0.2542572021484375,0.7730255126953125,-0.03515625
-0.2806549072265625,0.8303680419921875,-0.0006561279296875
-0.2464752197265625,0.804046630859375,-0.0058746337890625
-0.4389190673828125,0.917266845703125,-0.0084991455078125
-0.4369659423828125,0.9923553466796876,0.0618133544921875
-0.4608917236328125,0.95697021484375,-0.0874481201171875
-0.6344757080078125,1.0735321044921875,-0.1295166015625
-0.720489501953125,1.1064910888671875,-0.0511322021484375
-0.777099609375,0.97381591796875,-0.017059326171875
-0.810455322265625,0.7972564697265625,-0.0488433837890625
-0.7800750732421875,0.7436065673828125,-0.0950164794921875
-0.71240234375,0.770355224609375,-0.05511474609375
-0.6974945068359375,0.7542877197265625,-0.0449676513671875
-0.6600341796875,0.7671051025390625,-0.0531158447265625
-0.6551513671875,0.760223388671875,-0.0983734130859375
-0.7291259765625,0.82733154296875,-0.086090087890625
-0.7923736572265625,0.8466796875,-0.0577545166015625
-0.8318634033203125,0.8257904052734375,-0.1055755615234375
-0.8463592529296875,0.9324188232421876,-0.16644287109375
-0.744720458984375,0.9860992431640624,-0.15753173828125
-0.6627655029296875,0.92022705078125,-0.126434326171875
-0.7429656982421875,0.98431396484375,-0.109130859375
-0.7282257080078125,1.1126861572265625,-0.1503448486328125
-0.606719970703125,1.0809326171875,-0.2229766845703125
-0.5546112060546875,0.9400177001953124,-0.27288818359375
-0.53411865234375,0.8756103515625,-0.157470703125
-0.4630889892578125,0.8482513427734375,-0.0453033447265625
-0.3388214111328125,0.7930908203125,-0.0221710205078125
-0.2379302978515625,0.7302703857421875,-0.0042877197265625
-0.216644287109375,0.6929779052734375,-0.0108489990234375
-0.2385101318359375,0.735107421875,0.02850341796875
-0.2555084228515625,0.7849273681640625,0.0420684814453125
-0.3547515869140625,0.848663330078125,0.0782012939453125
-0.4498748779296875,1.031463623046875,0.10919189453125
-0.5658416748046875,1.2375030517578125,-0.0576324462890625
-0.724639892578125,1.173614501953125,-0.1765899658203125
-0.8665771484375,0.90704345703125,-0.0335235595703125
-0.988677978515625,0.836212158203125,0.0958709716796875
-1.0128021240234375,0.9272308349609376,-0.026153564453125
-0.919525146484375,0.886383056640625,-0.150543212890625
-0.795745849609375,0.7982177734375,-0.22216796875
-0.6884613037109375,0.7343597412109375,-0.1047821044921875
-0.6424407958984375,0.7114105224609375,0.0218353271484375
-0.579132080078125,0.7201385498046875,0.089263916015625
-0.5561981201171875,0.7769012451171875,0.0175628662109375
-0.6341094970703125,0.830841064453125,-0.1699981689453125
-0.6674652099609375,0.84490966796875,-0.19464111328125
-0.5886993408203125,0.8525848388671875,-0.1826629638671875
-0.4932098388671875,0.8541412353515625,-0.1590576171875
-0.4814910888671875,0.9644622802734376,-0.1932373046875
-0.392425537109375,0.981689453125,-0.224090576171875
-0.3582305908203125,0.92559814453125,-0.115936279296875
-0.4418792724609375,0.8583984375,-0.0742645263671875
-0.47918701171875,0.7883148193359375,-0.1535491943359375
-0.4802093505859375,0.7374114990234375,-0.2333221435546875
-0.465789794921875,0.7737274169921875,-0.3724365234375
-0.40142822265625,0.7893524169921875,-0.442474365234375
-0.434234619140625,0.81341552734375,-0.3674774169921875
-0.5411376953125,0.84716796875,-0.3182373046875
-0.626708984375,0.88922119140625,-0.2213287353515625
-0.7214508056640625,0.922943115234375,-0.1902313232421875
-0.7963409423828125,0.8887481689453125,-0.1869354248046875
-0.8047027587890625,0.8665313720703125,-0.1840057373046875
-0.7764739990234375,0.86309814453125,-0.226776123046875
-0.7839202880859375,0.8920440673828125,-0.248504638671875
-0.744049072265625,0.8380279541015625,-0.2384490966796875
-0.7790985107421875,0.8830108642578125,-0.3856201171875
-0.7791595458984375,0.9354248046875,-0.449310302734375
-0.72906494140625,0.95892333984375,-0.3736572265625
-0.701934814453125,0.9327545166015624,-0.3391265869140625
-0.595245361328125,0.92755126953125,-0.3248443603515625
-0.498504638671875,0.905242919921875,-0.26763916015625
-0.4284820556640625,0.8768463134765625,-0.1865386962890625
-0.29486083984375,0.860015869140625,-0.133056640625
-0.1756134033203125,0.7949371337890625,-0.13201904296875
-0.225006103515625,0.734527587890625,-0.03314208984375
-0.322265625,0.7528076171875,0.06005859375
-0.34246826171875,0.8453521728515625,0.096588134765625
-0.3426361083984375,0.8518218994140625,0.183837890625
-0.3996429443359375,0.888885498046875,0.289825439453125
-0.518798828125,0.968963623046875,0.1692657470703125
-0.608062744140625,1.006195068359375,0.103790283203125
-0.6900787353515625,0.9964599609375,0.1234283447265625
-0.726654052734375,0.9917755126953124,0.1393585205078125
-0.77374267578125,0.9959564208984376,0.0766143798828125
-0.79583740234375,0.9271697998046876,0.007232666015625
-0.8706817626953125,0.899810791015625,-0.057891845703125
-0.8816375732421875,0.8938446044921875,-0.1295318603515625
-0.87738037109375,0.820343017578125,-0.1350555419921875
-0.94927978515625,0.910125732421875,-0.1249542236328125
-0.912353515625,0.8807373046875,-0.099609375
-0.8683929443359375,0.7767333984375,-0.0690155029296875
-0.81036376953125,0.887664794921875,-0.145172119140625
-0.720733642578125,1.023895263671875,-0.1961822509765625
-0.6341705322265625,1.0792999267578125,-0.27081298828125
-0.62371826171875,1.0494384765625,-0.2188720703125
-0.6031036376953125,1.012359619140625,-0.1629791259765625
-0.5151214599609375,0.997528076171875,-0.2031097412109375
-0.403076171875,0.938812255859375,-0.222503662109375
-0.3518218994140625,0.9162139892578124,-0.1561126708984375
-0.31884765625,0.896392822265625,-0.097412109375
-0.248504638671875,0.9334716796875,-0.1046600341796875
-0.1985931396484375,0.8675689697265625,-0.071044921875
-0.3691864013671875,0.8776397705078125,0.1354217529296875
-0.311004638671875,0.889984130859375,0.164581298828125
-0.323577880859375,0.838592529296875,-0.05078125
-0.496185302734375,0.83428955078125,0.0598602294921875
-0.605804443359375,1.02630615234375,0.12567138671875
-0.6731414794921875,1.1288909912109375,-0.011749267578125
-0.736480712890625,0.9604949951171876,-0.115936279296875
-0.806488037109375,0.798431396484375,-0.1389617919921875
-0.777862548828125,0.7456512451171875,-0.1179962158203125
-0.726806640625,0.7245330810546875,-0.0279541015625
-0.7177581787109375,0.71966552734375,-0.0168914794921875
-0.8154144287109375,0.7645721435546875,-0.032958984375
-0.8590545654296875,0.8484039306640625,-0.1239471435546875
-0.8545074462890625,0.811431884765625,-0.1800689697265625
-0.904205322265625,0.7967987060546875,-0.168975830078125
-0.9202117919921876,1.0212860107421875,-0.0818634033203125
-0.7470550537109375,1.0326995849609375,-0.16754150390625
-0.60528564453125,0.85052490234375,-0.269012451171875
-0.6389923095703125,0.9272918701171876,-0.2103424072265625
-0.60107421875,1.0671234130859375,-0.147064208984375
-0.5059356689453125,1.015167236328125,-0.1580810546875
-0.5153656005859375,0.8260498046875,-0.192535400390625
-0.5025482177734375,0.781829833984375,-0.174957275390625
-0.415802001953125,0.7890625,-0.088226318359375
-0.33111572265625,0.7603759765625,-0.032867431640625
-0.2605438232421875,0.7446136474609375,0.00286865234375
-0.292388916015625,0.7860107421875,-0.02117919921875
-0.3687591552734375,0.8509674072265625,0.010223388671875
-0.38861083984375,0.884521484375,0.07421875
-0.50469970703125,1.059814453125,0.0283203125
-0.438079833984375,1.0946044921875,-0.143463134765625
-0.5445098876953125,0.8110504150390625,-0.151702880859375
-0.7336883544921875,0.9040679931640624,0.036590576171875
-0.7550201416015625,1.0430755615234375,0.0211334228515625
-0.763275146484375,0.9255523681640624,-0.104766845703125
-0.8009185791015625,0.7353057861328125,-0.10504150390625
-0.767669677734375,0.7266693115234375,-0.147308349609375
-0.6460418701171875,0.7627105712890625,-0.1090545654296875
-0.629058837890625,0.7340545654296875,-0.0677947998046875
-0.6609039306640625,0.7179107666015625,-0.0206146240234375
-0.701263427734375,0.7814483642578125,-0.149169921875
-0.7313690185546875,0.816558837890625,-0.213653564453125
-0.788848876953125,0.8187103271484375,-0.2383270263671875
-0.81451416015625,0.8881072998046875,-0.2044830322265625
-0.78167724609375,1.128875732421875,-0.194976806640625
-0.6102294921875,0.99932861328125,-0.2265472412109375
-0.6826324462890625,0.9765777587890624,-0.2292022705078125
-0.654144287109375,1.089874267578125,-0.262115478515625
-0.5105743408203125,1.022216796875,-0.30926513671875
-0.4710235595703125,0.87799072265625,-0.302337646484375
-0.4617767333984375,0.815887451171875,-0.238128662109375
-0.432098388671875,0.83154296875,-0.19244384765625
-0.3928070068359375,0.9015045166015624,-0.20843505859375
-0.3540191650390625,0.9119415283203124,-0.1935272216796875
-0.3922119140625,0.9264068603515624,-0.070343017578125
-0.4016571044921875,0.943115234375,0.0332183837890625
-0.3322296142578125,0.8887939453125,-0.1062774658203125
-0.4267120361328125,0.974090576171875,-0.0242767333984375
-0.307098388671875,0.9011077880859376,0.0436859130859375
-0.361480712890625,0.737579345703125,-0.052734375
-0.524322509765625,0.84051513671875,0.0041961669921875
-0.5340423583984375,1.028167724609375,0.0252685546875
-0.6288909912109375,0.9948577880859376,-0.078369140625
-0.6918792724609375,0.8417205810546875,-0.1046905517578125
-0.7345123291015625,0.78289794921875,-0.1172332763671875
-0.7196502685546875,0.78619384765625,-0.1154327392578125
-0.7523956298828125,0.785736083984375,-0.089324951171875
-0.7578582763671875,0.819244384765625,-0.060516357421875
-0.7533416748046875,0.835968017578125,-0.0918121337890625
-0.7632293701171875,0.8635711669921875,-0.1042327880859375
-0.7640533447265625,0.850311279296875,-0.11688232421875
-0.742706298828125,0.7790679931640625,-0.1100006103515625
-0.8280029296875,1.0442352294921875,-0.12640380859375
-0.746734619140625,0.961029052734375,-0.1021575927734375
-0.814666748046875,0.91534423828125,-0.076995849609375
-0.8286285400390625,1.0507965087890625,-0.199981689453125
-0.721771240234375,1.0800933837890625,-0.2508697509765625
-0.642486572265625,1.0044708251953125,-0.27313232421875
-0.5926055908203125,0.93121337890625,-0.165863037109375
-0.5194854736328125,0.91796875,-0.0959625244140625
-0.3835906982421875,0.8957366943359375,-0.129669189453125
-0.2679290771484375,0.868988037109375,-0.12066650390625
-0.1940460205078125,0.8228302001953125,-0.072784423828125
-0.2643280029296875,0.7742156982421875,0.0006866455078125
-0.299163818359375,0.789581298828125,0.0021514892578125
-0.3319549560546875,0.7923431396484375,-0.05194091796875
-0.442626953125,0.999603271484375,0.0973358154296875
-0.379638671875,0.948272705078125,0.066680908203125
-0.6513519287109375,1.0148468017578125,-0.02032470703125
-0.7813873291015625,1.1077728271484375,-0.0520477294921875
-0.7990570068359375,1.022491455078125,-0.0864410400390625
-0.7751007080078125,0.777862548828125,-0.0616302490234375
-0.74920654296875,0.7059783935546875,-0.1476898193359375
-0.688568115234375,0.7498626708984375,-0.128997802734375
-0.5916900634765625,0.7554779052734375,-0.0812530517578125
-0.582183837890625,0.74853515625,-0.0575103759765625
-0.585784912109375,0.77569580078125,0.0007781982421875
-0.6915740966796875,0.880340576171875,0.0316925048828125
-0.8209381103515625,0.918731689453125,-0.045501708984375
-0.9120330810546876,0.864044189453125,-0.18011474609375
-1.01416015625,0.9424591064453124,-0.3135986328125
-0.90216064453125,0.9188995361328124,-0.181884765625
-0.768341064453125,0.8448028564453125,-0.105560302734375
-0.7072601318359375,0.9799041748046876,-0.20013427734375
-0.623809814453125,1.11297607421875,-0.2386016845703125
-0.531524658203125,1.1054229736328125,-0.20611572265625
-0.45989990234375,0.977447509765625,-0.0970916748046875
-0.4507598876953125,0.874786376953125,-0.09759521484375
-0.3711090087890625,0.85858154296875,-0.1143035888671875
-0.3240509033203125,0.8226165771484375,-0.0232391357421875
-0.2209320068359375,0.7628631591796875,0.1125640869140625
-0.239166259765625,0.768768310546875,0.049774169921875
-0.295745849609375,0.8655548095703125,-0.033843994140625
-0.3525543212890625,0.965423583984375,-0.0607452392578125
-0.560943603515625,1.092071533203125,0.0092620849609375
-0.55902099609375,1.1632537841796875,-0.057647705078125
-0.4995269775390625,0.9379119873046876,-0.2371368408203125
-0.6448211669921875,0.8357086181640625,-0.157318115234375
-0.7258758544921875,0.8706207275390625,-0.0175323486328125
-0.7462921142578125,0.8321380615234375,-0.0251312255859375
-0.76373291015625,0.6856231689453125,-0.0365753173828125
-0.7035980224609375,0.6486358642578125,-0.130462646484375
-0.602081298828125,0.708587646484375,-0.222076416015625
-0.6173248291015625,0.718963623046875,-0.1689453125
-0.68841552734375,0.7478485107421875,-0.1037139892578125
-0.7645263671875,0.76873779296875,-0.049713134765625
-0.8302001953125,0.827789306640625,-0.0284576416015625
-0.857025146484375,0.8311767578125,-0.0941619873046875
-0.9068756103515624,0.946502685546875,-0.1393890380859375
-0.851287841796875,1.04315185546875,-0.2544708251953125
-0.7592620849609375,0.8518524169921875,-0.2704010009765625
-0.810333251953125,0.831512451171875,-0.1791839599609375
-0.8000030517578125,0.914276123046875,-0.219696044921875
-0.72991943359375,0.916839599609375,-0.323883056640625
-0.6887664794921875,0.8713226318359375,-0.302459716796875
-0.6526947021484375,0.86993408203125,-0.2650604248046875
-0.5655670166015625,0.850921630859375,-0.2891693115234375
-0.4737701416015625,0.8192596435546875,-0.273223876953125
-0.411346435546875,0.807220458984375,-0.24945068359375
-0.4029083251953125,0.92822265625,-0.195709228515625
-0.2678070068359375,0.961273193359375,-0.17138671875
-0.1918182373046875,0.8692626953125,-0.08380126953125
-0.189849853515625,0.8831787109375,0.013763427734375
-0.2751617431640625,0.807891845703125,-0.1939544677734375
-0.50787353515625,0.7738189697265625,0.0192108154296875
-0.5621795654296875,0.8041839599609375,0.2550811767578125
-0.5159149169921875,0.8979644775390625,0.0904693603515625
-0.476593017578125,0.885467529296875,-0.0429840087890625
-0.541748046875,0.90380859375,-0.0566864013671875
-0.6524200439453125,0.9974365234375,-0.047119140625
-0.7485504150390625,0.9874725341796876,-0.042694091796875
-0.8461456298828125,0.8873748779296875,0.0208587646484375
-0.887054443359375,0.8236541748046875,-0.013458251953125
-0.913116455078125,0.8433380126953125,-0.0240936279296875
-0.85784912109375,0.86737060546875,-0.0682525634765625
-0.8046417236328125,0.8170623779296875,-0.1371917724609375
-0.833709716796875,0.9620208740234376,-0.1627197265625
-0.746368408203125,0.8973388671875,-0.1423797607421875
-0.7705230712890625,0.8470001220703125,-0.1269073486328125
-0.78411865234375,0.9716644287109376,-0.2058258056640625
-0.7446136474609375,1.05322265625,-0.234283447265625
-0.660308837890625,1.028045654296875,-0.282745361328125
-0.564208984375,0.9783172607421876,-0.29754638671875
-0.482879638671875,0.950775146484375,-0.233551025390625
-0.449920654296875,0.9207611083984376,-0.111602783203125
-0.3665771484375,0.878173828125,-0.0445098876953125
-0.2814483642578125,0.8219451904296875,-0.0984649658203125
-0.34857177734375,0.8874969482421875,-0.168487548828125
-0.3589935302734375,0.916778564453125,-0.0711212158203125
-0.423095703125,0.8557586669921875,-0.0614776611328125
-0.455841064453125,0.994598388671875,0.0351104736328125
-0.3840484619140625,0.95465087890625,-0.0711212158203125
-0.44805908203125,0.780181884765625,-0.0841064453125
-0.565704345703125,0.8112030029296875,0.075897216796875
-0.5767822265625,0.9256744384765624,0.0290679931640625
-0.566192626953125,0.9004974365234375,-0.06817626953125
-0.5708770751953125,0.7809600830078125,-0.08251953125
-0.621002197265625,0.7449188232421875,-0.1139068603515625
-0.5699920654296875,0.798736572265625,-0.0424346923828125
-0.6065216064453125,0.8163299560546875,-0.02423095703125
-0.6526641845703125,0.823974609375,-0.0400543212890625
-0.7102203369140625,0.8446502685546875,-0.13140869140625
-0.8052520751953125,0.8857879638671875,-0.1623382568359375
-0.8778533935546875,0.8335418701171875,-0.1343994140625
-0.9964599609375,0.868927001953125,-0.1197662353515625
-0.93487548828125,0.972686767578125,-0.164581298828125
-0.786895751953125,0.9450836181640624,-0.15869140625
-0.74029541015625,0.802459716796875,-0.15753173828125
-0.72344970703125,0.8696136474609375,-0.1508331298828125
-0.667388916015625,1.0034637451171875,-0.1582183837890625
-0.606170654296875,0.9765625,-0.2150115966796875
-0.6147918701171875,0.91693115234375,-0.2136077880859375
-0.5473785400390625,0.915985107421875,-0.18524169921875
-0.443145751953125,0.9203948974609376,-0.1905517578125
-0.3288116455078125,0.8480987548828125,-0.14129638671875
-0.295318603515625,0.7776031494140625,-0.0533905029296875
-0.2576141357421875,0.7670135498046875,-0.0358734130859375
-0.289703369140625,0.814788818359375,-0.040679931640625
-0.3465728759765625,0.8175201416015625,-0.027008056640625
-0.4279632568359375,0.9686737060546876,0.0679168701171875
-0.3778533935546875,0.9679718017578124,-0.0312042236328125
-0.4758758544921875,0.838897705078125,-0.118408203125
-0.6226348876953125,0.82684326171875,0.0178070068359375
-0.6981353759765625,0.9830780029296876,-0.0170440673828125
-0.7692108154296875,1.0330810546875,-0.102630615234375
-0.839508056640625,0.871795654296875,-0.077972412109375
-0.8677520751953125,0.77618408203125,-0.087738037109375
-0.80645751953125,0.7568511962890625,-0.035675048828125
-0.7799835205078125,0.7369537353515625,0.0209503173828125
-0.743621826171875,0.7709197998046875,0.0220489501953125
-0.6792144775390625,0.80694580078125,-0.0398712158203125
-0.602996826171875,0.7948455810546875,-0.1009979248046875
-0.5800018310546875,0.7954254150390625,-0.1048431396484375
-0.5789337158203125,0.8106842041015625,-0.0617523193359375
-0.6035003662109375,0.8109893798828125,-0.0444793701171875
-0.61529541015625,0.82550048828125,-0.0220794677734375
-0.646728515625,0.9206390380859376,-0.061279296875
-0.5906829833984375,0.943115234375,-0.0908966064453125
-0.5436859130859375,0.7978057861328125,-0.0843963623046875
-0.5417327880859375,0.756683349609375,-0.078369140625
-0.5149688720703125,0.7914581298828125,-0.16351318359375
-0.467864990234375,0.7864227294921875,-0.2444000244140625
-0.4752044677734375,0.7881011962890625,-0.389190673828125
-0.45751953125,0.8089752197265625,-0.4395751953125
-0.45037841796875,0.837738037109375,-0.37841796875
-0.4694366455078125,0.81463623046875,-0.32989501953125
-0.4976654052734375,0.8507080078125,-0.334930419921875
-0.4962615966796875,0.8799591064453125,-0.3269500732421875
-0.5625,0.889007568359375,-0.2880401611328125
-0.615203857421875,0.8812255859375,-0.2017669677734375
-0.6027374267578125,0.8375244140625,-0.0849151611328125
-0.6175689697265625,0.846221923828125,-0.0380401611328125
-0.6044769287109375,0.8367462158203125,-0.086578369140625
-0.5345916748046875,0.7949981689453125,-0.1755523681640625
-0.572845458984375,0.8865509033203125,-0.25537109375
-0.5672149658203125,0.9525909423828124,-0.2283477783203125
-0.60980224609375,0.92584228515625,-0.2367401123046875
-0.6121673583984375,0.8415679931640625,-0.2736358642578125
-0.628692626953125,0.8480987548828125,-0.280303955078125
-0.6365814208984375,1.0,-0.2539215087890625
-0.552734375,1.0880889892578125,-0.2313079833984375
-0.4124298095703125,1.0023193359375,-0.151947021484375
-0.2241973876953125,0.9350738525390624,0.0361328125
-0.0177764892578125,0.9088592529296876,0.0975341796875
0.06427001953125,0.8956146240234375,0.123809814453125
-0.1307830810546875,0.907318115234375,0.1846466064453125
-0.3301849365234375,0.9259490966796876,0.2414398193359375
-0.4674224853515625,0.93914794921875,0.274993896484375
-0.5465850830078125,0.93023681640625,0.232452392578125
-0.6231231689453125,0.9248504638671876,0.2155303955078125
-0.682220458984375,0.910888671875,0.1819610595703125
-0.781158447265625,0.89447021484375,0.1529998779296875
-0.9439849853515624,0.9824981689453124,0.09613037109375
-1.0485687255859375,1.0559539794921875,-0.062469482421875
-0.99420166015625,0.770660400390625,0.016632080078125
-1.0153656005859375,0.846710205078125,-0.05450439453125
-0.813720703125,0.9553680419921876,-0.0738372802734375
-0.6868133544921875,0.930908203125,-0.1551666259765625
-0.6436004638671875,0.87213134765625,-0.2163238525390625
-0.572845458984375,0.855926513671875,-0.1487579345703125
-0.55389404296875,0.915191650390625,-0.1383056640625
-0.5208282470703125,0.9658203125,-0.2055206298828125
-0.4571990966796875,0.9643707275390624,-0.2076873779296875
-0.455230712890625,0.9676513671875,-0.1637725830078125
-0.450531005859375,1.0150299072265625,-0.0733795166015625
-0.4160919189453125,0.9585418701171876,0.026641845703125
-0.41656494140625,0.824676513671875,0.06268310546875
-0.4551544189453125,0.922943115234375,0.1700592041015625
-0.270477294921875,0.8952789306640625,0.074310302734375
-0.4258880615234375,0.710784912109375,0.0099029541015625
-0.676727294921875,0.7160186767578125,0.14532470703125
-0.62872314453125,0.82666015625,0.1939544677734375
-0.600616455078125,0.8490753173828125,0.01849365234375
-0.6666412353515625,0.7703399658203125,-0.055267333984375
-0.714996337890625,0.72650146484375,-0.0572357177734375
-0.6766357421875,0.707794189453125,-0.0231475830078125
-0.6983795166015625,0.75323486328125,0.0072021484375
-0.7364501953125,0.7737884521484375,-0.0194549560546875
-0.775604248046875,0.781585693359375,-0.0312347412109375
-0.84246826171875,0.7891082763671875,-0.03070068359375
-0.8860626220703125,0.7521514892578125,-0.0366363525390625
-0.8603668212890625,0.7146148681640625,-0.0656585693359375
-0.9296112060546876,0.980072021484375,-0.07403564453125
-0.795013427734375,0.9635467529296876,-0.03790283203125
-0.7930908203125,0.823150634765625,-0.0657958984375
-0.783447265625,0.9050750732421876,-0.1881103515625
-0.7291717529296875,0.995697021484375,-0.1977081298828125
-0.63128662109375,0.947052001953125,-0.178192138671875
-0.5727996826171875,0.855804443359375,-0.1846466064453125
-0.4828643798828125,0.8294677734375,-0.1468505859375
-0.4067230224609375,0.8049163818359375,-0.0764923095703125
-0.3337249755859375,0.770416259765625,-0.018707275390625
-0.3000335693359375,0.7303619384765625,0.0186920166015625
-0.32989501953125,0.7157440185546875,-0.03131103515625
-0.381866455078125,0.780120849609375,-0.02130126953125
-0.3671417236328125,0.859710693359375,0.0096435546875
-0.51470947265625,0.9000091552734375,-0.0254669189453125
-0.561798095703125,1.12322998046875,0.001708984375
-0.5718536376953125,0.98272705078125,-0.2042694091796875
-0.7242431640625,0.7799224853515625,-0.099517822265625
-0.8498077392578125,0.8348846435546875,-0.0205535888671875
-0.789031982421875,0.8841094970703125,-0.151214599609375
-0.7318267822265625,0.74456787109375,-0.2360382080078125
-0.744598388671875,0.6395263671875,-0.265716552734375
-0.6826324462890625,0.6726837158203125,-0.188201904296875
-0.64080810546875,0.7217559814453125,-0.1667022705078125
-0.613006591796875,0.716552734375,-0.1552581787109375
-0.606781005859375,0.708587646484375,-0.1399078369140625
-0.66094970703125,0.793243408203125,-0.1443328857421875
-0.7186126708984375,0.8588714599609375,-0.099761962890625
-0.7342071533203125,0.839630126953125,-0.07177734375
-0.813232421875,0.901214599609375,-0.099517822265625
-0.8037567138671875,1.0370330810546875,-0.1118316650390625
-0.756866455078125,0.9803619384765624,-0.1004180908203125
-0.6895599365234375,0.840850830078125,-0.0443878173828125
-0.6196136474609375,0.8350830078125,-0.058837890625
-0.583984375,0.92254638671875,-0.089263916015625
-0.4885406494140625,0.898193359375,-0.0493621826171875
-0.5078277587890625,0.81982421875,-0.125518798828125
-0.5255889892578125,0.7915496826171875,-0.19232177734375
-0.5097808837890625,0.789520263671875,-0.1590118408203125
-0.446441650390625,0.76531982421875,-0.0236968994140625
-0.3853759765625,0.7307891845703125,-0.021942138671875
-0.277557373046875,0.7044219970703125,-0.05303955078125
-0.248138427734375,0.7245330810546875,-0.06427001953125
-0.3564605712890625,0.811798095703125,-0.0931854248046875
-0.54644775390625,0.8708038330078125,-0.204315185546875
-0.746429443359375,1.0980987548828125,-0.234771728515625
-0.69378662109375,1.073638916015625,-0.365570068359375
-0.7095794677734375,0.754119873046875,-0.4686279296875
-0.8304290771484375,0.7418060302734375,-0.392059326171875
-0.8408966064453125,0.7916107177734375,-0.3133697509765625
-0.738006591796875,0.73858642578125,-0.1479949951171875
-0.6716766357421875,0.648834228515625,-0.0247344970703125
-0.6635894775390625,0.6848907470703125,0.0171051025390625
-0.61724853515625,0.7002716064453125,-0.0011749267578125
-0.634002685546875,0.6884307861328125,-0.038299560546875
-0.762786865234375,0.7203216552734375,-0.109588623046875
-0.84100341796875,0.75714111328125,-0.12109375
-0.8682861328125,0.8556365966796875,-0.169403076171875
-0.836639404296875,0.8467559814453125,-0.1839599609375
-0.8709869384765625,0.974151611328125,-0.1924285888671875
-0.7649078369140625,1.030120849609375,-0.2332000732421875
-0.6737518310546875,0.859619140625,-0.2318267822265625
-0.746795654296875,0.867431640625,-0.2225189208984375
-0.7290191650390625,0.9886474609375,-0.2934417724609375
-0.605224609375,1.0030364990234375,-0.3198089599609375
-0.5476837158203125,0.85400390625,-0.287689208984375
-0.5116424560546875,0.75921630859375,-0.2409820556640625
-0.4217376708984375,0.7728118896484375,-0.198211669921875
-0.295440673828125,0.7729644775390625,-0.129180908203125
-0.2057342529296875,0.740692138671875,-0.0684051513671875
-0.2403106689453125,0.7024688720703125,-0.0213470458984375
-0.302490234375,0.790191650390625,0.0176544189453125
-0.2950897216796875,0.8736114501953125,0.00048828125
-0.488128662109375,0.9216461181640624,0.019256591796875
-0.595611572265625,1.15496826171875,0.1362762451171875
-0.5691680908203125,1.0919952392578125,-0.002685546875
-0.7170867919921875,0.9437713623046876,-0.1317138671875
-0.8049774169921875,1.01043701171875,-0.1438446044921875
-0.8385467529296875,0.9734039306640624,-0.102569580078125
-0.8036346435546875,0.779632568359375,-0.127044677734375
-0.76824951171875,0.680755615234375,-0.1751556396484375
-0.63232421875,0.713043212890625,-0.140472412109375
-0.575439453125,0.723419189453125,-0.106903076171875
-0.54705810546875,0.7254180908203125,-0.10845947265625
-0.5492095947265625,0.71728515625,-0.114990234375
-0.6393890380859375,0.7932891845703125,-0.1190185546875
-0.7524566650390625,0.872528076171875,-0.1281585693359375
-0.8397369384765625,0.842987060546875,-0.1041717529296875
-0.9399566650390624,1.0436553955078125,-0.169158935546875
-0.859588623046875,1.05712890625,-0.1067657470703125
-0.81866455078125,0.922607421875,0.000732421875
-0.761627197265625,1.031097412109375,-0.1552581787109375
-0.637603759765625,1.0889129638671875,-0.2495880126953125
-0.50872802734375,0.976837158203125,-0.2346038818359375
-0.499114990234375,0.8354034423828125,-0.1625213623046875
-0.46270751953125,0.8344879150390625,-0.103790283203125
-0.3717193603515625,0.8326568603515625,-0.0915679931640625
-0.2929534912109375,0.781402587890625,-0.0758056640625
-0.275054931640625,0.74212646484375,-0.0290374755859375
-0.3202667236328125,0.765625,-0.0398406982421875
-0.3161773681640625,0.8654022216796875,-0.0469207763671875
-0.3381500244140625,0.868927001953125,-0.050323486328125
-0.544036865234375,0.972930908203125,0.0212249755859375
-0.49700927734375,1.1743316650390625,0.02313232421875
-0.4821929931640625,0.9518280029296876,-0.216796875
-0.6773529052734375,0.7723846435546875,-0.086944580078125
-0.76446533203125,0.9706268310546876,-0.0014495849609375
-0.75341796875,1.0900115966796875,-0.1349334716796875
-0.7539215087890625,0.883270263671875,-0.1929473876953125
-0.7823028564453125,0.7346954345703125,-0.230712890625
-0.7321014404296875,0.689239501953125,-0.2501678466796875
-0.6302947998046875,0.6713714599609375,-0.1009063720703125
-0.5828857421875,0.680419921875,-0.0565185546875
-0.5633392333984375,0.711090087890625,-0.07098388671875
-0.63714599609375,0.76470947265625,-0.116607666015625
-0.7269439697265625,0.8243865966796875,-0.1270904541015625
-0.7563934326171875,0.817718505859375,-0.1357879638671875
-0.7388458251953125,0.85809326171875,-0.1490020751953125
-0.792999267578125,1.127685546875,-0.157958984375
-0.6606597900390625,1.1204376220703125,-0.1893157958984375
-0.7622222900390625,0.9169921875,-0.0723114013671875
-0.8444366455078125,1.0309906005859375,-0.0868988037109375
-0.729339599609375,1.127593994140625,-0.1239471435546875
-0.568695068359375,1.024139404296875,-0.192596435546875
-0.528228759765625,0.894866943359375,-0.1156768798828125
-0.4670867919921875,0.8451995849609375,-0.05145263671875
-0.3519439697265625,0.8004608154296875,-0.0155029296875
-0.2382049560546875,0.744293212890625,0.047637939453125
-0.2043914794921875,0.7022705078125,0.093841552734375
-0.22698974609375,0.70404052734375,-0.0003814697265625
-0.2795562744140625,0.8346405029296875,-0.03717041015625
-0.3062896728515625,0.960205078125,-0.1531982421875
-0.413055419921875,1.023193359375,-0.3680572509765625
-0.526824951171875,1.1138916015625,-0.310516357421875
-0.6449127197265625,1.0900421142578125,-0.2070465087890625
-0.6947479248046875,0.971771240234375,-0.278289794921875
-0.752716064453125,1.0236663818359375,-0.359100341796875
-0.7515411376953125,1.0064849853515625,-0.438690185546875
-0.7472686767578125,0.79437255859375,-0.33526611328125
-0.71148681640625,0.655029296875,-0.1719512939453125
-0.620697021484375,0.6636810302734375,-0.129852294921875
-0.521697998046875,0.705963134765625,-0.16796875
-0.490386962890625,0.7403411865234375,-0.232208251953125
-0.5601348876953125,0.748687744140625,-0.2145233154296875
-0.755706787109375,0.879486083984375,-0.1753082275390625
-0.8874053955078125,0.972381591796875,-0.0027923583984375
-0.8489837646484375,0.9398651123046876,0.1949462890625
-0.8942108154296875,0.9118194580078124,0.072998046875
-0.88330078125,1.0738525390625,-0.0289154052734375
-0.834228515625,1.2005615234375,-0.02581787109375
-0.7781982421875,1.00433349609375,-0.084625244140625
-0.6359100341796875,0.992462158203125,-0.1579742431640625
-0.485321044921875,1.1329498291015625,-0.3028411865234375
-0.3410186767578125,1.182525634765625,-0.3277435302734375
-0.30206298828125,1.00628662109375,-0.2179718017578125
-0.3546905517578125,0.8349456787109375,-0.1711883544921875
-0.274993896484375,0.755035400390625,-0.21441650390625
-0.1969757080078125,0.6914520263671875,-0.1656646728515625
-0.192779541015625,0.636322021484375,-0.01531982421875
-0.3316192626953125,0.66009521484375,0.0678558349609375
-0.5463409423828125,0.6982574462890625,-0.07647705078125
-0.831756591796875,0.7637939453125,-0.141937255859375
-0.9629058837890624,0.763153076171875,-0.1239471435546875
-1.026123046875,0.758148193359375,-0.2727508544921875
-0.98370361328125,1.0240936279296875,-0.3938140869140625
-0.9160308837890624,0.8618927001953125,-0.6143646240234375
-0.89923095703125,0.621002197265625,-0.8334197998046875
-1.0107269287109375,0.5824737548828125,-0.927978515625
-0.85479736328125,0.7792510986328125,-0.73974609375
-0.6680755615234375,0.8646697998046875,-0.74267578125
-0.485748291015625,0.7911529541015625,-0.7949066162109375
-0.4040679931640625,0.648681640625,-0.9767913818359376
-0.3566741943359375,0.5149383544921875,-0.8164825439453125
-0.3542938232421875,0.417266845703125,-0.77294921875
-0.30950927734375,0.35009765625,-0.7842559814453125
-0.2479400634765625,0.266326904296875,-0.8206329345703125
-0.2366180419921875,0.20599365234375,-0.7667999267578125
-0.2856292724609375,0.13922119140625,-0.707000732421875
-0.213348388671875,0.0446929931640625,-0.7232208251953125
-0.181365966796875,-0.1012115478515625,-0.805938720703125
-0.2790985107421875,-0.1344146728515625,-0.8722991943359375
-0.183807373046875,-0.1828765869140625,-0.9268798828125
-0.264495849609375,-0.2447357177734375,-0.987274169921875
-0.2937164306640625,-0.173614501953125,-0.9676513671875
-0.1532745361328125,-0.2205810546875,-1.0194091796875
-0.1083526611328125,-0.21270751953125,-1.11102294921875
-0.154266357421875,-0.2800445556640625,-1.037353515625
-0.203033447265625,-0.27703857421875,-1.026580810546875
-0.2694854736328125,-0.1894683837890625,-1.019134521484375
-0.2443389892578125,-0.214385986328125,-1.1523284912109375
-0.1414031982421875,-0.16925048828125,-1.2059173583984375
-0.1217498779296875,-0.151611328125,-1.1862335205078125
-0.182464599609375,-0.1233673095703125,-1.1063690185546875
-0.0930328369140625,-0.128631591796875,-1.02947998046875
-0.0517578125,-0.1219482421875,-0.9599761962890624
-0.02337646484375,-0.209503173828125,-0.9198150634765624
-0.078369140625,-0.32244873046875,-0.9582366943359376
-0.1974945068359375,-0.2589569091796875,-0.9721832275390624
-0.1873016357421875,-0.2735748291015625,-0.9748687744140624
-0.1676177978515625,-0.246673583984375,-0.816131591796875
-0.167510986328125,-0.109649658203125,-0.9019775390625
-0.0444183349609375,-0.114654541015625,-0.887115478515625
0.0824737548828125,-0.1927947998046875,-0.7195587158203125
-0.0567626953125,-0.2389984130859375,-0.54193115234375
-0.0975189208984375,-0.293212890625,-0.7956390380859375
0.05108642578125,-0.2111358642578125,-0.9362945556640624
0.1590728759765625,-0.2140960693359375,-0.8018798828125
0.1293792724609375,-0.22052001953125,-0.853851318359375
0.1016082763671875,-0.3519287109375,-0.9384002685546876
0.1464080810546875,-0.3153839111328125,-0.76690673828125
-0.0095672607421875,-0.3655548095703125,-0.7514801025390625
0.03729248046875,-0.3211517333984375,-0.903656005859375
0.1303558349609375,-0.3685150146484375,-0.681060791015625
0.0728302001953125,-0.47882080078125,-0.4835052490234375
-0.0834503173828125,-0.4874725341796875,-0.87176513671875
-0.064605712890625,-0.36163330078125,-1.0168304443359375
0.0332183837890625,-0.3142852783203125,-1.0948486328125
-0.06719970703125,-0.3224945068359375,-0.8993988037109375
-0.039703369140625,-0.401336669921875,-0.7471160888671875
-0.091094970703125,-0.3899993896484375,-0.8885040283203125
-0.1312713623046875,-0.384002685546875,-0.9460296630859376
-0.026123046875,-0.4731292724609375,-0.9014892578125
-0.0318603515625,-0.4025115966796875,-0.6853179931640625
0.0748443603515625,-0.4191131591796875,-0.6790618896484375
0.0889434814453125,-0.377410888671875,-0.8877105712890625
0.1262664794921875,-0.2998199462890625,-0.784820556640625
0.0786285400390625,-0.27093505859375,-0.5320587158203125
-0.1051177978515625,-0.1713104248046875,-0.287261962890625
-0.6467742919921875,-0.196044921875,-0.463775634765625
0.07049560546875,-0.0013580322265625,-0.1742706298828125
0.19091796875,-0.0006256103515625,0.0152587890625
0.1728515625,-0.0210723876953125,0.0176849365234375
0.1584320068359375,-0.0369415283203125,0.021148681640625
0.1519775390625,-0.0479888916015625,0.026702880859375
0.15484619140625,-0.054595947265625,0.0351104736328125
0.1610870361328125,-0.056793212890625,0.043975830078125
0.1633148193359375,-0.05523681640625,0.049346923828125
0.1628875732421875,-0.04608154296875,0.05181884765625
3.5179595947265625,-7.0089263916015625,2.24285888671875
-0.2434844970703125,0.1583099365234375,7.3601226806640625
0.0247802734375,1.43084716796875,0.6211090087890625
0.099334716796875,0.48907470703125,0.04364013671875
0.0286712646484375,0.1799774169921875,0.4110260009765625
-0.1913909912109375,0.0016937255859375,0.7928924560546875
0.0912322998046875,-0.182769775390625,0.9771270751953124
0.3562774658203125,-0.8383331298828125,1.4924163818359375
0.0577545166015625,-0.06585693359375,0.7017059326171875
0.268402099609375,0.0607147216796875,1.173248291015625
0.1125030517578125,-0.218505859375,0.8820953369140625
0.1644134521484375,-0.0402984619140625,1.0149688720703125
0.1200714111328125,-0.13726806640625,1.009124755859375
0.16143798828125,-0.0803985595703125,0.9992828369140624
0.1454925537109375,-0.1142730712890625,0.9857635498046876
0.147674560546875,-0.099212646484375,1.005096435546875
0.14801025390625,-0.0953826904296875,0.9891357421875
0.137939453125,-0.1025848388671875,0.992279052734375
0.1449432373046875,-0.0896453857421875,0.9966278076171876
0.1754150390625,-0.088714599609375,0.9985504150390624
0.047088623046875,-0.17340087890625,1.103485107421875
0.0130615234375,-0.0830078125,0.9668731689453124
0.125457763671875,-0.0606231689453125,1.00360107421875
0.090606689453125,-0.0699920654296875,0.971954345703125
0.2187347412109375,-0.1668243408203125,1.01251220703125
-0.1833343505859375,0.051605224609375,1.0954742431640625
0.0059051513671875,-0.182373046875,1.114471435546875
-0.090240478515625,-0.19390869140625,1.4448089599609375
-0.066558837890625,-0.13116455078125,1.4245452880859375
-0.30352783203125,-0.001312255859375,1.093353271484375
-0.372161865234375,-0.0292816162109375,0.4723052978515625
-0.3790130615234375,-0.0410919189453125,-0.014007568359375
-0.5692291259765625,-0.073333740234375,-0.2218475341796875
-0.5434417724609375,0.1522674560546875,-1.224029541015625
-0.6717071533203125,0.0106353759765625,-1.0860595703125
-0.727294921875,-0.0472259521484375,-0.649810791015625
-0.6886749267578125,0.0275726318359375,-0.794677734375
-0.660064697265625,0.02423095703125,-0.743133544921875
-0.656707763671875,0.0322418212890625,-0.766937255859375
-0.589630126953125,0.0139007568359375,-0.81011962890625
-0.6188507080078125,0.008056640625,-0.76812744140625
-0.5911865234375,-0.0071258544921875,-0.8065185546875
-0.60162353515625,-0.002227783203125,-0.7890472412109375
-0.5935516357421875,0.016387939453125,-0.804473876953125
-0.584716796875,0.0015869140625,-0.7713623046875
-0.560394287109375,-0.013275146484375,-0.837554931640625
