AccelerationX,AccelerationY,AccelerationZ
-0.5661468505859375,0.620819091796875,-0.5752410888671875
-0.5884246826171875,0.5977935791015625,-0.4686279296875
-0.5587005615234375,0.6087646484375,-0.5037994384765625
-0.5701141357421875,0.602447509765625,-0.521636962890625
-0.5528106689453125,0.6256866455078125,-0.54052734375
-0.552032470703125,0.616912841796875,-0.5353240966796875
-0.5751495361328125,0.6170501708984375,-0.5357666015625
-0.5653076171875,0.6222686767578125,-0.505615234375
-0.556884765625,0.623565673828125,-0.5210113525390625
-0.554107666015625,0.6263427734375,-0.538818359375
-0.53228759765625,0.61767578125,-0.521148681640625
-0.5401458740234375,0.61431884765625,-0.506744384765625
-0.5655364990234375,0.6267547607421875,-0.4853515625
-0.55657958984375,0.644012451171875,-0.38677978515625
-0.5236663818359375,0.6763153076171875,-0.243988037109375
-0.5187530517578125,0.7632598876953125,-0.2749481201171875
-0.6081695556640625,0.79534912109375,-0.2102508544921875
-0.663360595703125,0.7942352294921875,-0.126739501953125
-0.7426910400390625,0.785308837890625,0.004180908203125
-0.780609130859375,0.6974639892578125,0.0067291259765625
-0.7353057861328125,0.6688385009765625,0.0142974853515625
-0.689239501953125,0.6723785400390625,-0.0487823486328125
-0.7477874755859375,0.6611785888671875,-0.184600830078125
-0.929168701171875,0.6316986083984375,-0.1387176513671875
-1.037353515625,0.6461029052734375,-0.1698455810546875
-1.127288818359375,0.7353668212890625,-0.2338714599609375
-1.1295013427734375,0.788665771484375,-0.297515869140625
-1.1056671142578125,0.730926513671875,-0.39105224609375
-1.0529937744140625,0.71051025390625,-0.37353515625
-0.93927001953125,0.6205596923828125,-0.345550537109375
-0.9766693115234376,0.733795166015625,-0.1865081787109375
-1.0689697265625,0.969512939453125,-0.1782684326171875
-1.0230865478515625,1.061187744140625,-0.1835479736328125
-0.9152984619140624,1.038818359375,-0.249725341796875
-0.7905731201171875,1.0468597412109375,-0.329315185546875
-0.7165985107421875,1.072479248046875,-0.2547760009765625
-0.5784454345703125,1.2093963623046875,-0.0604095458984375
-0.347747802734375,1.25689697265625,-0.0605926513671875
-0.1878204345703125,1.2862091064453125,-0.0827178955078125
0.1494598388671875,1.1924591064453125,0.081451416015625
0.126312255859375,1.1727142333984375,0.09814453125
-0.036102294921875,1.0100250244140625,0.0731658935546875
-0.263153076171875,1.0327606201171875,-0.0264129638671875
-0.5343475341796875,1.4132537841796875,0.09881591796875
-0.7706146240234375,1.518585205078125,0.039825439453125
-0.8283233642578125,1.2586212158203125,-0.0130157470703125
-0.73846435546875,0.9795379638671876,0.014801025390625
-0.759246826171875,0.8983917236328125,-0.018646240234375
-0.8401947021484375,0.8715362548828125,-0.09002685546875
-0.976043701171875,1.006805419921875,-0.1522979736328125
-0.9888153076171876,1.062896728515625,-0.1353759765625
-1.19927978515625,1.0380401611328125,-0.081695556640625
-1.1973724365234375,0.7947998046875,-0.0504150390625
-1.24542236328125,0.744140625,-0.172119140625
-1.113128662109375,0.8141021728515625,-0.244720458984375
-1.11346435546875,1.0740509033203125,-0.2270050048828125
-1.073638916015625,1.416412353515625,-0.33734130859375
-1.031494140625,1.6603546142578125,-0.40087890625
-0.925811767578125,1.7766265869140625,-0.4141082763671875
-0.8188629150390625,1.8990020751953125,-0.2705535888671875
-0.5606689453125,1.8698577880859373,-0.10552978515625
-0.2373199462890625,1.5378570556640625,-0.0610809326171875
0.1620941162109375,1.1617431640625,0.11065673828125
0.3473968505859375,0.9042816162109376,0.1062164306640625
0.371551513671875,0.7856292724609375,0.0650634765625
0.2594451904296875,0.7049102783203125,0.0218353271484375
0.031280517578125,0.7712860107421875,-0.00653076171875
-0.169403076171875,0.9820556640625,0.0011749267578125
-0.4347381591796875,1.255767822265625,-0.019195556640625
-0.6786956787109375,1.5138702392578125,0.03997802734375
-0.69512939453125,1.526702880859375,-0.1681060791015625
-0.781585693359375,1.4044647216796875,-0.31597900390625
-0.8792724609375,1.3601531982421875,-0.1956939697265625
-0.861846923828125,1.291259765625,-0.116607666015625
-0.91412353515625,1.1586456298828125,-0.15130615234375
-1.135040283203125,1.0679168701171875,0.0097808837890625
-1.238922119140625,0.9837646484375,-0.1023101806640625
-1.163482666015625,0.871337890625,-0.35235595703125
-1.0627593994140625,0.8452301025390625,-0.5711517333984375
-0.9398956298828124,1.0861053466796875,-0.7321929931640625
-0.814788818359375,1.1844024658203125,-0.5155029296875
-0.79156494140625,1.3835296630859375,-0.3335113525390625
-0.6226348876953125,1.451385498046875,-0.406097412109375
-0.4774169921875,1.357574462890625,-0.5063934326171875
-0.4078216552734375,1.2356109619140625,-0.3384552001953125
-0.4302825927734375,1.2089996337890625,-0.209747314453125
-0.427276611328125,1.2989044189453125,-0.2038726806640625
-0.377655029296875,1.6065673828125,-0.319915771484375
-0.042083740234375,1.646087646484375,-0.25836181640625
0.183258056640625,1.5673065185546875,-0.0164031982421875
0.6280364990234375,1.31634521484375,0.1352081298828125
0.7720794677734375,0.942352294921875,-0.0799102783203125
0.3210906982421875,0.7634735107421875,-0.1450653076171875
0.0744781494140625,1.0830535888671875,0.0071563720703125
-0.3125762939453125,1.8201446533203125,-0.145660400390625
-0.4906768798828125,1.856689453125,-0.1968994140625
-0.5787200927734375,1.4119415283203125,-0.39453125
-0.6568756103515625,1.050384521484375,-0.3261260986328125
-0.7398529052734375,0.985137939453125,0.0336761474609375
-0.81939697265625,0.8935394287109375,0.2630767822265625
-0.8508758544921875,1.00970458984375,0.035980224609375
-0.7285308837890625,1.25885009765625,-0.2326507568359375
-0.7226104736328125,1.177490234375,-0.35076904296875
-0.9575958251953124,1.00787353515625,-0.527313232421875
-1.0560760498046875,0.866607666015625,-0.2566375732421875
-0.9507598876953124,0.9120635986328124,-0.42230224609375
-0.919464111328125,1.260650634765625,-0.64617919921875
-0.996612548828125,1.380401611328125,-0.4161376953125
-0.9494476318359376,1.6357574462890625,-0.3271484375
-0.6849212646484375,1.8024139404296875,-0.4999237060546875
-0.4937286376953125,1.6505279541015625,-0.532379150390625
-0.37274169921875,1.5184326171875,-0.4077911376953125
-0.268157958984375,1.4705963134765625,-0.29705810546875
-0.200592041015625,1.3947601318359375,-0.1828460693359375
-0.1682586669921875,1.425628662109375,-0.0917816162109375
0.0434722900390625,1.30487060546875,-0.1524658203125
0.1698760986328125,1.03912353515625,-0.2111358642578125
0.34283447265625,0.829437255859375,0.1145477294921875
0.502777099609375,1.004302978515625,0.2798309326171875
0.22613525390625,1.084442138671875,-0.0677032470703125
-0.4797821044921875,1.5347137451171875,-0.1469879150390625
-0.8214874267578125,1.7180633544921875,0.0495758056640625
-0.9376068115234376,1.5621337890625,0.0983123779296875
-0.8986968994140625,1.255401611328125,0.0013275146484375
-0.836212158203125,1.1985015869140625,-0.0793914794921875
-0.772674560546875,1.1653289794921875,-0.256256103515625
-0.7742462158203125,0.9077911376953124,-0.3592529296875
-1.002471923828125,0.7628936767578125,-0.4685516357421875
-1.277099609375,0.9985198974609376,-0.5425567626953125
-1.20086669921875,1.2410125732421875,-0.5739593505859375
-1.034454345703125,1.2435302734375,-0.516265869140625
-1.0404815673828125,0.9817962646484376,-0.3508453369140625
-1.06158447265625,1.19757080078125,-0.4254913330078125
-0.6650543212890625,1.2051544189453125,-0.4048919677734375
-0.5027313232421875,1.5554656982421875,-0.350494384765625
-0.4969482421875,1.67791748046875,-0.4074859619140625
-0.2853851318359375,1.372161865234375,-0.4607086181640625
-0.352294921875,1.043853759765625,-0.36163330078125
-0.4021453857421875,0.99237060546875,-0.312591552734375
-0.4555206298828125,0.983154296875,-0.18658447265625
-0.441070556640625,1.04364013671875,-0.137786865234375
-0.3007965087890625,1.1385650634765625,-0.039093017578125
-0.072479248046875,1.2754058837890625,0.0279388427734375
0.29437255859375,1.206268310546875,0.118865966796875
0.3100738525390625,0.987060546875,-0.0590057373046875
0.069305419921875,1.186065673828125,-0.1573333740234375
0.2192535400390625,1.0235137939453125,-0.3991546630859375
-0.206085205078125,1.2725372314453125,-0.264373779296875
-0.445465087890625,1.4805908203125,0.291900634765625
-0.68597412109375,1.613250732421875,0.3726654052734375
-0.8870086669921875,1.5312652587890625,0.024383544921875
-1.00897216796875,1.3767547607421875,-0.09661865234375
-1.0903167724609375,1.2425384521484375,-0.023101806640625
-1.065155029296875,1.0454559326171875,-0.0168914794921875
-1.091033935546875,0.9998626708984376,-0.1637725830078125
-0.9862823486328124,1.1971588134765625,-0.2204742431640625
-0.7526092529296875,1.1652984619140625,-0.2055206298828125
-0.67059326171875,0.9297332763671876,-0.1175384521484375
-0.8345794677734375,0.8484954833984375,-0.0816192626953125
-0.8387908935546875,0.9914703369140624,-0.0330047607421875
-0.893646240234375,1.4305572509765625,-0.2396392822265625
-0.9662322998046876,1.737579345703125,-0.5080413818359375
-0.868377685546875,1.6220703125,-0.69293212890625
-0.8306732177734375,1.5247039794921875,-0.6493682861328125
-0.7317962646484375,1.7588653564453125,-0.438873291015625
-0.47216796875,2.0089111328125,-0.2584075927734375
-0.260650634765625,1.8931732177734373,-0.26806640625
0.0377655029296875,1.5485076904296875,-0.2389068603515625
0.4174041748046875,1.1936492919921875,-0.009765625
0.7244415283203125,0.9320831298828124,0.0099639892578125
0.6138153076171875,0.7526397705078125,-0.0601959228515625
0.35516357421875,0.9739227294921876,0.0707550048828125
0.2068634033203125,1.3329010009765625,-0.0467681884765625
-0.3575286865234375,1.8150177001953125,-0.2187652587890625
-0.831085205078125,1.9832000732421875,0.21826171875
-0.8880615234375,1.7581787109375,0.1347198486328125
-0.8293914794921875,1.5211029052734375,-0.22772216796875
-0.830841064453125,1.31884765625,-0.2456207275390625
-0.8955078125,1.190216064453125,-0.1551513671875
-0.952484130859375,1.158447265625,-0.2119903564453125
-0.9177703857421876,1.211090087890625,-0.2944488525390625
-0.757415771484375,1.239166259765625,-0.2283782958984375
-0.6578369140625,1.075225830078125,-0.276763916015625
-0.955108642578125,0.971435546875,-0.3535308837890625
-1.265533447265625,0.900115966796875,-0.4181365966796875
-1.0698089599609375,1.0536346435546875,-0.1902618408203125
-0.8509979248046875,1.341644287109375,-0.270050048828125
-0.84906005859375,1.606109619140625,-0.345184326171875
-0.86553955078125,1.9105377197265625,-0.3038787841796875
-0.6457366943359375,2.01507568359375,-0.31121826171875
-0.511138916015625,1.9486846923828125,-0.378265380859375
-0.40850830078125,1.74346923828125,-0.46466064453125
-0.221923828125,1.44573974609375,-0.2718048095703125
-0.1157684326171875,1.1703948974609375,-0.3371429443359375
-0.1094970703125,0.940277099609375,-0.3813018798828125
-0.098114013671875,0.7066497802734375,-0.2547760009765625
-0.1413116455078125,0.6674041748046875,-0.144012451171875
-0.05859375,0.8325347900390625,-0.25537109375
-0.1719970703125,0.7878875732421875,-0.1090850830078125
-0.392242431640625,0.87451171875,0.0483245849609375
-0.4356842041015625,1.07940673828125,0.0712127685546875
-0.5481109619140625,1.2790679931640625,0.015228271484375
-0.5915679931640625,1.298553466796875,0.29705810546875
-0.745330810546875,1.3235626220703125,0.4698028564453125
-0.8342437744140625,1.2686309814453125,0.381866455078125
-0.8006744384765625,1.2479248046875,0.3170623779296875
-0.8870849609375,1.2581634521484375,0.303985595703125
-0.963653564453125,1.178985595703125,0.2793731689453125
-0.851715087890625,0.98583984375,0.222991943359375
-0.790313720703125,0.9140777587890624,0.360443115234375
-0.7288055419921875,0.911651611328125,0.396209716796875
-0.6831512451171875,1.112518310546875,0.026763916015625
-0.6092987060546875,1.2136077880859375,-0.1786346435546875
-0.6054229736328125,1.1329498291015625,-0.130523681640625
-0.336517333984375,0.8665008544921875,-0.6483917236328125
-0.45733642578125,0.821868896484375,-1.1945953369140625
-0.765350341796875,0.7900238037109375,-1.17742919921875
-0.666717529296875,0.8812255859375,-1.0413818359375
-0.5966033935546875,0.9904327392578124,-1.12164306640625
-0.50830078125,1.111724853515625,-1.13629150390625
-0.2953643798828125,1.27239990234375,-0.86767578125
-0.21240234375,1.3641204833984375,-0.6838836669921875
-0.2852325439453125,1.3636474609375,-0.381927490234375
-0.5172119140625,1.3589935302734375,-0.46728515625
-0.696533203125,1.2542724609375,-0.45849609375
-0.63134765625,1.4339752197265625,-0.692474365234375
-0.0914306640625,1.584747314453125,-0.6154632568359375
0.713775634765625,1.4183349609375,-0.560089111328125
1.59967041015625,1.0980682373046875,-0.3983154296875
0.9975738525390624,1.0368194580078125,-0.3740386962890625
0.298187255859375,1.1960906982421875,-0.008026123046875
0.1624603271484375,1.3815765380859375,0.1602783203125
0.14208984375,1.4718780517578125,-0.1063232421875
-0.0560760498046875,1.3907928466796875,0.02447509765625
-0.235198974609375,1.3717498779296875,0.0800628662109375
-0.3158111572265625,1.3964996337890625,0.0688629150390625
-0.4626312255859375,1.2838287353515625,0.032745361328125
-0.577606201171875,1.1642913818359375,0.0290985107421875
-0.6334381103515625,1.31005859375,-0.036224365234375
-0.738494873046875,1.4542999267578125,-0.1049652099609375
-0.9197998046875,1.171722412109375,-0.010711669921875
-1.121826171875,0.9539031982421876,-0.2522735595703125
-1.19940185546875,1.0488433837890625,-0.2035369873046875
-0.824981689453125,1.1541900634765625,-0.074188232421875
-0.7891845703125,1.437957763671875,-0.277191162109375
-0.722198486328125,1.7692108154296875,-0.3419952392578125
-0.600982666015625,1.938140869140625,-0.4989471435546875
-0.5300445556640625,1.9091339111328125,-0.600921630859375
-0.44140625,1.810577392578125,-0.5209808349609375
-0.3719482421875,1.765960693359375,-0.487762451171875
-0.31011962890625,1.57867431640625,-0.346160888671875
-0.2144317626953125,1.3652801513671875,-0.3687591552734375
-0.162811279296875,1.2380218505859375,-0.4034423828125
0.0032196044921875,1.09619140625,-0.2250823974609375
0.3375701904296875,0.8759002685546875,-0.1061859130859375
0.4942779541015625,0.7458953857421875,-0.2101898193359375
0.433349609375,0.79486083984375,0.0832366943359375
0.08306884765625,1.110137939453125,0.09228515625
-0.17034912109375,1.5958404541015625,-0.0256195068359375
-0.381622314453125,1.7441864013671875,0.0048980712890625
-0.6094512939453125,1.5492095947265625,-0.1945953369140625
-0.70306396484375,1.3884429931640625,-0.30841064453125
-0.7515106201171875,1.40899658203125,-0.24505615234375
-0.78631591796875,1.478912353515625,-0.15032958984375
-0.9015045166015624,1.378173828125,-0.213409423828125
-0.9202728271484376,1.3206939697265625,-0.41583251953125
-0.9787445068359376,1.1815032958984375,-0.4081268310546875
-0.876220703125,0.9380340576171876,-0.176300048828125
-0.827728271484375,1.033172607421875,-0.1866455078125
-0.675567626953125,1.0080108642578125,-0.30914306640625
-0.7332916259765625,1.0244140625,-0.2845916748046875
-0.7254180908203125,1.17742919921875,-0.12890625
-0.2682342529296875,1.329193115234375,0.04302978515625
0.352996826171875,1.2860260009765625,0.029998779296875
0.4594268798828125,1.0782928466796875,0.10906982421875
0.2099456787109375,1.03118896484375,0.3006591796875
0.08489990234375,1.123291015625,0.4850006103515625
0.136749267578125,1.2611541748046875,0.454498291015625
0.2916107177734375,1.3882904052734375,0.21417236328125
0.37054443359375,1.3171844482421875,-0.0045166015625
0.2234954833984375,1.13201904296875,-0.1183624267578125
-0.157745361328125,1.21484375,-0.22418212890625
-0.0697784423828125,1.2240142822265625,-0.4301300048828125
-0.099334716796875,1.126434326171875,-0.7684478759765625
-0.2628631591796875,0.978240966796875,-0.8939361572265625
-0.4457244873046875,0.8422088623046875,-0.4975738525390625
-0.4990997314453125,0.736724853515625,-0.1126708984375
-0.473785400390625,0.72528076171875,0.1067352294921875
-0.417449951171875,0.79547119140625,0.0424957275390625
-0.3461456298828125,0.93975830078125,-0.094696044921875
-0.4142303466796875,1.183502197265625,-0.0677947998046875
-0.529205322265625,1.2800445556640625,0.0107879638671875
-0.64862060546875,1.3432159423828125,0.0297393798828125
-0.7104034423828125,1.343780517578125,0.0200347900390625
-0.751495361328125,1.1101837158203125,0.1752471923828125
-0.623138427734375,1.0609893798828125,0.110870361328125
-0.4579925537109375,1.0182342529296875,-0.0549774169921875
-0.5042877197265625,1.0903778076171875,-0.1788177490234375
-0.5928192138671875,1.2312164306640625,-0.1165313720703125
-0.6932830810546875,1.310882568359375,-0.2048797607421875
-0.603240966796875,1.2535400390625,-0.682861328125
-0.82427978515625,1.0674591064453125,-0.810455322265625
-0.6966705322265625,1.338104248046875,-0.7474212646484375
-0.33056640625,1.54083251953125,-0.4100494384765625
0.12738037109375,1.4511260986328125,-0.322601318359375
0.4346466064453125,1.4739227294921875,-0.1761474609375
0.5523529052734375,1.4692230224609375,-0.231903076171875
0.878265380859375,1.0937652587890625,-0.4492034912109375
0.4687957763671875,1.0732269287109375,-0.308349609375
0.3255615234375,1.122039794921875,0.108123779296875
0.1269989013671875,1.5626220703125,-0.047271728515625
-0.0899505615234375,1.7594146728515625,0.0535430908203125
-0.2401275634765625,1.490814208984375,0.3517913818359375
-0.457489013671875,1.171417236328125,0.516387939453125
-0.48077392578125,1.16192626953125,0.2747802734375
-0.565185546875,1.282135009765625,-0.02081298828125
-0.6580657958984375,1.313812255859375,-0.1370086669921875
-0.7623138427734375,1.267486572265625,-0.2022247314453125
-0.815093994140625,1.3146514892578125,-0.1886749267578125
-0.7986907958984375,1.1143951416015625,-0.201904296875
-0.9696044921875,0.90142822265625,-0.048309326171875
-1.49468994140625,1.0006256103515625,-0.1912994384765625
-1.235015869140625,1.050079345703125,-0.0713348388671875
-0.9304351806640624,1.4274444580078125,-0.129638671875
-0.9664764404296876,1.790130615234375,-0.22900390625
-0.8207550048828125,2.0117950439453125,-0.363922119140625
-0.6081085205078125,2.083892822265625,-0.4368743896484375
-0.4210052490234375,1.937347412109375,-0.498809814453125
-0.239044189453125,1.6693878173828125,-0.439453125
-0.0778656005859375,1.420562744140625,-0.326080322265625
0.2266998291015625,1.24365234375,-0.2643280029296875
0.6852264404296875,1.057769775390625,-0.43890380859375
0.78515625,0.8681640625,-0.44476318359375
0.5777740478515625,0.7784576416015625,-0.2598419189453125
0.3179168701171875,1.0087890625,-0.1681060791015625
0.1802215576171875,1.5716552734375,-0.2851715087890625
-0.3037261962890625,1.8396759033203125,-0.279144287109375
-0.61767578125,1.797332763671875,0.021331787109375
-0.6957244873046875,1.6106109619140625,0.094635009765625
-0.65460205078125,1.4618072509765625,-0.0216827392578125
-0.6720733642578125,1.352386474609375,-0.0369873046875
-0.8561859130859375,1.31103515625,-0.075286865234375
-1.11798095703125,1.2754669189453125,0.056915283203125
-1.1951141357421875,1.278717041015625,-0.1494140625
-1.200347900390625,1.1500244140625,-0.524169921875
-1.16162109375,0.89599609375,-0.4184112548828125
-1.02838134765625,1.0219268798828125,-0.1917877197265625
-0.8454742431640625,1.05023193359375,-0.090240478515625
-0.8480224609375,1.240875244140625,-0.2038421630859375
-0.8480682373046875,1.7279052734375,-0.217193603515625
-0.6857147216796875,2.116485595703125,-0.3053436279296875
-0.5771026611328125,2.0783233642578125,-0.053497314453125
0.084197998046875,1.7352294921875,0.48297119140625
1.13848876953125,1.488739013671875,0.6373443603515625
0.70367431640625,1.0771636962890625,0.0192413330078125
0.0775909423828125,0.99365234375,0.2440643310546875
0.034576416015625,1.0853424072265625,0.647613525390625
0.3778076171875,1.276824951171875,0.3777313232421875
0.3946533203125,1.1898956298828125,-0.1035003662109375
0.157562255859375,1.1787109375,-0.294921875
-0.025604248046875,1.2063140869140625,-0.04632568359375
0.0868682861328125,1.389984130859375,0.2456817626953125
-0.1087646484375,1.386444091796875,-0.2962493896484375
-0.336669921875,1.221710205078125,-0.550384521484375
-0.4572906494140625,0.9717559814453124,-0.302886962890625
-0.4998626708984375,0.7956390380859375,-0.0555419921875
-0.4560699462890625,0.7967376708984375,-0.0462646484375
-0.447784423828125,1.0296173095703125,-0.199127197265625
-0.3787384033203125,1.2689666748046875,-0.4076690673828125
-0.5230560302734375,1.4694976806640625,-0.80780029296875
-0.947784423828125,1.1813812255859375,-0.936737060546875
-1.3025665283203125,0.8224029541015625,-0.5951995849609375
-1.3411865234375,0.8354034423828125,-0.68475341796875
-1.20989990234375,0.8587799072265625,-0.705474853515625
-1.1697845458984375,1.2453460693359375,-0.3694610595703125
-1.00689697265625,1.725128173828125,-0.1848297119140625
-0.7638092041015625,1.83807373046875,-0.2834625244140625
-0.6867523193359375,1.756805419921875,-0.361358642578125
-0.458892822265625,1.6456146240234375,-0.179443359375
-0.201690673828125,1.4591064453125,-0.101226806640625
-0.13671875,1.2418975830078125,-0.1056671142578125
-0.0924530029296875,1.119659423828125,-0.10888671875
0.03900146484375,0.9678802490234376,-0.0517120361328125
0.1922454833984375,0.8697662353515625,-0.00030517578125
0.404754638671875,0.8444976806640625,-0.16253662109375
0.287811279296875,0.9168853759765624,-0.2696075439453125
0.1145782470703125,1.084747314453125,-0.0719757080078125
-0.1708831787109375,1.3227691650390625,-0.1907196044921875
-0.358489990234375,1.6815338134765625,-0.2211761474609375
-0.5973358154296875,1.86163330078125,-0.2599639892578125
-0.71221923828125,1.6532135009765625,-0.3755645751953125
-0.7845306396484375,1.437469482421875,-0.317535400390625
-0.81207275390625,1.3676300048828125,-0.1983795166015625
-0.796112060546875,1.29541015625,-0.13653564453125
-0.795623779296875,1.160430908203125,-0.2222442626953125
-0.814056396484375,1.1449127197265625,-0.177520751953125
-0.8842315673828125,1.0895843505859375,-0.0959320068359375
-1.0042724609375,0.875335693359375,-0.160736083984375
-1.151458740234375,0.9713287353515624,-0.113525390625
-0.8709869384765625,1.0093231201171875,-0.06219482421875
-0.7391204833984375,1.151702880859375,-0.2855987548828125
-0.699676513671875,1.3525848388671875,-0.3560028076171875
-0.718231201171875,1.6012420654296875,-0.4026947021484375
-0.688140869140625,1.69384765625,-0.4755859375
-0.6311492919921875,1.69024658203125,-0.540252685546875
-0.56903076171875,1.769622802734375,-0.5318450927734375
-0.3405303955078125,1.667633056640625,-0.4854583740234375
-0.1966400146484375,1.3650054931640625,-0.419464111328125
-0.176025390625,1.145538330078125,-0.304351806640625
-0.0684814453125,0.998931884765625,-0.2926788330078125
-0.0065460205078125,0.820068359375,-0.2861175537109375
0.0313873291015625,0.72625732421875,-0.248016357421875
0.142730712890625,0.734344482421875,-0.1565093994140625
0.164215087890625,0.801422119140625,-0.043609619140625
-0.01513671875,0.9876861572265624,0.038604736328125
-0.27020263671875,1.2093353271484375,0.0870819091796875
-0.3678436279296875,1.4528961181640625,0.1236419677734375
-0.5652008056640625,1.578399658203125,0.2504730224609375
-0.778228759765625,1.619354248046875,0.31707763671875
-0.848236083984375,1.53350830078125,0.111083984375
-0.9704132080078124,1.3996734619140625,-0.025665283203125
-1.0744476318359375,1.234130859375,0.2217254638671875
-1.0336456298828125,0.9699554443359376,0.3081817626953125
-0.8924102783203125,0.90802001953125,0.145843505859375
-0.7876434326171875,0.8952484130859375,-0.00799560546875
-0.6912689208984375,0.8358917236328125,-0.0478668212890625
-0.6269989013671875,0.9470672607421876,-0.2192535400390625
-0.4900970458984375,1.1089324951171875,-0.45196533203125
-0.255218505859375,1.094146728515625,-0.728179931640625
-0.08062744140625,0.900238037109375,-0.819915771484375
-0.1517791748046875,0.8555908203125,-0.780487060546875
-0.14581298828125,0.91497802734375,-0.7294769287109375
-0.0933380126953125,0.9101715087890624,-0.8580780029296875
-0.143890380859375,0.8521881103515625,-0.986328125
-0.26641845703125,0.8585968017578125,-0.98480224609375
-0.4568939208984375,0.922760009765625,-0.8782196044921875
-0.593109130859375,0.9756622314453124,-0.829193115234375
-0.6700592041015625,1.019439697265625,-0.756378173828125
-0.6356964111328125,1.2407684326171875,-0.755462646484375
-0.50042724609375,1.417877197265625,-0.7436676025390625
-0.3579864501953125,1.4868621826171875,-0.6461334228515625
-0.151123046875,1.368865966796875,-0.5219573974609375
0.4105682373046875,1.3783416748046875,-0.14984130859375
1.3681182861328125,1.547119140625,0.362884521484375
0.6911163330078125,1.5217132568359375,0.311737060546875
-0.4292144775390625,1.3609771728515625,0.423095703125
-0.5361785888671875,1.41595458984375,0.5836944580078125
-0.66583251953125,1.4848785400390625,0.182159423828125
-0.79296875,1.31280517578125,0.0448455810546875
-0.8303070068359375,1.1615753173828125,0.0312042236328125
-0.880401611328125,0.987518310546875,0.085662841796875
-0.8737640380859375,0.9175567626953124,0.0942840576171875
-0.786041259765625,0.9317169189453124,-0.1156158447265625
-0.68536376953125,0.9644775390625,-0.2238311767578125
-0.6833038330078125,0.9695892333984376,-0.274871826171875
-0.6846160888671875,0.9969329833984376,-0.4160614013671875
-0.773284912109375,1.101226806640625,-0.50146484375
-0.7623138427734375,1.141693115234375,-0.4933929443359375
-0.7816314697265625,1.202301025390625,-0.30377197265625
-0.818115234375,1.5009002685546875,-0.3175811767578125
-0.7496185302734375,1.833709716796875,-0.37713623046875
-0.5441436767578125,1.8514404296875,-0.5159454345703125
-0.39117431640625,1.6767425537109375,-0.610107421875
-0.392547607421875,1.5758209228515625,-0.56591796875
-0.3442535400390625,1.4870758056640625,-0.38470458984375
-0.12725830078125,1.382904052734375,-0.3105926513671875
-0.0236663818359375,1.2115325927734375,-0.275848388671875
0.021087646484375,1.05889892578125,-0.0131072998046875
0.3001556396484375,0.8514862060546875,0.193939208984375
0.3870086669921875,0.7721405029296875,0.0576934814453125
0.1938323974609375,0.8849945068359375,0.0692901611328125
0.0955810546875,0.9980926513671876,-0.0331573486328125
-0.0129241943359375,1.393310546875,-0.2275238037109375
-0.2230682373046875,1.735748291015625,-0.18463134765625
-0.588958740234375,1.6556854248046875,0.0076904296875
-0.6937713623046875,1.4895172119140625,-0.0580596923828125
-0.7099456787109375,1.3448944091796875,-0.23052978515625
-0.96807861328125,1.264251708984375,-0.353179931640625
-1.222259521484375,1.138671875,-0.3813629150390625
-1.221588134765625,1.03863525390625,-0.8165740966796875
-1.065460205078125,1.0265960693359375,-0.9579010009765624
-0.9603271484375,1.0664825439453125,-0.5665435791015625
-1.1663818359375,0.9581756591796876,-0.2017822265625
-0.8315582275390625,1.1291046142578125,-0.610443115234375
-0.82757568359375,1.2371826171875,-0.4695587158203125
-0.9665069580078124,1.582061767578125,-0.1574554443359375
-0.567108154296875,1.942840576171875,-0.3676910400390625
-0.362945556640625,1.593902587890625,-0.3275146484375
-0.3856353759765625,1.149169921875,-0.283843994140625
-0.1407318115234375,0.968658447265625,-0.27069091796875
-0.0553436279296875,0.821044921875,-0.18890380859375
-0.1802215576171875,0.738525390625,-0.0928802490234375
-0.201934814453125,0.7901458740234375,-0.0904541015625
-0.0975189208984375,0.8756256103515625,-0.108489990234375
0.08966064453125,0.8950653076171875,-0.1684722900390625
0.07427978515625,0.91986083984375,-0.17376708984375
0.1239776611328125,0.932373046875,-0.0786285400390625
0.0668792724609375,1.0117340087890625,-0.078369140625
-0.149688720703125,1.2939453125,-0.1279296875
-0.330596923828125,1.53607177734375,-0.23529052734375
-0.474639892578125,1.6236724853515625,-0.30853271484375
-0.615966796875,1.5005035400390625,-0.1142425537109375
-0.7062530517578125,1.26007080078125,0.0990447998046875
-0.75030517578125,0.9866485595703124,0.2113800048828125
-0.7570037841796875,0.9240570068359376,0.1670074462890625
-0.88775634765625,1.2449951171875,0.07244873046875
-0.7938079833984375,1.5296173095703125,-0.0432281494140625
-0.75823974609375,1.3922271728515625,-0.32611083984375
-0.9296875,0.9748687744140624,-0.14971923828125
-1.115997314453125,0.77838134765625,0.13555908203125
-0.8708343505859375,0.9383697509765624,0.0482330322265625
-0.8434906005859375,1.3634185791015625,-0.552459716796875
-0.8452911376953125,1.6683807373046875,-0.872314453125
-0.6234893798828125,2.023284912109375,-0.7861480712890625
-0.321624755859375,1.9485321044921875,-1.02935791015625
-0.1441802978515625,1.83111572265625,-0.5661163330078125
-0.1965179443359375,1.63836669921875,-0.146331787109375
-0.198486328125,1.4512786865234375,-0.18603515625
0.2724609375,1.3426055908203125,-0.0712127685546875
0.5777130126953125,1.196746826171875,0.0757904052734375
0.4333648681640625,1.0859832763671875,0.0751190185546875
0.4796142578125,0.99505615234375,-0.1494598388671875
0.33636474609375,1.1922607421875,-0.1440582275390625
0.130035400390625,1.1938018798828125,-0.1900177001953125
-0.319488525390625,1.3936767578125,-0.1787567138671875
-0.5069580078125,1.4013824462890625,0.102783203125
-0.5074462890625,1.223785400390625,-0.0457305908203125
-0.475341796875,1.1270599365234375,-0.29315185546875
-0.4647369384765625,1.1899261474609375,-0.267333984375
-0.605865478515625,1.342376708984375,-0.2551116943359375
-0.789520263671875,1.3508453369140625,-0.1666259765625
-0.9321136474609376,1.2234344482421875,-0.0599517822265625
-0.9693603515625,1.2316131591796875,-0.17230224609375
-0.87530517578125,1.141204833984375,-0.3267974853515625
-0.749786376953125,0.9129791259765624,-0.40185546875
-0.81817626953125,1.04840087890625,-0.4743194580078125
-0.74139404296875,1.0465545654296875,-0.302032470703125
-0.7671356201171875,1.095184326171875,-0.2247467041015625
-0.8075103759765625,1.227325439453125,-0.2771453857421875
-0.647613525390625,1.4016265869140625,-0.399871826171875
-0.51165771484375,1.4763946533203125,-0.5172882080078125
-0.4096221923828125,1.458709716796875,-0.4647369384765625
-0.3333740234375,1.4562225341796875,-0.3763427734375
-0.2171783447265625,1.4545135498046875,-0.3833465576171875
-0.1275482177734375,1.4849700927734375,-0.4366302490234375
0.306488037109375,1.3367462158203125,-0.0421905517578125
0.820831298828125,1.228424072265625,-0.0272674560546875
0.791748046875,0.956787109375,-0.387481689453125
0.408233642578125,0.88201904296875,-0.0166473388671875
0.2214202880859375,1.051666259765625,0.18475341796875
-0.0990142822265625,1.4578094482421875,-0.2134552001953125
-0.2714385986328125,1.749420166015625,-0.5261688232421875
-0.34222412109375,1.509124755859375,-0.6827850341796875
-0.5409088134765625,1.142364501953125,-0.6457061767578125
-0.6701507568359375,1.076080322265625,-0.388458251953125
-0.6830902099609375,1.094757080078125,-0.0755462646484375
-0.643707275390625,0.99066162109375,-0.092620849609375
-0.5592041015625,1.0181427001953125,-0.361328125
-0.569427490234375,1.2200927734375,-0.44525146484375
-0.580535888671875,1.251220703125,-0.614959716796875
-0.59735107421875,1.0074462890625,-0.723175048828125
-0.8756256103515625,0.9350128173828124,-0.5654144287109375
-0.9739990234375,1.018463134765625,-0.400665283203125
-0.8632659912109375,1.159515380859375,-0.1100006103515625
-0.709503173828125,1.478485107421875,-0.2829437255859375
-0.23583984375,1.842803955078125,-0.63385009765625
0.0764617919921875,1.517913818359375,-0.5613250732421875
-0.2592926025390625,1.2476806640625,0.0970001220703125
-0.572265625,1.2593841552734375,-0.00738525390625
-0.4089202880859375,1.4021453857421875,-0.6579132080078125
-0.169647216796875,1.5499725341796875,-0.6513671875
-0.0717620849609375,1.54534912109375,-0.558197021484375
0.390777587890625,1.4221038818359375,-0.720306396484375
0.74334716796875,1.224517822265625,-0.6350555419921875
0.7238922119140625,0.97332763671875,-0.3763885498046875
0.6996612548828125,0.9397735595703124,-0.221221923828125
0.657562255859375,1.0110626220703125,-0.123016357421875
-0.00250244140625,1.397186279296875,0.323486328125
-0.4072723388671875,1.79315185546875,0.6059112548828125
-0.608245849609375,1.7566680908203125,0.3912200927734375
-0.7819671630859375,1.350738525390625,0.3002471923828125
-0.7410125732421875,1.1407928466796875,0.3384246826171875
-0.6414947509765625,1.101776123046875,0.065399169921875
-0.6009674072265625,1.07720947265625,-0.202850341796875
-0.628936767578125,0.985107421875,-0.2407989501953125
-0.6944122314453125,1.0387725830078125,-0.1650848388671875
-0.6107177734375,1.1768798828125,-0.1823883056640625
-0.460296630859375,1.0500030517578125,-0.285247802734375
-0.6102294921875,1.04449462890625,-0.303802490234375
-0.7172698974609375,1.079132080078125,-0.0851898193359375
-0.8462371826171875,1.3469085693359375,-0.07672119140625
-0.826080322265625,1.55859375,-0.2582244873046875
-0.7565765380859375,1.7073974609375,-0.3836822509765625
-0.6498260498046875,1.844329833984375,-0.349609375
-0.4635467529296875,1.847442626953125,-0.32177734375
-0.2579498291015625,1.7301788330078125,-0.3776397705078125
-0.0722503662109375,1.4310150146484375,-0.3614349365234375
0.0431365966796875,1.1770782470703125,-0.269989013671875
0.2154388427734375,1.00701904296875,-0.1866607666015625
0.33428955078125,0.862579345703125,-0.178192138671875
0.284515380859375,0.718292236328125,-0.1564178466796875
0.2096405029296875,0.873626708984375,-0.0316619873046875
0.13739013671875,1.1361083984375,-0.0934600830078125
-0.05126953125,1.493194580078125,-0.1893310546875
-0.33599853515625,1.5890350341796875,-0.1113128662109375
-0.4773101806640625,1.479095458984375,-0.10247802734375
-0.560272216796875,1.389404296875,-0.0812530517578125
-0.5299072265625,1.4136505126953125,-0.109649658203125
-0.6078338623046875,1.393829345703125,-0.153656005859375
-0.6876678466796875,1.2366485595703125,-0.183258056640625
-0.8226165771484375,1.2722625732421875,-0.249298095703125
-0.8501739501953125,1.5130462646484375,-0.2898406982421875
-0.85211181640625,1.3408966064453125,-0.29302978515625
-0.9323883056640624,0.9970245361328124,-0.2749786376953125
-1.0323028564453125,0.8993682861328125,-0.15802001953125
-0.978515625,0.86944580078125,0.005035400390625
-0.98773193359375,1.0756683349609375,-0.1049652099609375
-0.9532623291015624,1.5016632080078125,-0.3347930908203125
-0.8469696044921875,1.8404998779296875,-0.4401092529296875
-0.8127593994140625,1.9189910888671875,-0.4676361083984375
-0.71954345703125,1.9619140625,-0.3859405517578125
-0.465179443359375,1.93505859375,-0.2946624755859375
-0.2468414306640625,1.7350616455078125,-0.324005126953125
-0.137176513671875,1.457305908203125,-0.350982666015625
-0.0912017822265625,1.1673126220703125,-0.2311553955078125
-0.1095428466796875,0.961822509765625,-0.2246551513671875
-0.0217437744140625,0.76861572265625,-0.220001220703125
0.0611724853515625,0.644012451171875,-0.181243896484375
0.0920257568359375,0.7332305908203125,-0.2616119384765625
-0.063079833984375,0.7356109619140625,-0.2195587158203125
-0.343170166015625,0.8377532958984375,-0.0489349365234375
-0.557220458984375,1.1612091064453125,0.1082000732421875
-0.78350830078125,1.43524169921875,0.2663421630859375
-0.872406005859375,1.5358428955078125,0.370147705078125
-0.9601287841796876,1.405517578125,0.319580078125
-0.996673583984375,1.3213958740234375,0.11090087890625
-0.90545654296875,1.205657958984375,0.2034149169921875
-0.9001312255859375,1.1357574462890625,0.551544189453125
-0.994232177734375,1.020477294921875,1.0115966796875
-0.9498443603515624,0.9496917724609376,0.76434326171875
-0.92352294921875,1.0366058349609375,0.3644866943359375
-0.8603973388671875,1.0409698486328125,0.147125244140625
-0.7390899658203125,0.9382781982421876,0.007476806640625
-0.5010986328125,1.0657196044921875,-0.35260009765625
-0.27484130859375,1.24066162109375,-0.47607421875
-0.3944091796875,1.1129913330078125,-0.3765869140625
-0.735443115234375,0.9416046142578124,-0.9954833984375
-0.6070098876953125,0.8474578857421875,-0.8469085693359375
-0.5497589111328125,0.761322021484375,-1.1242523193359375
-0.6311187744140625,0.85009765625,-0.965667724609375
-0.5850982666015625,1.0021820068359375,-0.8990631103515625
-0.5164947509765625,1.050933837890625,-0.5673828125
-0.4942474365234375,1.0758209228515625,-0.264617919921875
-0.5746917724609375,1.2630615234375,-0.0147705078125
-0.7540740966796875,1.3214263916015625,-0.2338714599609375
-0.5030364990234375,1.3756103515625,-0.5643768310546875
-0.2103729248046875,1.5213470458984375,-0.6520233154296875
-0.1939849853515625,1.285675048828125,-0.25543212890625
-0.0210113525390625,1.122406005859375,0.0648040771484375
0.79888916015625,1.1582489013671875,0.023223876953125
0.6669921875,1.1037750244140625,0.1552276611328125
0.2282562255859375,1.2793121337890625,0.1746673583984375
0.5048065185546875,1.36712646484375,0.1986083984375
0.2556304931640625,1.2904510498046875,-0.05902099609375
-0.12872314453125,1.2149200439453125,0.4621734619140625
-0.338531494140625,1.2322845458984375,0.685821533203125
-0.5415496826171875,1.2620086669921875,0.34716796875
-0.646820068359375,1.26324462890625,0.131927490234375
-0.6895904541015625,1.2610931396484375,0.064117431640625
-0.79412841796875,1.212554931640625,0.1000518798828125
-0.787567138671875,1.2554931640625,0.090911865234375
-0.8247528076171875,1.0454559326171875,-0.1725006103515625
-1.187164306640625,0.9254302978515624,-0.4303741455078125
-1.2890167236328125,0.8108367919921875,-0.2756195068359375
-0.98291015625,1.1525421142578125,-0.122589111328125
-0.8786773681640625,1.587005615234375,-0.3961029052734375
-0.8726959228515625,1.9080657958984373,-0.4765472412109375
-0.8047943115234375,2.08599853515625,-0.4204864501953125
-0.7189178466796875,2.129730224609375,-0.36029052734375
-0.422637939453125,2.033294677734375,-0.3083343505859375
-0.2227935791015625,1.7618865966796875,-0.2425994873046875
-0.133636474609375,1.462738037109375,-0.2781829833984375
-0.0953521728515625,1.2815093994140625,-0.2285308837890625
0.186798095703125,1.09783935546875,0.0452117919921875
0.558074951171875,0.888946533203125,0.1753692626953125
0.4316558837890625,0.7189788818359375,-0.024078369140625
0.17791748046875,0.7989044189453125,0.065185546875
0.1126708984375,0.9929656982421876,0.1792144775390625
-0.19537353515625,1.422760009765625,0.1029815673828125
-0.37396240234375,1.74578857421875,0.0554351806640625
-0.539581298828125,1.741180419921875,0.009918212890625
-0.747589111328125,1.527801513671875,0.06536865234375
-0.7762908935546875,1.4782867431640625,0.0164794921875
-0.76873779296875,1.4932708740234375,-0.0323333740234375
-0.88800048828125,1.3998260498046875,-0.181976318359375
-0.9687957763671876,1.289947509765625,-0.327606201171875
-0.7866363525390625,1.2786102294921875,-0.2192535400390625
-0.599761962890625,1.25128173828125,-0.1225738525390625
-0.63739013671875,0.99432373046875,-0.18353271484375
-0.771148681640625,0.8756866455078125,-0.2707366943359375
-0.8328094482421875,0.8021240234375,-0.2045440673828125
-0.9153289794921876,0.9119110107421876,-0.08477783203125
-0.9585418701171876,1.1342620849609375,-0.061553955078125
-0.9902191162109376,1.50445556640625,-0.151519775390625
-0.912994384765625,1.85382080078125,-0.252044677734375
-0.8790435791015625,2.048095703125,-0.251800537109375
-0.603759765625,2.043365478515625,-0.0302276611328125
-0.31927490234375,1.7106781005859375,0.1178741455078125
-0.2043304443359375,1.3590545654296875,0.197723388671875
0.0844573974609375,1.145355224609375,0.375885009765625
0.2852020263671875,0.9514007568359376,0.34637451171875
0.251556396484375,0.8240203857421875,0.1677093505859375
0.0751953125,0.7008514404296875,0.2244720458984375
-0.130767822265625,0.8356170654296875,0.21783447265625
-0.2017974853515625,1.1661224365234375,0.01617431640625
-0.28436279296875,1.38970947265625,-0.2298736572265625
-0.472503662109375,1.5199737548828125,-0.326324462890625
-0.636383056640625,1.450347900390625,-0.273040771484375
-0.6305389404296875,1.1606597900390625,-0.1554107666015625
-0.5801239013671875,0.94158935546875,-0.0242767333984375
-0.4460601806640625,0.8385009765625,0.00592041015625
-0.4099578857421875,0.7309722900390625,-0.08416748046875
-0.6384429931640625,0.7571868896484375,-0.0914154052734375
-1.01837158203125,1.105804443359375,-0.0962677001953125
-1.1748046875,1.5045928955078125,-0.2046051025390625
-1.270904541015625,1.5414886474609375,-0.3736114501953125
-1.1637725830078125,1.2776947021484375,-0.5991668701171875
-1.0764923095703125,0.80426025390625,-0.65869140625
-0.95416259765625,0.851959228515625,-0.3994140625
-0.79718017578125,1.008636474609375,-0.161346435546875
-0.748199462890625,1.341217041015625,-0.277069091796875
-0.8069610595703125,1.5452728271484375,-0.50543212890625
-0.7246856689453125,1.427154541015625,-0.491241455078125
-0.6312103271484375,1.29144287109375,-0.3001251220703125
-0.532318115234375,1.26104736328125,-0.1211395263671875
-0.3430023193359375,1.1923065185546875,-0.009613037109375
-0.1614532470703125,1.1168975830078125,-0.0400238037109375
-0.1332550048828125,1.065155029296875,-0.0565643310546875
-0.08740234375,1.0463714599609375,0.0040130615234375
-0.0303192138671875,0.9873504638671876,0.0163421630859375
0.036956787109375,0.8628082275390625,0.130340576171875
-0.0146484375,0.8135986328125,0.0493316650390625
0.062652587890625,0.978057861328125,-0.013336181640625
0.081817626953125,1.09832763671875,-0.2096405029296875
-0.2346649169921875,1.366668701171875,-0.17230224609375
-0.5067291259765625,1.5638885498046875,-0.1226043701171875
-0.6005401611328125,1.4764556884765625,-0.14068603515625
-0.7197723388671875,1.344696044921875,-0.121185302734375
-0.72467041015625,1.3039398193359375,-0.0315093994140625
-0.742156982421875,1.3430023193359375,-0.028533935546875
-0.7256317138671875,1.3734893798828125,-0.147857666015625
-0.739288330078125,1.274688720703125,-0.1929168701171875
-0.94024658203125,1.2338409423828125,-0.1220855712890625
-1.1767425537109375,1.0357818603515625,-0.0168914794921875
-1.28106689453125,0.80572509765625,0.0370025634765625
-1.0822906494140625,1.065582275390625,0.146240234375
-0.7591552734375,1.26092529296875,-0.078948974609375
-0.7579193115234375,1.3155364990234375,-0.2897186279296875
-0.8947906494140625,1.5163421630859375,-0.29559326171875
-0.8708038330078125,1.753021240234375,-0.2367401123046875
-0.7293853759765625,1.82952880859375,-0.3731536865234375
-0.632232666015625,1.8546142578125,-0.5028228759765625
-0.4680633544921875,1.8334197998046875,-0.436492919921875
-0.2380828857421875,1.6366729736328125,-0.2934112548828125
-0.15020751953125,1.37310791015625,-0.1810760498046875
0.0473480224609375,1.1636810302734375,0.1287841796875
0.367034912109375,0.98907470703125,0.056396484375
0.4078216552734375,0.792816162109375,-0.237091064453125
0.2210235595703125,0.81402587890625,-0.20037841796875
0.1664886474609375,1.013092041015625,0.015838623046875
-0.01129150390625,1.3025054931640625,-0.1435089111328125
-0.476654052734375,1.592010498046875,-0.0506439208984375
-0.774200439453125,1.6246337890625,0.1846160888671875
-0.835357666015625,1.5729522705078125,0.08636474609375
-0.7733306884765625,1.4856414794921875,-0.0534210205078125
-0.7630767822265625,1.3441162109375,-0.131683349609375
-0.8445587158203125,1.1973114013671875,-0.137847900390625
-0.8687744140625,1.188232421875,-0.1057281494140625
-0.8170013427734375,1.2514190673828125,-0.1027374267578125
-0.8934173583984375,1.231781005859375,-0.168548583984375
-0.8922576904296875,0.9812164306640624,-0.1497955322265625
-0.97027587890625,0.7919464111328125,-0.166259765625
-0.9553985595703124,0.787384033203125,-0.202239990234375
-0.910919189453125,0.98492431640625,-0.09906005859375
-0.957977294921875,1.209442138671875,-0.1289520263671875
-1.0843048095703125,1.6015777587890625,-0.3125762939453125
-1.00250244140625,2.000350952148437,-0.397918701171875
-0.9602203369140624,2.246002197265625,-0.34161376953125
-0.693695068359375,2.407257080078125,-0.06011962890625
-0.2932281494140625,2.0625457763671875,0.1639556884765625
0.081634521484375,1.4966583251953125,0.429595947265625
0.519439697265625,1.1302947998046875,0.90008544921875
0.517791748046875,1.0684661865234375,0.6217193603515625
0.2448272705078125,1.0028076171875,0.2604522705078125
0.078399658203125,0.94171142578125,0.1932220458984375
-0.076324462890625,0.963623046875,0.1309814453125
-0.2324066162109375,1.222991943359375,-0.14593505859375
-0.2837677001953125,1.463775634765625,-0.6845703125
-0.292083740234375,1.4491119384765625,-0.5641326904296875
-0.3568572998046875,1.324981689453125,-0.35308837890625
-0.3567657470703125,1.2376708984375,-0.3802490234375
-0.44073486328125,1.2184600830078125,-0.2720947265625
-0.544525146484375,1.12384033203125,-0.0083160400390625
-0.590118408203125,1.090728759765625,0.1067962646484375
-0.6901092529296875,1.3256683349609375,-0.0999603271484375
-0.9796600341796876,1.409820556640625,-0.5087890625
-1.0854949951171875,1.311859130859375,-0.987518310546875
-1.0516510009765625,1.1475677490234375,-0.9246368408203124
-1.18243408203125,0.8811187744140625,-0.555389404296875
-1.2278900146484375,0.9062042236328124,-0.4564361572265625
-1.0692596435546875,1.0099639892578125,-0.426971435546875
-0.9791107177734376,1.252227783203125,-0.419097900390625
-0.9970703125,1.5443115234375,-0.4221343994140625
-0.8795318603515625,1.78411865234375,-0.39422607421875
-0.701263427734375,1.7629547119140625,-0.312835693359375
-0.5759429931640625,1.6716156005859375,-0.1844482421875
-0.3929901123046875,1.50634765625,-0.09783935546875
-0.2246551513671875,1.281982421875,-0.0947723388671875
-0.118560791015625,1.101837158203125,-0.0347747802734375
0.051025390625,0.994964599609375,0.066375732421875
0.193756103515625,0.981170654296875,0.0467376708984375
0.3194122314453125,0.9317626953125,-0.0146942138671875
0.2004852294921875,0.84442138671875,-0.1374359130859375
-0.0893402099609375,0.8955230712890625,0.0077362060546875
-0.219970703125,1.1033477783203125,0.17376708984375
-0.3289337158203125,1.43731689453125,-0.0776214599609375
-0.37823486328125,1.7447662353515625,-0.2487945556640625
-0.501983642578125,1.7698822021484375,-0.4129638671875
-0.7456207275390625,1.6455841064453125,-0.401397705078125
-0.863800048828125,1.535247802734375,-0.254913330078125
-0.85577392578125,1.3834381103515625,-0.1163482666015625
-0.869171142578125,1.1956329345703125,-0.173004150390625
-0.903076171875,1.05126953125,-0.2845306396484375
-0.9486541748046876,1.0500335693359375,-0.2061767578125
-0.8670806884765625,1.0788726806640625,-0.0992279052734375
-0.6891632080078125,0.983856201171875,-0.1042633056640625
-0.7064361572265625,0.835113525390625,-0.15814208984375
-0.80523681640625,0.9030609130859376,-0.1210174560546875
-0.8310394287109375,1.022369384765625,-0.1562652587890625
-0.950653076171875,1.2562408447265625,-0.2579193115234375
-1.002838134765625,1.49749755859375,-0.3090972900390625
-0.9997100830078124,1.8387908935546875,-0.3847503662109375
-0.85400390625,1.9637298583984373,-0.4320068359375
-0.71087646484375,1.9432220458984373,-0.5070953369140625
-0.48577880859375,1.82025146484375,-0.4544525146484375
-0.244049072265625,1.5182952880859375,-0.366851806640625
-0.1420135498046875,1.181884765625,-0.2778167724609375
-0.120452880859375,0.99066162109375,-0.216461181640625
-0.062530517578125,0.853973388671875,-0.1789703369140625
-0.021240234375,0.7092132568359375,-0.1732177734375
-0.08782958984375,0.600616455078125,-0.1918487548828125
-0.17584228515625,0.70172119140625,-0.13372802734375
-0.041473388671875,0.8323211669921875,0.00494384765625
-0.1692352294921875,0.9539947509765624,0.245880126953125
-0.4067535400390625,1.1732635498046875,0.4774322509765625
-0.5895538330078125,1.5362548828125,0.30926513671875
-0.7152862548828125,1.6598968505859375,0.131317138671875
-0.8908843994140625,1.5370635986328125,0.0385284423828125
-0.9903106689453124,1.404998779296875,-0.0251007080078125
-0.9588775634765624,1.1429443359375,0.0678253173828125
-0.9756622314453124,1.056732177734375,-0.0483245849609375
-1.0039215087890625,0.9959716796875,-0.091278076171875
-0.90838623046875,0.956817626953125,0.0241851806640625
-0.732269287109375,0.9461669921875,0.0525665283203125
-0.64422607421875,0.95880126953125,-0.0578460693359375
-0.5955047607421875,0.95745849609375,-0.1197357177734375
-0.61572265625,0.9871673583984376,-0.1158599853515625
-0.625213623046875,0.97930908203125,-0.18701171875
-0.6192626953125,1.0211334228515625,-0.2255859375
-0.416473388671875,1.079742431640625,-0.4304962158203125
-0.09185791015625,1.06292724609375,-0.9398193359375
0.173126220703125,1.0532989501953125,-1.2996978759765625
-0.113372802734375,0.9723968505859376,-0.7041015625
-0.40966796875,0.8264617919921875,-0.6917877197265625
-0.5079803466796875,0.8142547607421875,-0.786224365234375
-0.5595245361328125,0.970947265625,-0.6661529541015625
-0.545928955078125,1.0874786376953125,-0.6002044677734375
-0.65655517578125,1.0156097412109375,-0.511444091796875
-0.7751922607421875,1.0009002685546875,-0.55072021484375
-0.90460205078125,1.188934326171875,-0.6077423095703125
-0.948272705078125,1.369964599609375,-0.612884521484375
-0.8388519287109375,1.5707244873046875,-0.67193603515625
-0.6367340087890625,1.619781494140625,-0.6063079833984375
-0.385833740234375,1.5185089111328125,-0.4763641357421875
-0.207550048828125,1.286346435546875,-0.3514862060546875
0.0190582275390625,1.0216064453125,-0.1543426513671875
0.4125823974609375,0.8614654541015625,0.143341064453125
0.527191162109375,0.785369873046875,0.3173370361328125
0.328094482421875,0.9064788818359376,0.2053375244140625
-0.0558624267578125,1.1275634765625,0.221588134765625
-0.272430419921875,1.4165191650390625,0.1002349853515625
-0.5234832763671875,1.548583984375,0.0993804931640625
-0.781463623046875,1.53118896484375,0.176544189453125
-0.8341827392578125,1.491363525390625,0.175506591796875
-0.8325958251953125,1.3836517333984375,0.077056884765625
-0.890411376953125,1.2246246337890625,0.0609130859375
-0.974334716796875,1.01947021484375,0.099578857421875
-1.004547119140625,0.9881591796875,0.068267822265625
-0.896881103515625,1.066253662109375,0.2039947509765625
-0.75341796875,1.069976806640625,0.0771636962890625
-0.79119873046875,0.986663818359375,-0.210784912109375
-0.9587249755859376,1.01568603515625,-0.28045654296875
-0.92864990234375,1.1414337158203125,-0.1510772705078125
-0.765625,1.1701507568359375,-0.2188262939453125
-0.7310943603515625,1.3832855224609375,-0.334320068359375
-0.6952667236328125,1.6480255126953125,-0.34124755859375
-0.5496826171875,1.5804595947265625,-0.4206695556640625
-0.5743408203125,1.47760009765625,-0.518096923828125
-0.564544677734375,1.4146728515625,-0.464874267578125
-0.4800872802734375,1.3419952392578125,-0.3705902099609375
-0.3881378173828125,1.2231903076171875,-0.30633544921875
-0.3877105712890625,1.1219635009765625,-0.3007965087890625
-0.3572998046875,1.067169189453125,-0.2998504638671875
-0.2270660400390625,0.87994384765625,-0.2407989501953125
-0.1783447265625,0.6446533203125,-0.115081787109375
-0.18218994140625,0.5512237548828125,-0.0246734619140625
-0.095062255859375,0.6309356689453125,0.0556488037109375
-0.0259857177734375,0.7567291259765625,0.2406463623046875
-0.451263427734375,1.05267333984375,0.301788330078125
-1.045440673828125,1.3363189697265625,0.11700439453125
-1.1919097900390625,1.41241455078125,0.2039031982421875
-1.29974365234375,1.2722015380859375,0.205596923828125
-1.3745574951171875,1.0705718994140625,0.135711669921875
-1.2786865234375,0.9186859130859376,-0.133209228515625
-1.150604248046875,0.7716064453125,-0.2696685791015625
-1.17010498046875,0.7423095703125,-0.118560791015625
-1.1511077880859375,0.7630615234375,-0.0352325439453125
-1.0330963134765625,0.8642425537109375,-0.181732177734375
-0.907562255859375,0.8748321533203125,-0.3336181640625
-0.8713226318359375,1.0108795166015625,-0.48516845703125
-1.0072174072265625,1.10809326171875,-0.4339599609375
-1.2072601318359375,1.3372802734375,-0.3932952880859375
-1.1213836669921875,1.0730133056640625,-0.4686737060546875
-1.516326904296875,1.569976806640625,-0.418701171875
-1.6530914306640625,1.6576385498046875,-0.4713134765625
-1.37481689453125,1.70721435546875,-1.0245361328125
-1.47967529296875,1.983123779296875,-0.83331298828125
-1.39544677734375,1.9892425537109373,-0.7735443115234375
-1.0460968017578125,1.944671630859375,-0.804840087890625
-0.646331787109375,1.856536865234375,-0.7040557861328125
-0.3712615966796875,1.6416015625,-0.5105133056640625
0.1175079345703125,1.04779052734375,-0.1326446533203125
0.1747894287109375,0.4755401611328125,0.04534912109375
-0.2701873779296875,-0.040069580078125,0.12152099609375
-0.4505767822265625,-0.098236083984375,-0.54693603515625
-0.36102294921875,-0.0162811279296875,-0.7472991943359375
0.0443115234375,-0.0499725341796875,-0.358917236328125
-0.0439605712890625,-0.3644256591796875,0.06463623046875
-0.454132080078125,-0.6324920654296875,0.10247802734375
-0.4345550537109375,-0.7283172607421875,-0.2732086181640625
-0.0253448486328125,-0.636749267578125,-0.34893798828125
0.0092010498046875,-0.6445159912109375,-0.27655029296875
0.1107635498046875,-0.6119232177734375,-0.1774444580078125
0.1093902587890625,-0.5825042724609375,0.147003173828125
0.21649169921875,-0.3132171630859375,0.374542236328125
0.5533599853515625,-0.0214080810546875,0.4635772705078125
0.659271240234375,0.6341094970703125,0.448760986328125
-0.1036529541015625,1.0921630859375,0.6088714599609375
-0.531036376953125,1.6395721435546875,0.799560546875
0.177642822265625,1.6036376953125,0.522247314453125
0.068084716796875,0.037933349609375,-0.0361328125
0.08685302734375,0.0505218505859375,-0.0401611328125
0.09649658203125,0.0630035400390625,-0.037139892578125
-8.195632934570312,-1.378021240234375,-5.779830932617188
0.567718505859375,-0.191131591796875,-0.0850067138671875
0.01318359375,0.070465087890625,0.041748046875
0.0197906494140625,0.0278167724609375,0.01123046875
0.1212310791015625,0.026763916015625,-0.190948486328125
0.45709228515625,-0.222137451171875,-0.614654541015625
0.189697265625,-0.871612548828125,-0.308258056640625
-1.0948638916015625,0.0325164794921875,-2.21417236328125
-0.221923828125,-0.164520263671875,-0.6031341552734375
-0.416046142578125,-0.5176544189453125,-0.8197784423828125
-0.3750762939453125,-0.220245361328125,-0.908935546875
-0.3928985595703125,-0.302032470703125,-0.8380126953125
-0.3747406005859375,-0.304779052734375,-0.89361572265625
-0.38641357421875,-0.3157958984375,-0.8552093505859375
-0.3837890625,-0.3012847900390625,-0.854278564453125
-0.369659423828125,-0.30645751953125,-0.876434326171875
-0.393707275390625,-0.3007354736328125,-0.8644866943359375
-0.37396240234375,-0.309417724609375,-0.8827362060546875
-0.3900299072265625,-0.2994232177734375,-0.8641357421875
-0.3849639892578125,-0.3063507080078125,-0.8674468994140625
-0.3862152099609375,-0.2989501953125,-0.8717498779296875
-0.3938140869140625,-0.3062896728515625,-0.8618927001953125
-0.3924102783203125,-0.2982025146484375,-0.8532562255859375
-0.3726959228515625,-0.29852294921875,-0.881744384765625
-0.3784637451171875,-0.3017578125,-0.87286376953125
-0.373382568359375,-0.3189239501953125,-0.87384033203125
-0.3872222900390625,-0.3164825439453125,-0.8615875244140625
-0.3729400634765625,-0.300567626953125,-0.8773193359375
-0.3787689208984375,-0.30706787109375,-0.8723907470703125
-0.36669921875,-0.3085784912109375,-0.8762054443359375
-0.3805694580078125,-0.3071136474609375,-0.8653717041015625
-0.372161865234375,-0.309234619140625,-0.874176025390625
-0.367218017578125,-0.318756103515625,-0.8666839599609375
-0.3723907470703125,-0.3023834228515625,-0.8725433349609375
-0.3686065673828125,-0.314849853515625,-0.8715362548828125
-0.37603759765625,-0.3067626953125,-0.873382568359375
-0.3747711181640625,-0.341278076171875,-0.8885955810546875
-0.3771820068359375,-0.2920684814453125,-0.8784942626953125
-0.3688507080078125,-0.3094024658203125,-0.88629150390625
