AccelerationX,AccelerationY,AccelerationZ
-0.06182861328125,-0.2000274658203125,-0.7704010009765625
0.1074066162109375,-0.2042999267578125,-0.7264251708984375
0.15460205078125,-0.0355377197265625,-0.4019775390625
0.0229644775390625,0.09033203125,-0.3605499267578125
0.0628509521484375,0.0406036376953125,-0.0562744140625
0.0390625,0.0101776123046875,-0.03533935546875
2.76141357421875,-0.288055419921875,-3.751144409179688
2.3009796142578125,-0.6291046142578125,-2.326324462890625
0.076141357421875,-0.1597900390625,-0.1885528564453125
0.1342926025390625,-0.1968231201171875,0.0438995361328125
0.8632049560546875,-0.2813568115234375,-1.1737823486328125
0.6126708984375,-0.1287994384765625,-0.913360595703125
0.5951995849609375,-0.2221832275390625,-0.66595458984375
0.596282958984375,-0.19573974609375,-0.7493743896484375
0.619781494140625,-0.1854400634765625,-0.76885986328125
0.6225738525390625,-0.195037841796875,-0.7667694091796875
0.61077880859375,-0.192047119140625,-0.770782470703125
0.624267578125,-0.1922454833984375,-0.7763671875
0.6164398193359375,-0.1937255859375,-0.771820068359375
0.621002197265625,-0.187896728515625,-0.7733306884765625
0.6200408935546875,-0.1904144287109375,-0.770843505859375
0.6159210205078125,-0.2082366943359375,-0.7515869140625
0.52294921875,-0.13726806640625,-0.6253662109375
0.7770233154296875,-0.2559814453125,-0.92779541015625
0.63397216796875,-0.1695556640625,-0.853851318359375
0.602935791015625,-0.186248779296875,-0.7498626708984375
0.6092071533203125,-0.2015838623046875,-0.762298583984375
0.6307830810546875,-0.170166015625,-0.7767486572265625
0.615447998046875,-0.13360595703125,-0.7801513671875
0.6125640869140625,-0.137969970703125,-0.7965087890625
0.595123291015625,-0.2109832763671875,-0.7433013916015625
0.628143310546875,-0.162109375,-0.7673492431640625
0.616424560546875,-0.179656982421875,-0.797088623046875
0.6226654052734375,-0.1712646484375,-0.7688751220703125
0.62921142578125,-0.1805572509765625,-0.746551513671875
0.7676849365234375,-0.19342041015625,-0.838226318359375
0.6279144287109375,-0.169769287109375,-0.7645263671875
0.6190185546875,-0.1633453369140625,-0.741424560546875
0.61962890625,-0.174591064453125,-0.754974365234375
0.628936767578125,-0.1744537353515625,-0.7692108154296875
0.6262969970703125,-0.1694183349609375,-0.7786712646484375
0.6217803955078125,-0.171173095703125,-0.7727813720703125
0.6231231689453125,-0.171173095703125,-0.7804107666015625
0.6220703125,-0.1735076904296875,-0.7745513916015625
0.622314453125,-0.1730804443359375,-0.778900146484375
0.622344970703125,-0.17291259765625,-0.775054931640625
0.62103271484375,-0.171051025390625,-0.7767486572265625
0.6053314208984375,-0.1819305419921875,-0.780487060546875
0.6367950439453125,-0.1588287353515625,-0.7996978759765625
0.6193389892578125,-0.1563720703125,-0.7344818115234375
0.61602783203125,-0.1792449951171875,-0.7721405029296875
0.689605712890625,-0.1900634765625,-0.77801513671875
0.59967041015625,-0.19537353515625,-0.7886962890625
0.6121673583984375,-0.1123809814453125,-0.79083251953125
0.6147308349609375,-0.1578521728515625,-0.7967681884765625
0.6357421875,-0.195953369140625,-0.772491455078125
0.6116180419921875,-0.1592864990234375,-0.7920074462890625
0.6161651611328125,-0.1868896484375,-0.7701263427734375
0.62567138671875,-0.166748046875,-0.79058837890625
0.6347503662109375,-0.1661529541015625,-0.788299560546875
0.6022186279296875,-0.17962646484375,-0.7660064697265625
0.6244049072265625,-0.18145751953125,-0.75628662109375
0.6173248291015625,-0.1631622314453125,-0.7879791259765625
0.6170501708984375,-0.1692352294921875,-0.775970458984375
0.6185150146484375,-0.153106689453125,-0.7859344482421875
0.611358642578125,-0.175201416015625,-0.7811431884765625
0.6248626708984375,-0.1687164306640625,-0.7871856689453125
0.6177520751953125,-0.1641387939453125,-0.7891845703125
0.6160125732421875,-0.1493072509765625,-0.785675048828125
0.625579833984375,-0.172821044921875,-0.7679595947265625
0.6186065673828125,-0.180633544921875,-0.7835845947265625
0.6123199462890625,-0.1510009765625,-0.7963104248046875
0.6285247802734375,-0.1467437744140625,-0.7747344970703125
0.5856781005859375,-0.102752685546875,-0.758331298828125
0.637237548828125,-0.1472320556640625,-0.77777099609375
0.628021240234375,-0.1865234375,-0.8104400634765625
0.6201934814453125,-0.1962432861328125,-0.765899658203125
0.604095458984375,-0.13543701171875,-0.799224853515625
0.6320648193359375,-0.1341094970703125,-0.779541015625
0.6246185302734375,-0.1968841552734375,-0.7723388671875
0.58746337890625,-0.124237060546875,-0.8056182861328125
0.63580322265625,-0.160430908203125,-0.8031463623046875
0.638092041015625,-0.2295379638671875,-0.73651123046875
0.6253509521484375,-0.14544677734375,-0.790191650390625
0.6132659912109375,-0.2155914306640625,-0.7942962646484375
0.658538818359375,-0.1918792724609375,-0.8016357421875
0.6115875244140625,-0.155517578125,-0.7923126220703125
0.583160400390625,-0.048095703125,-0.779083251953125
0.6028594970703125,0.0031890869140625,-0.7779998779296875
0.6472015380859375,-0.1306915283203125,-0.7982177734375
0.61492919921875,-0.1396026611328125,-0.7656402587890625
0.627288818359375,-0.1237335205078125,-0.81512451171875
0.61627197265625,-0.0735015869140625,-0.79217529296875
0.650543212890625,-0.0154571533203125,-0.7141876220703125
0.6300201416015625,-0.2425689697265625,-0.7967529296875
0.5851898193359375,-0.27099609375,-0.7681121826171875
0.6420440673828125,-0.15472412109375,-0.7665557861328125
0.626708984375,-0.1467437744140625,-0.7689971923828125
0.59881591796875,-0.0999908447265625,-0.783447265625
0.63214111328125,-0.143707275390625,-0.780731201171875
0.62542724609375,-0.183258056640625,-0.7613525390625
0.6290130615234375,-0.1912384033203125,-0.7789459228515625
0.6289520263671875,-0.151580810546875,-0.7761688232421875
0.6281280517578125,-0.167144775390625,-0.77294921875
0.626312255859375,-0.16339111328125,-0.7730255126953125
0.62506103515625,-0.1638031005859375,-0.7757720947265625
0.6473846435546875,-0.15618896484375,-0.7696990966796875
0.592559814453125,-0.1806182861328125,-0.7755584716796875
0.61431884765625,-0.16485595703125,-0.777679443359375
0.618499755859375,-0.154571533203125,-0.7724151611328125
0.6381683349609375,-0.1851654052734375,-0.7803802490234375
0.6086273193359375,-0.191436767578125,-0.761962890625
0.64031982421875,-0.1736602783203125,-0.762542724609375
0.63525390625,-0.195770263671875,-0.7518768310546875
0.617706298828125,-0.1593017578125,-0.7781219482421875
0.6350250244140625,-0.1538848876953125,-0.778564453125
0.6062469482421875,-0.1708221435546875,-0.7733917236328125
0.639434814453125,-0.1798858642578125,-0.788909912109375
0.6428375244140625,-0.1900787353515625,-0.76116943359375
0.644775390625,-0.185028076171875,-0.737213134765625
0.663299560546875,-0.0684356689453125,-0.8305206298828125
0.6334381103515625,-0.0929718017578125,-0.829315185546875
0.6242828369140625,-0.11932373046875,-0.7982177734375
0.616241455078125,-0.236175537109375,-0.7660675048828125
0.6472015380859375,-0.203521728515625,-0.7350616455078125
0.648712158203125,-0.1654510498046875,-0.8076171875
0.6259765625,-0.17633056640625,-0.787689208984375
0.641387939453125,-0.1137237548828125,-0.771942138671875
0.6348724365234375,-0.1915740966796875,-0.7643280029296875
0.68792724609375,-0.1297149658203125,-0.7459869384765625
0.6568603515625,-0.18841552734375,-0.754302978515625
0.5905609130859375,-0.113922119140625,-0.7839508056640625
0.6897735595703125,-0.1420745849609375,-0.8256072998046875
0.5840301513671875,-0.2868804931640625,-0.7374725341796875
0.5953216552734375,-0.2424468994140625,-0.707733154296875
0.6522979736328125,-0.205841064453125,-0.7537994384765625
0.60736083984375,-0.20562744140625,-0.7673492431640625
0.721649169921875,-0.1945343017578125,-0.762451171875
0.5764923095703125,-0.196044921875,-0.7392425537109375
0.61480712890625,-0.1673126220703125,-0.8137359619140625
0.635650634765625,-0.1720733642578125,-0.7857818603515625
0.6063385009765625,-0.1749267578125,-0.7751922607421875
0.6479644775390625,-0.1784820556640625,-0.78082275390625
0.6265411376953125,-0.2209014892578125,-0.7060546875
0.6732330322265625,-0.2415924072265625,-0.6951751708984375
0.55487060546875,-0.254730224609375,-0.7682037353515625
0.5079345703125,-0.245269775390625,-0.7070465087890625
0.67877197265625,-0.2342987060546875,-0.8622894287109375
0.6277008056640625,-0.2118682861328125,-0.7447662353515625
0.62091064453125,-0.246978759765625,-0.7116241455078125
0.5953369140625,-0.2089691162109375,-0.771453857421875
0.4517364501953125,-0.2079010009765625,-0.8583221435546875
0.832672119140625,-0.276214599609375,-0.7119293212890625
0.60491943359375,-0.2121124267578125,-0.6967315673828125
0.59869384765625,-0.203155517578125,-0.7690887451171875
0.6741790771484375,-0.2195587158203125,-0.7805938720703125
0.6252288818359375,-0.2191925048828125,-0.720703125
0.582550048828125,-0.244415283203125,-0.7442626953125
0.647430419921875,-0.203948974609375,-0.777557373046875
0.6181182861328125,-0.2079620361328125,-0.7637786865234375
0.623748779296875,-0.2212066650390625,-0.763336181640625
0.6243896484375,-0.214935302734375,-0.75762939453125
0.625823974609375,-0.2159271240234375,-0.76385498046875
0.6246337890625,-0.214874267578125,-0.7666168212890625
0.623291015625,-0.21319580078125,-0.76104736328125
0.6275787353515625,-0.2083740234375,-0.7604827880859375
0.6236419677734375,-0.2145233154296875,-0.76177978515625
0.62371826171875,-0.2109527587890625,-0.7642364501953125
0.58563232421875,-0.2074127197265625,-0.773406982421875
0.6405181884765625,-0.207275390625,-0.7618255615234375
0.6105499267578125,-0.2156524658203125,-0.7474365234375
0.6416473388671875,-0.22479248046875,-0.7565155029296875
0.63055419921875,-0.2198486328125,-0.75018310546875
0.6634979248046875,-0.1832733154296875,-0.7283172607421875
0.677734375,-0.2267608642578125,-0.7715606689453125
0.8659210205078125,-0.23388671875,-0.8128204345703125
1.5635528564453125,0.1335601806640625,-1.5212249755859375
1.24420166015625,-0.07232666015625,-1.482757568359375
0.9199371337890624,-0.1707763671875,-1.134490966796875
0.8403472900390625,-0.2234344482421875,-1.0058441162109375
0.7210845947265625,-0.15142822265625,-0.8171539306640625
0.7641754150390625,-0.0796966552734375,-0.6828460693359375
0.9068145751953124,0.0333251953125,-0.53607177734375
0.9253692626953124,0.0835113525390625,-0.41510009765625
0.9802093505859376,0.1115570068359375,-0.356292724609375
0.8541717529296875,0.1146697998046875,-0.272430419921875
0.8209686279296875,0.1155853271484375,-0.2518768310546875
0.73565673828125,0.1117401123046875,-0.268402099609375
0.6627655029296875,0.10833740234375,-0.241546630859375
0.62432861328125,0.1055908203125,-0.2799224853515625
0.5386810302734375,0.05596923828125,-0.34564208984375
0.4113311767578125,0.0057373046875,-0.4247894287109375
0.311676025390625,-0.0438232421875,-0.5433807373046875
0.3826904296875,-0.007110595703125,-0.6855316162109375
0.5138702392578125,0.037567138671875,-1.032196044921875
0.6436004638671875,0.13629150390625,-1.3473663330078125
0.6146392822265625,0.1267242431640625,-1.461639404296875
0.4410858154296875,0.0712432861328125,-1.2364349365234375
0.3482666015625,-0.0151519775390625,-1.258026123046875
0.223388671875,-0.076812744140625,-1.20465087890625
0.1205291748046875,-0.1195831298828125,-1.20635986328125
0.1620635986328125,-0.1290435791015625,-1.4224700927734375
0.0968780517578125,-0.18121337890625,-1.4980621337890625
0.0124053955078125,-0.27362060546875,-1.560882568359375
-0.0129241943359375,-0.325653076171875,-1.5963897705078125
-0.02032470703125,-0.411895751953125,-1.5510711669921875
0.1595001220703125,-0.4197540283203125,-1.627044677734375
0.2247161865234375,-0.3506317138671875,-1.583892822265625
0.64141845703125,-0.6467742919921875,-1.05084228515625
0.936431884765625,-0.35821533203125,-1.2949676513671875
0.12353515625,-0.0245513916015625,-0.9100494384765624
0.0557098388671875,0.02813720703125,-0.7126312255859375
-0.04119873046875,0.022674560546875,-0.7314910888671875
-0.0921173095703125,0.0285186767578125,-0.8568572998046875
-0.159820556640625,-0.0107269287109375,-1.2230072021484375
-0.3734283447265625,0.1034698486328125,-1.3623809814453125
-0.308502197265625,0.0467681884765625,-1.2233428955078125
-0.2555389404296875,0.045745849609375,-1.280426025390625
-0.264312744140625,-0.039215087890625,-1.4901123046875
-0.212249755859375,-0.0931854248046875,-1.79327392578125
-0.0806427001953125,-0.1662750244140625,-1.7790069580078125
-0.032440185546875,-0.204132080078125,-1.5611724853515625
-0.0037841796875,-0.1623687744140625,-1.317901611328125
-0.0285491943359375,-0.1735992431640625,-1.1224212646484375
-0.1058502197265625,-0.1886138916015625,-1.2681427001953125
-0.1094512939453125,-0.1564178466796875,-1.1914825439453125
-0.058685302734375,-0.1069793701171875,-0.96820068359375
-0.022308349609375,-0.07220458984375,-0.7502593994140625
-0.008056640625,-0.0816802978515625,-0.6868896484375
-0.039337158203125,-0.0983123779296875,-0.72442626953125
-0.0579071044921875,-0.1051177978515625,-0.781707763671875
-0.0884857177734375,-0.12139892578125,-0.8923492431640625
-0.143157958984375,-0.161529541015625,-1.0839691162109375
-0.169342041015625,-0.190673828125,-1.294342041015625
-0.2153167724609375,-0.2156982421875,-1.4976043701171875
-0.275146484375,-0.2178802490234375,-1.79705810546875
-0.31829833984375,-0.230560302734375,-2.0557098388671875
-0.3685150146484375,-0.15911865234375,-2.182357788085937
-0.368499755859375,-0.1218719482421875,-2.0469970703125
-0.3200836181640625,-0.06854248046875,-1.8365631103515625
-0.2640228271484375,-0.04888916015625,-1.6219329833984375
-0.1728057861328125,-0.024200439453125,-1.262176513671875
-0.1119232177734375,-0.02545166015625,-0.8696441650390625
-0.066253662109375,-0.0241851806640625,-0.712158203125
-0.0471954345703125,-0.0308990478515625,-0.5845184326171875
-0.0316314697265625,-0.040802001953125,-0.5639190673828125
-0.0294647216796875,-0.043914794921875,-0.5197906494140625
-0.0319061279296875,-0.0587310791015625,-0.5952301025390625
-0.0351715087890625,-0.0612335205078125,-0.63006591796875
-0.0213470458984375,-0.05181884765625,-0.749755859375
-0.018585205078125,-0.0772705078125,-1.0615692138671875
0.055755615234375,-0.10577392578125,-1.4206695556640625
0.07354736328125,-0.15496826171875,-1.9055938720703125
-0.0518951416015625,-0.3232879638671875,-2.21734619140625
-0.0152740478515625,-0.2479400634765625,-2.1776885986328125
-0.0262603759765625,-0.2694549560546875,-1.9459991455078125
-0.0541229248046875,-0.232421875,-1.8083343505859373
-0.0131378173828125,-0.1739654541015625,-1.467559814453125
-0.0346832275390625,-0.165557861328125,-1.17120361328125
-0.036712646484375,-0.1860809326171875,-0.904022216796875
-0.0324859619140625,-0.2000885009765625,-0.8077850341796875
-0.0052642822265625,-0.2303466796875,-0.8139495849609375
0.0546875,-0.30340576171875,-0.8508453369140625
0.1068878173828125,-0.35650634765625,-0.89154052734375
-0.0379638671875,-0.3260345458984375,-1.0746002197265625
-0.123870849609375,-0.2866668701171875,-1.1763458251953125
-0.176666259765625,-0.3444366455078125,-1.4084930419921875
-0.2390899658203125,-0.3743438720703125,-1.5898284912109375
-0.2684783935546875,-0.4348602294921875,-1.860198974609375
-0.2957611083984375,-0.4334869384765625,-2.1040802001953125
-0.277008056640625,-0.346649169921875,-2.158233642578125
-0.28497314453125,-0.2523040771484375,-2.015533447265625
-0.25946044921875,-0.17645263671875,-1.7369842529296875
-0.2079620361328125,-0.1285858154296875,-1.353729248046875
-0.160614013671875,-0.08782958984375,-1.0503997802734375
-0.1146240234375,-0.069854736328125,-0.7766571044921875
-0.088226318359375,-0.0728912353515625,-0.7299957275390625
-0.0560150146484375,-0.06524658203125,-0.7506561279296875
-0.04595947265625,-0.07659912109375,-0.758819580078125
-0.0204925537109375,-0.0762481689453125,-0.73712158203125
0.0118560791015625,-0.07470703125,-0.79840087890625
0.0458831787109375,-0.080902099609375,-0.9071807861328124
0.049224853515625,-0.0945892333984375,-1.07330322265625
0.0389404296875,-0.1272125244140625,-1.374114990234375
-0.0870361328125,-0.3048553466796875,-1.7257843017578125
-0.094512939453125,-0.2998504638671875,-1.8533172607421875
-0.145721435546875,-0.3137969970703125,-1.8462371826171875
-0.156402587890625,-0.2753448486328125,-1.6831817626953125
-0.116729736328125,-0.31011962890625,-1.525787353515625
-0.063720703125,-0.2567291259765625,-1.282073974609375
-0.02490234375,-0.27313232421875,-1.1768798828125
-0.0211639404296875,-0.2581024169921875,-1.0583343505859375
-0.0159454345703125,-0.2779388427734375,-0.9766693115234376
0.1499176025390625,-0.3882904052734375,-0.9073486328125
0.286529541015625,-0.3900909423828125,-0.9352264404296876
0.0222930908203125,-0.3076934814453125,-1.0543670654296875
-0.1287384033203125,-0.3208160400390625,-1.1928253173828125
-0.1963653564453125,-0.3618621826171875,-1.345367431640625
-0.2412261962890625,-0.3861541748046875,-1.4434814453125
-0.271087646484375,-0.3982696533203125,-1.5796661376953125
-0.293609619140625,-0.4225311279296875,-1.7048492431640625
-0.31488037109375,-0.3921051025390625,-1.822418212890625
-0.3099365234375,-0.3290863037109375,-1.841156005859375
-0.3126068115234375,-0.236785888671875,-1.6385040283203125
-0.26708984375,-0.187347412109375,-1.4213714599609375
-0.2111358642578125,-0.14617919921875,-1.1564178466796875
-0.1721954345703125,-0.1151885986328125,-0.9677886962890624
-0.1326141357421875,-0.095916748046875,-0.8209075927734375
-0.087066650390625,-0.0904083251953125,-0.71942138671875
-0.0592041015625,-0.0812835693359375,-0.6456298828125
-0.0491180419921875,-0.0686187744140625,-0.6374969482421875
-0.04437255859375,-0.079010009765625,-0.8459320068359375
-0.052886962890625,-0.14080810546875,-1.1124267578125
-0.0308837890625,-0.1678314208984375,-1.24847412109375
-0.03118896484375,-0.1851806640625,-1.396331787109375
-0.076995849609375,-0.241455078125,-1.53857421875
-0.086334228515625,-0.2398681640625,-1.5609893798828125
-0.095184326171875,-0.2331085205078125,-1.5104522705078125
-0.1110076904296875,-0.2303619384765625,-1.48052978515625
-0.107177734375,-0.2344207763671875,-1.423431396484375
-0.0818023681640625,-0.2288818359375,-1.3753662109375
-0.0962982177734375,-0.191314697265625,-1.2584686279296875
-0.099578857421875,-0.215057373046875,-1.239105224609375
-0.1497955322265625,-0.2053985595703125,-1.22528076171875
-0.070220947265625,-0.1769256591796875,-1.057861328125
0.0503387451171875,-0.296417236328125,-0.96966552734375
-0.142578125,-0.200531005859375,-1.0269927978515625
-0.193023681640625,-0.2572784423828125,-1.1222991943359375
-0.2660064697265625,-0.21875,-1.248504638671875
-0.3444671630859375,-0.2560272216796875,-1.4123382568359375
-0.3721771240234375,-0.3093109130859375,-1.6275482177734375
-0.402496337890625,-0.3350067138671875,-1.7860107421875
-0.3916168212890625,-0.3374481201171875,-1.917022705078125
-0.383392333984375,-0.2880401611328125,-1.9054107666015625
-0.34564208984375,-0.24566650390625,-1.839813232421875
-0.290618896484375,-0.182403564453125,-1.6366119384765625
-0.23382568359375,-0.135284423828125,-1.4342193603515625
-0.20587158203125,-0.1284027099609375,-1.262481689453125
-0.148529052734375,-0.099822998046875,-1.0485382080078125
-0.0912628173828125,-0.0810089111328125,-0.8372344970703125
-0.07183837890625,-0.064300537109375,-0.7371368408203125
-0.0511016845703125,-0.0487518310546875,-0.7147369384765625
-0.0443572998046875,-0.0493316650390625,-0.7953643798828125
-0.013427734375,-0.048187255859375,-0.8807220458984375
0.01019287109375,-0.0504608154296875,-1.0069427490234375
-0.0646209716796875,-0.144500732421875,-1.2945098876953125
-0.15594482421875,-0.2521820068359375,-1.5164947509765625
-0.110565185546875,-0.1948394775390625,-1.445281982421875
-0.0889129638671875,-0.17242431640625,-1.445404052734375
-0.1000823974609375,-0.1954193115234375,-1.365814208984375
-0.0972900390625,-0.180389404296875,-1.28106689453125
0.0086669921875,-0.1704559326171875,-1.1565093994140625
0.1861572265625,-0.2008819580078125,-1.129730224609375
0.0795135498046875,-0.1504974365234375,-1.07080078125
0.0140838623046875,-0.150970458984375,-1.079925537109375
-0.0354156494140625,-0.1796112060546875,-1.1258087158203125
-0.086669921875,-0.242462158203125,-1.1075897216796875
-0.1769866943359375,-0.2154541015625,-1.1825408935546875
-0.2393646240234375,-0.281585693359375,-1.385589599609375
-0.3060455322265625,-0.2935791015625,-1.5028228759765625
-0.3152313232421875,-0.2940826416015625,-1.5724029541015625
-0.333465576171875,-0.2762451171875,-1.6868438720703125
-0.3439178466796875,-0.2491455078125,-1.718414306640625
-0.34228515625,-0.199798583984375,-1.7823944091796875
-0.3065185546875,-0.17218017578125,-1.669281005859375
-0.2659912109375,-0.1541290283203125,-1.4687652587890625
-0.2161102294921875,-0.1216583251953125,-1.3233184814453125
-0.1815948486328125,-0.1068267822265625,-1.148468017578125
-0.1518096923828125,-0.0847015380859375,-0.9664459228515624
-0.1222991943359375,-0.0688018798828125,-0.8441162109375
-0.098846435546875,-0.050384521484375,-0.7382049560546875
-0.0742034912109375,-0.04266357421875,-0.6567230224609375
-0.0553436279296875,-0.0410919189453125,-0.6807403564453125
-0.0521697998046875,-0.0640106201171875,-0.76678466796875
-0.05657958984375,-0.101043701171875,-0.978759765625
-0.0519561767578125,-0.153106689453125,-1.1263427734375
-0.080047607421875,-0.1873626708984375,-1.2679290771484375
-0.082855224609375,-0.2055816650390625,-1.421966552734375
-0.10467529296875,-0.2297210693359375,-1.464141845703125
-0.0845184326171875,-0.20733642578125,-1.3627471923828125
-0.0923004150390625,-0.2072601318359375,-1.346221923828125
-0.1254730224609375,-0.225921630859375,-1.42828369140625
-0.107635498046875,-0.2231903076171875,-1.42279052734375
-0.132415771484375,-0.235137939453125,-1.3946533203125
-0.121856689453125,-0.2043914794921875,-1.2447357177734375
-0.1338958740234375,-0.2262115478515625,-1.1196746826171875
-0.128326416015625,-0.20587158203125,-1.0004730224609375
-0.1451263427734375,-0.212921142578125,-0.9870758056640624
-0.175384521484375,-0.2408447265625,-1.0974273681640625
-0.233795166015625,-0.243682861328125,-1.186614990234375
-0.2690582275390625,-0.2803192138671875,-1.334991455078125
-0.2881622314453125,-0.286895751953125,-1.502105712890625
-0.3143768310546875,-0.291351318359375,-1.622772216796875
-0.3365325927734375,-0.296539306640625,-1.77703857421875
-0.326080322265625,-0.248870849609375,-1.940093994140625
-0.3045654296875,-0.2222442626953125,-1.738922119140625
-0.271697998046875,-0.1837310791015625,-1.656158447265625
-0.248199462890625,-0.157928466796875,-1.4892578125
-0.1865081787109375,-0.1430511474609375,-1.297149658203125
-0.1448822021484375,-0.1263885498046875,-1.143341064453125
-0.1219940185546875,-0.0966339111328125,-0.973052978515625
-0.094482421875,-0.092681884765625,-0.8333282470703125
-0.072113037109375,-0.07891845703125,-0.7459716796875
-0.0716705322265625,-0.09259033203125,-0.863128662109375
-0.0670318603515625,-0.1154022216796875,-0.9971923828125
-0.0571441650390625,-0.1117401123046875,-1.0454559326171875
-0.0589141845703125,-0.12109375,-1.142242431640625
-0.0883941650390625,-0.1964111328125,-1.259490966796875
-0.08428955078125,-0.1698150634765625,-1.15789794921875
-0.0750732421875,-0.1015167236328125,-1.073974609375
-0.0910491943359375,-0.10345458984375,-1.13836669921875
-0.101104736328125,-0.1316680908203125,-1.2713623046875
-0.096710205078125,-0.1219940185546875,-1.3521270751953125
-0.1102752685546875,-0.123687744140625,-1.4137115478515625
-0.0947723388671875,-0.1151885986328125,-1.4232635498046875
-0.1562042236328125,-0.12420654296875,-1.403076171875
-0.1696624755859375,-0.1402740478515625,-1.33648681640625
-0.189178466796875,-0.1663360595703125,-1.3815460205078125
-0.2139129638671875,-0.18548583984375,-1.352203369140625
-0.21319580078125,-0.17987060546875,-1.2339630126953125
-0.2223968505859375,-0.18798828125,-1.243682861328125
-0.22052001953125,-0.217437744140625,-1.2334442138671875
-0.2263336181640625,-0.2427520751953125,-1.2487945556640625
-0.212066650390625,-0.23834228515625,-1.2391510009765625
-0.2441864013671875,-0.265960693359375,-1.34417724609375
-0.2784423828125,-0.285919189453125,-1.523468017578125
-0.2937469482421875,-0.2657928466796875,-1.580841064453125
-0.2820587158203125,-0.2259063720703125,-1.5092315673828125
-0.2645416259765625,-0.1779327392578125,-1.3790435791015625
-0.2539215087890625,-0.147674560546875,-1.2721405029296875
-0.2133026123046875,-0.1147003173828125,-1.13629150390625
-0.1757965087890625,-0.085205078125,-0.9924774169921876
-0.1457672119140625,-0.0831451416015625,-0.9480743408203124
-0.124969482421875,-0.0742950439453125,-0.9368133544921876
-0.1123809814453125,-0.0740203857421875,-0.9661407470703124
-0.100189208984375,-0.051788330078125,-0.91644287109375
-0.099395751953125,-0.0443115234375,-0.9197235107421876
-0.081146240234375,-0.0599365234375,-0.9174957275390624
-0.0769805908203125,-0.0753173828125,-0.9596710205078124
-0.0934906005859375,-0.09228515625,-1.041290283203125
-0.102569580078125,-0.1215057373046875,-1.1187744140625
-0.0738983154296875,-0.10009765625,-1.0579833984375
-0.05859375,-0.1012115478515625,-1.04107666015625
-0.0427398681640625,-0.1170196533203125,-1.099456787109375
-0.06756591796875,-0.139404296875,-1.2531280517578125
-0.0918426513671875,-0.1702423095703125,-1.40325927734375
-0.1180572509765625,-0.200469970703125,-1.477752685546875
-0.1403656005859375,-0.2002105712890625,-1.52203369140625
-0.1619415283203125,-0.20538330078125,-1.486724853515625
-0.17938232421875,-0.185272216796875,-1.45599365234375
-0.17657470703125,-0.1527252197265625,-1.3787994384765625
-0.1602630615234375,-0.216552734375,-1.3626251220703125
-0.245819091796875,-0.18804931640625,-1.3953857421875
-0.2148284912109375,-0.22076416015625,-1.3184814453125
-0.225555419921875,-0.2134246826171875,-1.16778564453125
-0.1920013427734375,-0.23150634765625,-1.118408203125
-0.2176513671875,-0.2516937255859375,-1.1489715576171875
-0.2153472900390625,-0.281097412109375,-1.216400146484375
-0.2220611572265625,-0.2570953369140625,-1.3671722412109375
-0.257354736328125,-0.251220703125,-1.5488128662109375
-0.2733612060546875,-0.2249908447265625,-1.653289794921875
-0.255340576171875,-0.18182373046875,-1.623626708984375
-0.2332611083984375,-0.1455535888671875,-1.581085205078125
-0.2082977294921875,-0.101043701171875,-1.4557952880859375
-0.1855621337890625,-0.0742034912109375,-1.293121337890625
-0.1514129638671875,-0.053009033203125,-1.140106201171875
-0.1195831298828125,-0.046356201171875,-0.9339752197265624
-0.0682373046875,-0.033233642578125,-0.84271240234375
-0.0489654541015625,-0.033843994140625,-0.7495269775390625
-0.0322265625,-0.04644775390625,-0.6822509765625
-0.0012359619140625,-0.0532073974609375,-0.6417236328125
0.02362060546875,-0.071197509765625,-0.60626220703125
0.0553131103515625,-0.0672760009765625,-0.578765869140625
0.05633544921875,-0.0561065673828125,-0.62591552734375
0.05419921875,-0.071533203125,-0.81256103515625
0.04315185546875,-0.1230316162109375,-1.0754241943359375
0.0597991943359375,-0.162689208984375,-1.2292633056640625
0.0605621337890625,-0.2076873779296875,-1.43475341796875
0.0138702392578125,-0.2485504150390625,-1.52801513671875
-0.0270233154296875,-0.2847747802734375,-1.65838623046875
0.0233612060546875,-0.2468109130859375,-1.53509521484375
-0.051849365234375,-0.2115325927734375,-1.529998779296875
-0.0630035400390625,-0.126708984375,-1.3944091796875
-0.1525421142578125,-0.1598968505859375,-1.3494110107421875
-0.1727294921875,-0.1845703125,-1.3126678466796875
-0.1719512939453125,-0.2059783935546875,-1.3373260498046875
-0.1634063720703125,-0.1922454833984375,-1.26568603515625
-0.1324615478515625,-0.1775054931640625,-1.10552978515625
-0.1265716552734375,-0.2066192626953125,-1.09417724609375
-0.1461029052734375,-0.2148284912109375,-1.111907958984375
-0.14849853515625,-0.2585296630859375,-1.508453369140625
-0.1333770751953125,-0.272613525390625,-1.7286376953125
-0.0983123779296875,-0.2734375,-1.723968505859375
0.1897430419921875,-0.27117919921875,-1.51165771484375
0.4825439453125,-0.22845458984375,-1.746673583984375
0.28564453125,-0.1389312744140625,-1.8446197509765625
-0.09967041015625,-0.0377349853515625,-1.9200897216796875
-0.0600128173828125,-0.05181884765625,-1.51873779296875
-0.0993194580078125,-0.0471343994140625,-1.120635986328125
-0.0733489990234375,-0.0389404296875,-0.96917724609375
0.045135498046875,-0.067596435546875,-0.9927520751953124
-0.002410888671875,-0.1516571044921875,-0.718353271484375
-0.0357818603515625,-0.0647735595703125,-0.3194122314453125
-0.1179656982421875,-0.001312255859375,-0.17529296875
-0.017791748046875,0.0838775634765625,0.0411529541015625
-0.1552276611328125,-0.0608367919921875,0.160369873046875
0.026702880859375,-0.0542755126953125,0.0204315185546875
-0.019073486328125,-0.0096893310546875,-0.0967559814453125
-0.0025482177734375,-0.01904296875,-0.0970001220703125
0.003387451171875,-0.0069580078125,-0.1019287109375
0.0047760009765625,-0.0019073486328125,-0.1201019287109375
0.0204925537109375,-0.008056640625,-0.14581298828125
0.029083251953125,-0.000244140625,-0.1604766845703125
0.040008544921875,0.0203704833984375,-0.186859130859375
0.0385284423828125,0.043060302734375,-0.1917572021484375
0.0430755615234375,0.056976318359375,-0.2055816650390625
0.052001953125,0.0695343017578125,-0.200592041015625
0.05517578125,0.0754852294921875,-0.20733642578125
0.07373046875,0.0854034423828125,-0.2143707275390625
0.090789794921875,0.101104736328125,-0.197021484375
0.0816650390625,0.091522216796875,-0.1745758056640625
0.12420654296875,0.1181793212890625,-0.143798828125
0.1546478271484375,0.0599517822265625,-0.1276702880859375
0.1243438720703125,0.055419921875,-0.10833740234375
0.138702392578125,0.05029296875,-0.0896453857421875
0.11859130859375,0.067718505859375,-0.06219482421875
0.1190185546875,0.0458221435546875,-0.042633056640625
0.1410675048828125,0.037689208984375,-0.0452880859375
0.1523284912109375,0.0252838134765625,-0.026031494140625
0.3365631103515625,0.1485137939453125,0.3674468994140625
4.84423828125,-0.3533172607421875,-3.247955322265625
-0.3600006103515625,0.4640960693359375,0.659881591796875
1.811370849609375,-0.234893798828125,0.3731842041015625
2.4619140625,0.520965576171875,0.159698486328125
0.2686920166015625,0.046905517578125,-0.0953369140625
0.3556060791015625,0.1259307861328125,-0.3806610107421875
0.04998779296875,0.02496337890625,-0.903656005859375
0.2028961181640625,-0.0554962158203125,-0.1900482177734375
0.0006103515625,-0.445465087890625,-0.2355499267578125
0.096099853515625,-2.2208251953125,1.168121337890625
-0.1852569580078125,-0.9260711669921876,0.364044189453125
-0.2613067626953125,0.2359771728515625,0.0829925537109375
-0.7523193359375,0.1087646484375,0.019927978515625
-0.222564697265625,0.799713134765625,3.1934051513671875
-1.2874298095703125,0.852203369140625,1.630767822265625
-0.2960052490234375,-0.2009735107421875,0.700836181640625
0.3704071044921875,-0.1392974853515625,0.4488677978515625
0.252410888671875,0.0561370849609375,0.4871063232421875
0.02447509765625,-0.001556396484375,0.52874755859375
-0.082000732421875,-0.4692230224609375,1.2053375244140625
-0.397369384765625,-0.2567138671875,1.19622802734375
-0.462005615234375,0.0371551513671875,1.0111541748046875
-0.690887451171875,0.1319122314453125,0.996063232421875
-0.48809814453125,0.051361083984375,1.0827178955078125
-0.332275390625,0.031341552734375,0.8548126220703125
-0.3549041748046875,0.068145751953125,0.951446533203125
-0.366455078125,0.040069580078125,0.94415283203125
-0.34698486328125,0.0274505615234375,0.9130859375
-0.3441162109375,0.01605224609375,0.9190826416015624
-0.3333740234375,0.0101318359375,0.910064697265625
-0.341064453125,0.0121917724609375,0.91845703125
-0.347991943359375,0.0261688232421875,0.9276580810546876
-0.3513031005859375,0.0302276611328125,0.9287872314453124
-0.346527099609375,0.0246124267578125,0.9240570068359376
-0.340911865234375,0.0161590576171875,0.920501708984375
-0.3470306396484375,0.0197601318359375,0.923126220703125
-0.3477783203125,0.022674560546875,0.9252166748046876
-0.349090576171875,0.010009765625,0.8665313720703125
-0.289459228515625,0.0602264404296875,0.9026031494140624
-0.623016357421875,0.21392822265625,1.2178192138671875
-0.5590362548828125,0.1881561279296875,1.6845550537109375
-0.8580474853515625,0.3218231201171875,1.9508514404296875
-0.6440887451171875,-0.1476898193359375,1.448150634765625
-0.9336700439453124,-0.7449188232421875,1.55224609375
-0.1418914794921875,-0.070098876953125,0.7243499755859375
-0.0608367919921875,0.0817718505859375,0.3240203857421875
0.1782989501953125,0.2375640869140625,0.07275390625
0.64447021484375,0.16876220703125,-0.5047607421875
0.797210693359375,0.343231201171875,-0.4636077880859375
0.4588165283203125,0.4455718994140625,-0.542327880859375
-0.0221710205078125,2.1234283447265625,-0.9285888671875
0.569091796875,2.570648193359375,-2.4501190185546875
0.62176513671875,0.0246124267578125,-0.872955322265625
0.4828338623046875,-0.148773193359375,-0.78228759765625
0.4820404052734375,-0.2806549072265625,-0.598236083984375
0.489898681640625,-0.5050506591796875,-0.689971923828125
0.4766693115234375,-0.5314788818359375,-0.8495635986328125
0.49603271484375,-0.5592193603515625,-0.8255157470703125
0.525482177734375,-0.207122802734375,-0.8474884033203125
0.5096893310546875,-0.2627716064453125,-0.820404052734375
0.4911956787109375,-0.2886199951171875,-0.834747314453125
0.47314453125,-0.32525634765625,-0.7699737548828125
0.4480743408203125,-0.2464141845703125,-0.89483642578125
0.6124725341796875,-0.2450408935546875,-0.809295654296875
0.579681396484375,-0.3724365234375,-0.6810302734375
0.3957061767578125,-0.3333892822265625,-0.8457489013671875
0.5430908203125,-0.3311309814453125,-0.81353759765625
0.5423736572265625,-0.2527923583984375,-0.86065673828125
0.478668212890625,-0.3749847412109375,-0.789581298828125
0.4943695068359375,-0.317535400390625,-0.81951904296875
0.55419921875,-0.281982421875,-0.834442138671875
0.532073974609375,-0.248626708984375,-0.8713531494140625
0.5337982177734375,-0.3121795654296875,-0.815216064453125
0.46429443359375,-0.3610992431640625,-0.7586517333984375
0.52008056640625,-0.2951507568359375,-0.8168487548828125
0.5255279541015625,-0.270172119140625,-0.8016357421875
0.5284576416015625,-0.2597808837890625,-0.863433837890625
0.502105712890625,-0.3168487548828125,-0.792327880859375
0.5389251708984375,-0.276275634765625,-0.8684844970703125
0.455780029296875,-0.2893524169921875,-0.9089813232421876
0.44427490234375,-0.28997802734375,-0.86962890625
0.5041656494140625,-0.3515472412109375,-0.6389617919921875
0.6585235595703125,-0.452606201171875,-0.5708465576171875
0.61053466796875,-0.600555419921875,-0.725982666015625
0.45770263671875,-0.4312744140625,-0.6661834716796875
0.1529388427734375,-0.3601531982421875,-1.0203857421875
0.4814605712890625,-0.4232940673828125,-0.86114501953125
0.769256591796875,-0.317901611328125,-0.730865478515625
0.5390472412109375,-0.2997894287109375,-0.922698974609375
0.6423492431640625,-0.2042388916015625,-0.8843994140625
0.1752166748046875,-0.6143951416015625,-0.6224517822265625
0.2350311279296875,-0.49090576171875,-0.597076416015625
0.5253143310546875,-0.563232421875,-0.78704833984375
0.6392822265625,-0.3896026611328125,-0.886383056640625
0.6215667724609375,-0.3276824951171875,-0.950347900390625
0.4591827392578125,-0.4199981689453125,-0.8474578857421875
0.5533599853515625,-0.6538848876953125,-0.5824737548828125
0.294769287109375,-0.679534912109375,-0.093780517578125
0.2991790771484375,-0.678955078125,-0.483184814453125
0.7645721435546875,-0.63311767578125,-0.7396087646484375
0.5497589111328125,-0.546112060546875,-0.6761322021484375
0.6056671142578125,-0.575653076171875,-0.7594146728515625
0.5450897216796875,-0.5681304931640625,-0.6535186767578125
0.4148712158203125,-0.679443359375,-0.5504302978515625
0.4818878173828125,-0.688140869140625,-0.534942626953125
0.5407867431640625,-0.656646728515625,-0.601715087890625
0.5426788330078125,-0.590484619140625,-0.51983642578125
0.06768798828125,-0.5270843505859375,-0.1165771484375
-0.3293914794921875,-0.4294586181640625,0.034759521484375
1.596435546875,-1.024261474609375,-1.423187255859375
0.87957763671875,-0.1066436767578125,-0.7869415283203125
0.7315521240234375,-0.40155029296875,-0.594451904296875
0.6374359130859375,-0.5942230224609375,-0.489410400390625
0.464111328125,-0.641143798828125,-0.646209716796875
0.358795166015625,-0.61517333984375,-0.6158447265625
0.3718414306640625,-0.58868408203125,-0.4912261962890625
0.51153564453125,0.1359405517578125,0.1529388427734375
0.04119873046875,-1.1660614013671875,-0.9058837890625
0.37786865234375,-0.63629150390625,-0.576385498046875
0.5273284912109375,-0.510406494140625,-0.98486328125
0.6482696533203125,-0.2781829833984375,-1.0229034423828125
0.5594635009765625,-0.30023193359375,-0.73541259765625
0.696807861328125,-0.2362823486328125,-0.6507110595703125
0.7909698486328125,-0.41815185546875,-0.7414093017578125
0.472564697265625,-0.4994964599609375,-0.4362335205078125
0.5550994873046875,-0.4957275390625,-0.3799591064453125
0.6297607421875,-0.657073974609375,-1.0150604248046875
0.498992919921875,-0.235260009765625,-0.9223175048828124
0.9469146728515624,0.1229400634765625,-0.79010009765625
0.84100341796875,-0.0022735595703125,-0.6789093017578125
0.801910400390625,-0.435699462890625,-0.9649658203125
0.33984375,-0.4659576416015625,-0.6926116943359375
0.38848876953125,-0.5079498291015625,-0.403594970703125
0.490692138671875,-0.43084716796875,-0.6837005615234375
0.5117645263671875,-0.4234161376953125,-0.8120880126953125
0.569854736328125,-0.330535888671875,-0.879364013671875
0.6229400634765625,-0.3689422607421875,-0.728668212890625
0.7035675048828125,-0.3169403076171875,-0.739471435546875
0.569061279296875,-0.3341827392578125,-0.7764434814453125
0.4133758544921875,-0.137725830078125,-0.716705322265625
0.3953094482421875,-0.183868408203125,-1.052459716796875
0.04180908203125,-0.3252410888671875,-0.9771881103515624
0.0938873291015625,-0.2832183837890625,-0.5179290771484375
0.433868408203125,-0.34783935546875,-0.933197021484375
0.8695220947265625,-0.254913330078125,-1.0630340576171875
0.585357666015625,-0.141815185546875,-0.9159088134765624
0.5175323486328125,-0.1134796142578125,-0.905059814453125
0.4629364013671875,-0.2019500732421875,-0.8553314208984375
0.461669921875,-0.2436981201171875,-0.8553466796875
0.4642486572265625,-0.1790771484375,-0.888763427734375
0.4580230712890625,-0.2068939208984375,-0.8693084716796875
0.482025146484375,-0.13037109375,-0.9094390869140624
0.4693603515625,-0.1544952392578125,-0.86376953125
0.5189971923828125,-0.163726806640625,-0.8907012939453125
0.499420166015625,-0.140106201171875,-0.88409423828125
0.4588165283203125,-0.1521148681640625,-0.859222412109375
0.5075531005859375,-0.1593475341796875,-0.8778076171875
0.4694976806640625,-0.1854705810546875,-0.89288330078125
0.3539886474609375,-0.151031494140625,-0.664947509765625
0.6107635498046875,-0.054718017578125,-1.0205078125
0.4828338623046875,-0.1294708251953125,-0.8867645263671875
0.4330291748046875,-0.1155242919921875,-0.925872802734375
0.4675445556640625,-0.0756988525390625,-0.8950347900390625
0.434722900390625,-0.0978546142578125,-0.85687255859375
0.3753509521484375,0.0420074462890625,-0.8076324462890625
0.5447845458984375,-0.09747314453125,-0.9205780029296876
0.55908203125,-0.1827239990234375,-0.87249755859375
0.492401123046875,-0.07232666015625,-0.9005889892578125
0.5171966552734375,-0.0914154052734375,-0.874237060546875
0.48468017578125,-0.022552490234375,-0.8480072021484375
0.489044189453125,-0.084197998046875,-0.8935394287109375
0.4892730712890625,-0.10797119140625,-0.8489227294921875
0.488372802734375,-0.11859130859375,-0.8764801025390625
0.463714599609375,-0.1029815673828125,-0.8780975341796875
0.4666900634765625,-0.116058349609375,-0.887115478515625
0.474456787109375,-0.124847412109375,-0.886932373046875
0.44085693359375,-0.1311492919921875,-0.885406494140625
0.45001220703125,-0.1249237060546875,-0.845001220703125
0.462738037109375,-0.0888824462890625,-0.8296051025390625
0.4829864501953125,-0.084503173828125,-0.8558349609375
0.4394378662109375,-0.090301513671875,-0.810943603515625
0.67816162109375,0.0673675537109375,-0.9249267578125
0.5312652587890625,0.061676025390625,-0.968048095703125
0.4990692138671875,-0.0742340087890625,-0.83416748046875
0.5372467041015625,0.0824127197265625,-1.1235504150390625
0.3785400390625,-0.077484130859375,-0.5523681640625
0.484161376953125,-0.059906005859375,-0.99310302734375
0.441680908203125,-0.07757568359375,-0.8840179443359375
0.41754150390625,-0.0532684326171875,-0.86883544921875
0.4393768310546875,-0.0803985595703125,-0.8964080810546875
0.4733734130859375,-0.0569610595703125,-0.91943359375
0.416778564453125,-0.0423431396484375,-0.9415435791015624
0.4491119384765625,-0.051300048828125,-0.89666748046875
0.4506072998046875,-0.036224365234375,-0.9072113037109376
0.42047119140625,-0.040679931640625,-0.8975677490234375
0.453125,-0.0502166748046875,-0.9072113037109376
0.5424041748046875,-0.0432281494140625,-0.9220123291015624
0.4478759765625,-0.0360107421875,-0.897979736328125
0.4454193115234375,-0.0413818359375,-0.906036376953125
0.4546966552734375,-0.04638671875,-0.90435791015625
0.4644927978515625,-0.0485992431640625,-0.903045654296875
0.46136474609375,-0.0343780517578125,-0.9023590087890624
0.438720703125,-0.0550384521484375,-0.89105224609375
0.4490203857421875,-0.0503997802734375,-0.912078857421875
0.4575042724609375,-0.0463409423828125,-0.9098358154296876
0.44390869140625,-0.0580596923828125,-0.904693603515625
0.452789306640625,-0.04986572265625,-0.90728759765625
0.450439453125,-0.0560302734375,-0.9071807861328124
0.447509765625,-0.063568115234375,-0.90423583984375
0.446533203125,-0.060791015625,-0.9066314697265624
0.458343505859375,-0.0536041259765625,-0.9092559814453124
0.449462890625,-0.05706787109375,-0.911529541015625
0.4464111328125,-0.065948486328125,-0.902618408203125
0.4518280029296875,-0.0595703125,-0.910003662109375
0.4631195068359375,-0.0424041748046875,-0.91656494140625
0.435272216796875,-0.0858154296875,-0.898345947265625
0.4424591064453125,-0.0693817138671875,-0.9140625
0.443328857421875,-0.078887939453125,-0.9090576171875
0.4343719482421875,-0.063385009765625,-0.9095001220703124
0.4503326416015625,-0.0618896484375,-0.908111572265625
0.455230712890625,-0.0580902099609375,-0.9004364013671875
0.4619598388671875,-0.0630645751953125,-0.9023895263671876
0.4463043212890625,-0.054595947265625,-0.902801513671875
0.454833984375,-0.050872802734375,-0.907470703125
0.4547271728515625,-0.05462646484375,-0.9032135009765624
0.4571685791015625,-0.0616302490234375,-0.9062957763671876
0.4532470703125,-0.0544281005859375,-0.90789794921875
0.4496002197265625,-0.05419921875,-0.8970947265625
0.4494171142578125,-0.0587158203125,-0.9068450927734376
0.450042724609375,-0.06121826171875,-0.9052581787109376
0.4523468017578125,-0.0707550048828125,-0.8997039794921875
0.4622955322265625,-0.0516204833984375,-0.9105377197265624
0.4538421630859375,-0.064300537109375,-0.894744873046875
0.4522247314453125,-0.0560302734375,-0.90380859375
0.454833984375,-0.0600128173828125,-0.90472412109375
0.4530487060546875,-0.06982421875,-0.908935546875
0.472015380859375,-0.050994873046875,-0.905731201171875
0.429412841796875,-0.0782623291015625,-0.8799896240234375
0.3886871337890625,-0.12884521484375,-0.8790283203125
0.4312591552734375,-0.07257080078125,-0.9115447998046876
0.48345947265625,-0.0863189697265625,-0.9216766357421876
