AccelerationX,AccelerationY,AccelerationZ
0.1061859130859375,-0.355865478515625,-0.8814544677734375
0.1060333251953125,-0.3635406494140625,-0.8585205078125
0.1222991943359375,-0.382843017578125,-0.8524322509765625
0.1142578125,-0.3825531005859375,-0.8115692138671875
0.1287841796875,-0.3798065185546875,-0.80938720703125
0.144622802734375,-0.4125213623046875,-0.8495941162109375
0.1019439697265625,-0.3972625732421875,-0.81329345703125
0.146087646484375,-0.4006805419921875,-0.788726806640625
0.1591339111328125,-0.4488983154296875,-0.8245697021484375
0.196258544921875,-0.4043731689453125,-0.87896728515625
0.1925506591796875,-0.389892578125,-0.8896942138671875
0.1747894287109375,-0.4322662353515625,-0.90936279296875
0.179473876953125,-0.424072265625,-0.8933868408203125
0.320343017578125,-0.38287353515625,-0.8757476806640625
0.282318115234375,-0.36669921875,-0.86474609375
0.2567138671875,-0.37164306640625,-0.80682373046875
0.3837127685546875,-0.39996337890625,-0.81634521484375
0.3340606689453125,-0.3537139892578125,-0.7990264892578125
0.2796630859375,-0.258544921875,-0.818450927734375
0.2704315185546875,-0.0942840576171875,-0.568634033203125
0.168701171875,-0.25457763671875,-0.840789794921875
0.2993927001953125,-0.152984619140625,-0.846954345703125
0.067718505859375,0.099517822265625,-0.73797607421875
0.1866455078125,0.0727386474609375,-0.912139892578125
0.1604766845703125,0.0660247802734375,-0.9835662841796876
0.1625823974609375,0.1260833740234375,-0.9578399658203124
0.3541717529296875,0.307708740234375,-1.043365478515625
0.4551544189453125,0.3153839111328125,-1.0355377197265625
0.6910552978515625,0.3486328125,-1.13262939453125
0.5810699462890625,0.44189453125,-1.2277374267578125
0.6296539306640625,0.384429931640625,-1.294189453125
0.48345947265625,0.564239501953125,-1.26776123046875
0.69696044921875,0.4510650634765625,-1.2376251220703125
0.7118377685546875,0.3671112060546875,-1.0064697265625
0.630157470703125,0.2742462158203125,-1.033538818359375
0.5434112548828125,0.17156982421875,-1.072723388671875
0.4664306640625,0.257781982421875,-1.0987396240234375
0.4468841552734375,0.2553863525390625,-1.0865936279296875
0.4658050537109375,0.182952880859375,-1.0555419921875
0.39910888671875,0.116241455078125,-1.143310546875
0.33154296875,0.040191650390625,-1.119049072265625
0.3149871826171875,0.0659027099609375,-0.922882080078125
0.317626953125,0.16754150390625,-0.802490234375
0.2610931396484375,0.2971954345703125,-0.9317474365234376
0.3262939453125,0.3747406005859375,-1.0823822021484375
0.450958251953125,0.37554931640625,-1.08917236328125
0.448455810546875,0.3980560302734375,-1.10235595703125
0.471405029296875,0.4019775390625,-1.01513671875
0.462677001953125,0.4726409912109375,-0.967742919921875
0.410308837890625,0.4981231689453125,-0.9365081787109376
0.3900604248046875,0.477996826171875,-0.8478240966796875
0.3462371826171875,0.4618377685546875,-0.7710113525390625
0.3124237060546875,0.43377685546875,-0.6842193603515625
0.2712554931640625,0.3697967529296875,-0.6685028076171875
0.2144927978515625,0.3384552001953125,-0.723541259765625
0.1879425048828125,0.3216400146484375,-0.7979736328125
0.1829376220703125,0.3010406494140625,-0.8348846435546875
0.2223663330078125,0.2960662841796875,-0.837860107421875
0.256134033203125,0.3282318115234375,-0.897552490234375
0.3681793212890625,0.446136474609375,-0.9892578125
0.4683685302734375,0.4995269775390625,-1.07855224609375
0.4007568359375,0.42498779296875,-1.094879150390625
0.320709228515625,0.380035400390625,-1.0187225341796875
0.2296142578125,0.3020477294921875,-1.01837158203125
0.17010498046875,0.22393798828125,-1.02752685546875
0.1558685302734375,0.2273712158203125,-1.03289794921875
0.21087646484375,0.2694549560546875,-0.940032958984375
0.2401123046875,0.3561859130859375,-0.899322509765625
0.275787353515625,0.363006591796875,-0.9633636474609376
0.309814453125,0.3202362060546875,-0.943634033203125
0.333648681640625,0.2849884033203125,-0.9048614501953124
0.32708740234375,0.305999755859375,-0.925445556640625
0.33404541015625,0.3894195556640625,-0.998077392578125
0.3542633056640625,0.4556121826171875,-0.9757843017578124
0.35498046875,0.4339752197265625,-0.9212188720703124
0.31414794921875,0.43072509765625,-0.9017791748046876
0.3061676025390625,0.4560546875,-0.892669677734375
0.3102874755859375,0.4620513916015625,-0.8537445068359375
0.31365966796875,0.4786834716796875,-0.8320770263671875
0.3136749267578125,0.476593017578125,-0.8177642822265625
0.3182830810546875,0.476318359375,-0.78179931640625
0.2971343994140625,0.40850830078125,-0.7434539794921875
0.1963958740234375,0.4550628662109375,-0.9082794189453124
0.2345733642578125,0.4552764892578125,-0.9257354736328124
0.303131103515625,0.4672088623046875,-0.966827392578125
0.31304931640625,0.381561279296875,-0.935333251953125
0.3587799072265625,0.3231201171875,-0.9963836669921876
0.3836669921875,0.31158447265625,-0.9553070068359376
0.4273681640625,0.281646728515625,-0.8601226806640625
0.460357666015625,0.3649139404296875,-0.8223114013671875
0.4690093994140625,0.4852142333984375,-0.8668060302734375
0.4968719482421875,0.5201416015625,-0.9563140869140624
0.5282745361328125,0.518280029296875,-0.9386444091796876
0.5495147705078125,0.5055694580078125,-0.86328125
0.545989990234375,0.54437255859375,-0.85321044921875
0.533660888671875,0.565338134765625,-0.8660430908203125
0.5312347412109375,0.599273681640625,-0.881591796875
0.5213470458984375,0.60040283203125,-0.885711669921875
0.546905517578125,0.5363922119140625,-0.8922576904296875
0.5153961181640625,0.517059326171875,-0.9087371826171876
0.4956207275390625,0.4813232421875,-0.9244232177734376
0.4924468994140625,0.4559326171875,-0.907257080078125
0.4526824951171875,0.4613189697265625,-0.8519287109375
0.404144287109375,0.447601318359375,-0.772186279296875
0.3578643798828125,0.4280853271484375,-0.7194671630859375
0.317291259765625,0.3853912353515625,-0.73114013671875
0.2898406982421875,0.3253326416015625,-0.7288970947265625
0.257568359375,0.300567626953125,-0.7363739013671875
0.234771728515625,0.2822113037109375,-0.7644195556640625
0.2182769775390625,0.3065338134765625,-0.82598876953125
0.2143402099609375,0.3509368896484375,-0.9006195068359375
0.22479248046875,0.3456573486328125,-0.8997955322265625
0.2512664794921875,0.33734130859375,-0.9354095458984376
0.26513671875,0.35748291015625,-1.017608642578125
0.3197174072265625,0.3651580810546875,-1.1118927001953125
0.3997650146484375,0.284820556640625,-1.1622161865234375
0.3879241943359375,0.3053741455078125,-1.1279754638671875
0.3571319580078125,0.3116607666015625,-1.039398193359375
0.31768798828125,0.2931365966796875,-0.9853363037109376
0.2963104248046875,0.29974365234375,-0.988250732421875
0.33062744140625,0.3291778564453125,-1.0027618408203125
0.3650054931640625,0.2793731689453125,-0.97149658203125
0.369659423828125,0.2847442626953125,-0.9961700439453124
0.33367919921875,0.26812744140625,-0.9895782470703124
0.328521728515625,0.2428131103515625,-0.9836273193359376
0.3055877685546875,0.24395751953125,-0.969085693359375
0.2925262451171875,0.2335052490234375,-0.965087890625
0.2921295166015625,0.250213623046875,-0.97869873046875
0.313812255859375,0.2506866455078125,-0.924652099609375
0.327301025390625,0.255340576171875,-0.8589019775390625
0.3519134521484375,0.27630615234375,-0.8897857666015625
0.3448028564453125,0.384429931640625,-1.0778045654296875
0.366943359375,0.541412353515625,-1.1423492431640625
0.46795654296875,0.4425048828125,-1.0637054443359375
0.5168304443359375,0.5239715576171875,-1.12054443359375
0.5293426513671875,0.565093994140625,-1.0530548095703125
0.4924774169921875,0.45013427734375,-0.8702850341796875
0.444000244140625,0.3810577392578125,-0.7677001953125
0.3997039794921875,0.4972076416015625,-0.8902740478515625
0.3578643798828125,0.6126251220703125,-1.0147857666015625
0.3884429931640625,0.624176025390625,-0.9785919189453124
0.4060821533203125,0.5433807373046875,-0.845916748046875
0.36798095703125,0.441375732421875,-0.7371063232421875
0.31646728515625,0.4181365966796875,-0.7310638427734375
0.24371337890625,0.4374542236328125,-0.749755859375
0.19281005859375,0.441925048828125,-0.7687835693359375
0.1676177978515625,0.415435791015625,-0.7708740234375
0.14007568359375,0.379638671875,-0.765380859375
0.126220703125,0.401458740234375,-0.8160400390625
0.15350341796875,0.4343109130859375,-0.8354949951171875
0.227630615234375,0.4924468994140625,-0.9029083251953124
0.3195953369140625,0.5081329345703125,-0.9409027099609376
0.37469482421875,0.495208740234375,-1.006591796875
0.414154052734375,0.5328826904296875,-1.092926025390625
0.5155029296875,0.6881866455078125,-1.2418212890625
0.6101226806640625,0.72503662109375,-1.12396240234375
0.6734771728515625,0.61566162109375,-0.863037109375
0.6701507568359375,0.5194549560546875,-0.7375335693359375
0.6400604248046875,0.4166259765625,-0.7188262939453125
0.6062164306640625,0.3997955322265625,-0.816192626953125
0.574310302734375,0.410675048828125,-0.812957763671875
0.56890869140625,0.402496337890625,-0.7237548828125
0.5295257568359375,0.3382720947265625,-0.7103118896484375
0.4500885009765625,0.2904510498046875,-0.79998779296875
0.3138427734375,0.3180694580078125,-0.94287109375
0.195831298828125,0.3648834228515625,-1.02557373046875
0.1156005859375,0.359283447265625,-0.97930908203125
0.0923004150390625,0.3304595947265625,-0.9073638916015624
0.104827880859375,0.3386383056640625,-0.924713134765625
0.1320648193359375,0.3649749755859375,-0.962127685546875
0.177398681640625,0.3701019287109375,-0.9565277099609376
0.2232513427734375,0.3183441162109375,-0.930694580078125
0.2416229248046875,0.2804107666015625,-0.9615936279296876
0.2559356689453125,0.356964111328125,-1.00958251953125
0.2924346923828125,0.374969482421875,-0.9444580078125
0.3467864990234375,0.382080078125,-0.8588409423828125
0.393402099609375,0.4268951416015625,-0.8225555419921875
0.4247894287109375,0.4712982177734375,-0.8255462646484375
0.4548492431640625,0.4550018310546875,-0.8106231689453125
0.495574951171875,0.3680877685546875,-0.78631591796875
0.5117340087890625,0.2951202392578125,-0.7994537353515625
0.52142333984375,0.26715087890625,-0.8021392822265625
0.49200439453125,0.39508056640625,-0.9658355712890624
0.4580078125,0.5179290771484375,-1.004791259765625
0.477264404296875,0.4643402099609375,-0.8340301513671875
0.4629974365234375,0.407867431640625,-0.733978271484375
0.4140777587890625,0.4173736572265625,-0.7573699951171875
0.391204833984375,0.4243011474609375,-0.811126708984375
0.3614349365234375,0.45855712890625,-0.8356170654296875
0.32122802734375,0.4549102783203125,-0.811309814453125
0.2971649169921875,0.466552734375,-0.78009033203125
0.2897491455078125,0.4665069580078125,-0.7652587890625
0.305694580078125,0.4492950439453125,-0.7817840576171875
0.3277435302734375,0.4060211181640625,-0.8105010986328125
0.3396759033203125,0.3908843994140625,-0.8470611572265625
0.3607635498046875,0.3956756591796875,-0.909210205078125
0.4012908935546875,0.437042236328125,-1.0718231201171875
0.4278717041015625,0.481353759765625,-1.114715576171875
0.508941650390625,0.4630889892578125,-1.1597442626953125
0.5303802490234375,0.33673095703125,-1.162689208984375
0.5092010498046875,0.18670654296875,-1.05853271484375
0.4521636962890625,0.0251312255859375,-0.8897552490234375
0.3933258056640625,0.009918212890625,-0.7871856689453125
0.447509765625,0.215850830078125,-0.9035491943359376
0.5570220947265625,0.4660186767578125,-1.0577545166015625
0.6459197998046875,0.6558380126953125,-1.151763916015625
0.64862060546875,0.64117431640625,-1.0602874755859375
0.551971435546875,0.6026763916015625,-0.9692230224609376
0.50732421875,0.6031036376953125,-0.908905029296875
0.4480438232421875,0.627044677734375,-0.852203369140625
0.37158203125,0.608551025390625,-0.7895660400390625
0.2885284423828125,0.5543975830078125,-0.7314910888671875
0.223846435546875,0.461334228515625,-0.67205810546875
0.1917266845703125,0.3831634521484375,-0.6453399658203125
0.19451904296875,0.390106201171875,-0.6466064453125
0.223663330078125,0.4045562744140625,-0.722198486328125
0.2431488037109375,0.4451904296875,-0.8418426513671875
0.2709503173828125,0.5115814208984375,-1.0373382568359375
0.2532806396484375,0.42962646484375,-1.020904541015625
0.3032989501953125,0.3649749755859375,-1.01593017578125
0.333404541015625,0.4265899658203125,-1.13079833984375
0.3599700927734375,0.37213134765625,-1.11163330078125
0.379119873046875,0.296295166015625,-1.039886474609375
0.364776611328125,0.2412109375,-1.01220703125
0.35089111328125,0.2291107177734375,-0.9942169189453124
0.3746337890625,0.27001953125,-0.94744873046875
0.387786865234375,0.2963104248046875,-0.9297027587890624
0.368865966796875,0.3042144775390625,-0.9418487548828124
0.3508148193359375,0.287750244140625,-0.9647064208984376
0.3433990478515625,0.27935791015625,-0.9778289794921876
0.367919921875,0.3029022216796875,-0.991668701171875
0.4255218505859375,0.364044189453125,-0.996368408203125
0.5269317626953125,0.5387115478515625,-1.089385986328125
0.6280364990234375,0.4639129638671875,-1.0463714599609375
0.666717529296875,0.51910400390625,-0.9477691650390624
0.6605682373046875,0.5662841796875,-0.8737030029296875
0.666107177734375,0.57220458984375,-0.841064453125
0.644927978515625,0.569061279296875,-0.8007049560546875
0.6330413818359375,0.52862548828125,-0.8021392822265625
0.597015380859375,0.4892578125,-0.80731201171875
0.5937042236328125,0.498016357421875,-0.7826995849609375
0.56121826171875,0.5548248291015625,-0.7717437744140625
0.5439605712890625,0.5877685546875,-0.66046142578125
0.5773773193359375,0.4429779052734375,-0.58038330078125
0.5349884033203125,0.4163970947265625,-0.7397308349609375
0.4345245361328125,0.4380950927734375,-0.95904541015625
0.372314453125,0.4982452392578125,-1.1224517822265625
0.324005126953125,0.55584716796875,-1.20843505859375
0.2844696044921875,0.686767578125,-1.272064208984375
0.257293701171875,0.668670654296875,-1.2434844970703125
0.2042236328125,0.6128082275390625,-1.17193603515625
0.1454315185546875,0.5476837158203125,-1.1338043212890625
0.098907470703125,0.561614990234375,-1.081939697265625
0.0718536376953125,0.52508544921875,-0.97100830078125
0.0486602783203125,0.500213623046875,-0.858154296875
0.01910400390625,0.4387359619140625,-0.7581634521484375
-0.0285186767578125,0.4165802001953125,-0.7107086181640625
-0.0489959716796875,0.3834228515625,-0.6639862060546875
-0.0330963134765625,0.36480712890625,-0.659637451171875
0.0160675048828125,0.3942718505859375,-0.699920654296875
0.09765625,0.417144775390625,-0.7516632080078125
0.211029052734375,0.4290618896484375,-0.8241119384765625
0.32110595703125,0.4571075439453125,-0.9398651123046876
0.3889617919921875,0.520660400390625,-1.0294647216796875
0.5035552978515625,0.5999908447265625,-1.08892822265625
0.6166534423828125,0.6262664794921875,-1.0875244140625
0.7430877685546875,0.72216796875,-1.1950836181640625
0.7718353271484375,0.6493988037109375,-1.1939849853515625
0.744476318359375,0.5426788330078125,-1.12518310546875
0.6153717041015625,0.3042144775390625,-0.841583251953125
0.497283935546875,0.188690185546875,-0.75604248046875
0.406768798828125,0.2390899658203125,-0.86041259765625
0.3717803955078125,0.2226715087890625,-0.9539642333984376
0.432708740234375,0.1963653564453125,-1.0274505615234375
0.37744140625,0.2493133544921875,-1.042938232421875
0.2894439697265625,0.3215179443359375,-1.0546112060546875
0.25067138671875,0.370330810546875,-1.06085205078125
0.2113037109375,0.4143524169921875,-1.0423583984375
0.1903533935546875,0.4192657470703125,-0.9152984619140624
0.167724609375,0.4676971435546875,-0.8223114013671875
0.14801025390625,0.465484619140625,-0.76934814453125
0.1957244873046875,0.42529296875,-0.792449951171875
0.19415283203125,0.37969970703125,-0.8004302978515625
0.170257568359375,0.378326416015625,-0.878021240234375
0.169586181640625,0.50018310546875,-0.9425506591796876
0.2274932861328125,0.65093994140625,-0.9892578125
0.3076324462890625,0.6276092529296875,-0.8820037841796875
0.3780059814453125,0.4808502197265625,-0.712158203125
0.4106597900390625,0.391082763671875,-0.6981353759765625
0.373382568359375,0.3659820556640625,-0.8485870361328125
0.37799072265625,0.3569488525390625,-0.9599151611328124
0.4132537841796875,0.400665283203125,-0.9795989990234376
0.4335479736328125,0.47833251953125,-0.9733428955078124
0.4237518310546875,0.527130126953125,-0.92645263671875
0.4087066650390625,0.504150390625,-0.8575897216796875
0.381988525390625,0.4897918701171875,-0.8288421630859375
0.3889617919921875,0.451690673828125,-0.826751708984375
0.4341278076171875,0.4701080322265625,-0.8723297119140625
0.4657135009765625,0.472564697265625,-0.8552703857421875
0.4752044677734375,0.404510498046875,-0.798065185546875
0.468780517578125,0.3874664306640625,-0.8057098388671875
0.42315673828125,0.3825836181640625,-0.82470703125
0.3790130615234375,0.3498992919921875,-0.8384246826171875
0.335296630859375,0.3434600830078125,-0.8462677001953125
0.314178466796875,0.315032958984375,-0.8523406982421875
0.3144073486328125,0.281890869140625,-0.8843994140625
0.3211822509765625,0.262481689453125,-0.9173126220703124
0.3355560302734375,0.244781494140625,-0.9268035888671876
0.347442626953125,0.2516326904296875,-0.98504638671875
0.328155517578125,0.2519073486328125,-1.0431671142578125
0.3229522705078125,0.255157470703125,-1.049163818359375
0.3123779296875,0.2460784912109375,-1.0072784423828125
0.3077392578125,0.250762939453125,-0.9571533203125
0.298614501953125,0.26409912109375,-0.877593994140625
0.303802490234375,0.2596282958984375,-0.85406494140625
0.3261260986328125,0.2900848388671875,-0.929351806640625
0.372955322265625,0.3321990966796875,-0.97052001953125
0.4307098388671875,0.408172607421875,-1.03387451171875
0.4700927734375,0.4042816162109375,-1.0287628173828125
0.4778594970703125,0.326904296875,-0.9870452880859376
0.45361328125,0.29156494140625,-0.9547271728515624
0.409820556640625,0.339324951171875,-0.937408447265625
0.4086151123046875,0.39862060546875,-0.9340362548828124
0.4009857177734375,0.4170379638671875,-0.904327392578125
0.3788604736328125,0.4072265625,-0.8704071044921875
0.3405914306640625,0.4232025146484375,-0.914215087890625
0.287322998046875,0.407073974609375,-0.7864227294921875
0.21954345703125,0.381317138671875,-0.7322540283203125
0.1765289306640625,0.4183502197265625,-0.726348876953125
0.16796875,0.44989013671875,-0.6961669921875
0.1750640869140625,0.480010986328125,-0.73046875
0.217742919921875,0.560455322265625,-0.897705078125
0.290313720703125,0.55419921875,-0.983978271484375
0.383026123046875,0.512664794921875,-1.0144805908203125
0.392364501953125,0.4537506103515625,-1.0089263916015625
0.375244140625,0.3060760498046875,-0.9964447021484376
0.376800537109375,0.1783447265625,-1.0151824951171875
0.413360595703125,0.270904541015625,-1.1054229736328125
0.4509429931640625,0.383087158203125,-1.039276123046875
0.49822998046875,0.4368743896484375,-0.9362030029296876
0.47113037109375,0.4069976806640625,-0.8368072509765625
0.4272613525390625,0.3111572265625,-0.7953948974609375
0.397705078125,0.2576141357421875,-0.8045654296875
0.38262939453125,0.2972564697265625,-0.8204345703125
0.4155731201171875,0.337677001953125,-0.8493499755859375
0.4332427978515625,0.309356689453125,-0.87762451171875
0.3978271484375,0.2915802001953125,-0.8734283447265625
0.3715362548828125,0.340789794921875,-0.86785888671875
0.4146881103515625,0.42352294921875,-0.866851806640625
0.503814697265625,0.4191131591796875,-0.87994384765625
0.532501220703125,0.4153900146484375,-0.85650634765625
0.5396881103515625,0.43048095703125,-0.8398590087890625
0.53607177734375,0.453125,-0.8292999267578125
0.5863189697265625,0.671112060546875,-1.0261383056640625
0.571563720703125,0.5050811767578125,-0.902618408203125
0.54266357421875,0.3961639404296875,-0.9267120361328124
0.54608154296875,0.5135345458984375,-1.057525634765625
0.582183837890625,0.45587158203125,-0.9420318603515624
0.668365478515625,0.49163818359375,-0.9007568359375
0.6793975830078125,0.55352783203125,-0.863922119140625
0.6834869384765625,0.63433837890625,-0.8610687255859375
0.690765380859375,0.6376495361328125,-0.812164306640625
0.638885498046875,0.6307220458984375,-0.7991790771484375
0.575927734375,0.652801513671875,-0.8399505615234375
0.5318756103515625,0.606597900390625,-0.8574371337890625
0.50408935546875,0.60076904296875,-0.895416259765625
0.495697021484375,0.579315185546875,-0.8989715576171875
0.4643402099609375,0.5918426513671875,-0.87811279296875
0.4148101806640625,0.5875396728515625,-0.872589111328125
0.394622802734375,0.5888824462890625,-0.84100341796875
0.340057373046875,0.47998046875,-0.9698333740234376
0.303070068359375,0.4318389892578125,-0.9935302734375
0.2812347412109375,0.381683349609375,-0.9924163818359376
0.2550811767578125,0.36669921875,-0.9832763671875
0.269134521484375,0.3166351318359375,-0.9537200927734376
0.24676513671875,0.2729644775390625,-0.897186279296875
0.2316436767578125,0.2354278564453125,-0.8325958251953125
0.207061767578125,0.2236480712890625,-0.8199615478515625
0.21295166015625,0.2317962646484375,-0.8152008056640625
0.2263641357421875,0.2170867919921875,-0.8199005126953125
0.2371673583984375,0.2545928955078125,-0.864105224609375
0.2687225341796875,0.292205810546875,-0.9449615478515624
0.283599853515625,0.3142852783203125,-0.9946746826171876
0.3056182861328125,0.3706817626953125,-1.054107666015625
0.3157806396484375,0.3704071044921875,-1.0459442138671875
0.32586669921875,0.3717193603515625,-1.018707275390625
0.3438873291015625,0.339996337890625,-1.0080108642578125
0.3720245361328125,0.37921142578125,-0.986083984375
0.396881103515625,0.4520721435546875,-0.91851806640625
0.4093780517578125,0.4990234375,-0.8836517333984375
0.40338134765625,0.481475830078125,-0.8976898193359375
0.3888702392578125,0.4172515869140625,-0.9314117431640624
0.402008056640625,0.3986358642578125,-0.9405975341796876
0.383087158203125,0.3827972412109375,-0.9431915283203124
0.38275146484375,0.3275604248046875,-0.952545166015625
0.38739013671875,0.28533935546875,-0.9561309814453124
0.373992919921875,0.272735595703125,-0.9340972900390624
0.3604278564453125,0.26739501953125,-0.9569244384765624
0.34515380859375,0.224151611328125,-0.932769775390625
0.355010986328125,0.26715087890625,-0.906890869140625
0.39385986328125,0.3794708251953125,-1.0263824462890625
0.4210968017578125,0.451568603515625,-1.1857757568359375
0.4661102294921875,0.3013153076171875,-1.0158538818359375
0.5270843505859375,0.3161468505859375,-0.966644287109375
0.502899169921875,0.4770965576171875,-0.933197021484375
0.4529876708984375,0.4689483642578125,-0.797637939453125
0.462005615234375,0.484771728515625,-0.8491058349609375
0.4484405517578125,0.6101837158203125,-0.99652099609375
0.475616455078125,0.6304473876953125,-1.0757904052734375
0.507476806640625,0.4634246826171875,-0.99493408203125
0.4473419189453125,0.49169921875,-0.958221435546875
0.443145751953125,0.50238037109375,-0.8954315185546875
0.403411865234375,0.5431976318359375,-0.9140625
0.360870361328125,0.522918701171875,-0.867523193359375
0.325347900390625,0.490692138671875,-0.75762939453125
0.291046142578125,0.44451904296875,-0.6821746826171875
0.247283935546875,0.4428558349609375,-0.6458740234375
0.218414306640625,0.4392547607421875,-0.6463470458984375
0.19268798828125,0.44049072265625,-0.7284698486328125
0.2537994384765625,0.5833892822265625,-0.9731903076171876
0.282867431640625,0.6404266357421875,-0.990203857421875
0.368377685546875,0.39251708984375,-0.8362274169921875
0.40924072265625,0.235137939453125,-0.8929595947265625
0.3797149658203125,0.12261962890625,-1.037139892578125
0.2970733642578125,0.3131561279296875,-1.0700531005859375
0.3265380859375,0.4374847412109375,-0.993377685546875
0.4070281982421875,0.3936309814453125,-0.883575439453125
0.442779541015625,0.407958984375,-0.8271636962890625
0.4656982421875,0.459930419921875,-0.8240966796875
0.50738525390625,0.463226318359375,-0.8132476806640625
0.5270233154296875,0.38812255859375,-0.81591796875
0.544708251953125,0.3871002197265625,-0.82867431640625
0.53961181640625,0.44586181640625,-0.8229217529296875
0.53582763671875,0.4951019287109375,-0.7786712646484375
0.5207977294921875,0.5059967041015625,-0.71783447265625
0.4868316650390625,0.5045318603515625,-0.7314605712890625
0.473358154296875,0.493621826171875,-0.7601776123046875
0.4614715576171875,0.5073089599609375,-0.7218170166015625
0.487701416015625,0.494537353515625,-0.73699951171875
0.50164794921875,0.5190887451171875,-0.72369384765625
0.5230560302734375,0.496368408203125,-0.7523193359375
0.535552978515625,0.497955322265625,-0.773712158203125
0.553985595703125,0.496734619140625,-0.791717529296875
0.5750274658203125,0.476806640625,-0.78662109375
0.603668212890625,0.4600067138671875,-0.8105010986328125
0.6025238037109375,0.4626922607421875,-0.833892822265625
0.587677001953125,0.45709228515625,-0.8408050537109375
0.5646514892578125,0.4666900634765625,-0.8933563232421875
0.5308380126953125,0.4831695556640625,-0.900970458984375
0.5305328369140625,0.4563446044921875,-0.855560302734375
0.4856719970703125,0.418731689453125,-0.799102783203125
0.4186859130859375,0.3860015869140625,-0.783660888671875
0.3654022216796875,0.3773956298828125,-0.7851715087890625
0.293304443359375,0.423858642578125,-0.774017333984375
0.2243499755859375,0.4332427978515625,-0.7737579345703125
0.254150390625,0.4002838134765625,-0.8137664794921875
0.2872467041015625,0.399871826171875,-0.8379058837890625
0.333038330078125,0.3942413330078125,-0.8683929443359375
0.33502197265625,0.3494415283203125,-0.8985748291015625
0.3341217041015625,0.30133056640625,-0.923553466796875
0.3360443115234375,0.290191650390625,-0.962371826171875
0.376129150390625,0.339080810546875,-1.0085906982421875
0.445892333984375,0.4835052490234375,-1.1144256591796875
0.51385498046875,0.6128387451171875,-1.15264892578125
0.4940185546875,0.4248199462890625,-0.9264984130859376
0.48046875,0.359954833984375,-0.9029083251953124
0.4540557861328125,0.3004302978515625,-0.8581695556640625
0.4669342041015625,0.34454345703125,-0.9027252197265624
0.5123748779296875,0.5074615478515625,-0.9531402587890624
0.521881103515625,0.64898681640625,-0.9674072265625
0.4967498779296875,0.7257232666015625,-0.926666259765625
0.4509429931640625,0.644287109375,-0.7952728271484375
0.3784332275390625,0.5767059326171875,-0.6899566650390625
0.2837066650390625,0.577880859375,-0.6576080322265625
0.2237396240234375,0.498260498046875,-0.6019287109375
0.1613616943359375,0.4860076904296875,-0.5826416015625
0.139129638671875,0.47174072265625,-0.602783203125
0.168243408203125,0.4175567626953125,-0.628692626953125
0.1975555419921875,0.4166107177734375,-0.6914215087890625
0.1936187744140625,0.4265289306640625,-0.808685302734375
0.2205810546875,0.416351318359375,-0.915252685546875
0.25921630859375,0.436676025390625,-0.981231689453125
0.28057861328125,0.464508056640625,-1.05999755859375
0.2736968994140625,0.390045166015625,-1.123046875
0.3704681396484375,0.5348663330078125,-1.3477630615234375
0.416259765625,0.5455780029296875,-1.3043365478515625
0.4706268310546875,0.2888641357421875,-1.1385040283203125
0.36004638671875,0.2316436767578125,-1.1273040771484375
0.2442779541015625,0.18304443359375,-1.02569580078125
0.2936859130859375,0.24969482421875,-0.88458251953125
0.350494384765625,0.3681488037109375,-0.8246002197265625
0.4488677978515625,0.4545135498046875,-0.877166748046875
0.5561065673828125,0.5027618408203125,-0.943756103515625
0.6368865966796875,0.53662109375,-0.9468841552734376
0.698150634765625,0.600799560546875,-0.8328857421875
0.663299560546875,0.68963623046875,-0.778350830078125
0.6493988037109375,0.7592315673828125,-0.839599609375
0.663818359375,0.6976470947265625,-0.77740478515625
0.608795166015625,0.657501220703125,-0.6903839111328125
0.528350830078125,0.664337158203125,-0.707611083984375
0.504486083984375,0.6275634765625,-0.7497100830078125
0.503082275390625,0.5805511474609375,-0.751251220703125
0.481109619140625,0.5727081298828125,-0.751861572265625
0.4571380615234375,0.596771240234375,-0.7398529052734375
0.4434814453125,0.5506134033203125,-0.7108306884765625
0.4019775390625,0.518310546875,-0.7154388427734375
0.3243560791015625,0.54315185546875,-0.709442138671875
0.2734527587890625,0.5129852294921875,-0.7314910888671875
0.2573394775390625,0.4916229248046875,-0.7367095947265625
0.2657318115234375,0.4601593017578125,-0.7613525390625
0.291473388671875,0.423492431640625,-0.7992706298828125
0.317626953125,0.399017333984375,-0.847381591796875
0.3483428955078125,0.493194580078125,-1.0157012939453125
0.3448638916015625,0.5988922119140625,-1.1120452880859375
0.383209228515625,0.4514617919921875,-0.903961181640625
0.3932342529296875,0.4233856201171875,-1.0617828369140625
0.3211517333984375,0.3303680419921875,-1.1033172607421875
0.3457489013671875,0.217926025390625,-1.0424957275390625
0.3304901123046875,0.2579803466796875,-0.989105224609375
0.3125,0.3336181640625,-0.9713287353515624
0.3209686279296875,0.380859375,-0.937835693359375
0.3637542724609375,0.345458984375,-0.899261474609375
0.3952789306640625,0.292449951171875,-0.8865203857421875
0.3582763671875,0.3218536376953125,-0.87286376953125
0.3356781005859375,0.3780517578125,-0.8287811279296875
0.329620361328125,0.4203338623046875,-0.760162353515625
0.35247802734375,0.45166015625,-0.7229156494140625
0.3856964111328125,0.4329681396484375,-0.72802734375
0.3990478515625,0.4051666259765625,-0.7671661376953125
0.40509033203125,0.401611328125,-0.8305816650390625
0.4186859130859375,0.380096435546875,-0.8300933837890625
0.4366302490234375,0.35699462890625,-0.8330535888671875
0.45623779296875,0.3997955322265625,-0.8768768310546875
0.4477691650390625,0.4105224609375,-0.9647064208984376
0.4757537841796875,0.6378631591796875,-1.20977783203125
0.4825286865234375,0.4742584228515625,-1.0078277587890625
0.4999847412109375,0.4158477783203125,-0.9689178466796876
0.4739227294921875,0.4865264892578125,-0.9755401611328124
0.4469757080078125,0.418853759765625,-0.8634033203125
0.3890380859375,0.3705902099609375,-0.769744873046875
0.355072021484375,0.420562744140625,-0.7595672607421875
0.369964599609375,0.5594024658203125,-0.8944549560546875
0.3632965087890625,0.6256256103515625,-0.9577484130859376
0.3996734619140625,0.5540313720703125,-0.942596435546875
0.40789794921875,0.432281494140625,-0.8456878662109375
0.3512115478515625,0.4053192138671875,-0.7942047119140625
0.302642822265625,0.4373626708984375,-0.7791748046875
0.283538818359375,0.458831787109375,-0.7444000244140625
0.2478485107421875,0.4679107666015625,-0.7446441650390625
0.200042724609375,0.4577178955078125,-0.7279205322265625
0.162200927734375,0.411956787109375,-0.705413818359375
0.12896728515625,0.3758544921875,-0.8651123046875
0.208984375,0.3877410888671875,-0.9262237548828124
0.2755889892578125,0.405853271484375,-0.941986083984375
0.29974365234375,0.466644287109375,-0.9980010986328124
0.4273529052734375,0.52142333984375,-1.06219482421875
0.5979766845703125,0.682373046875,-1.143280029296875
0.752685546875,0.4103240966796875,-1.0181884765625
0.7823486328125,0.2617034912109375,-0.8874969482421875
0.689117431640625,0.3068389892578125,-0.88372802734375
0.6536865234375,0.2866363525390625,-0.87176513671875
0.6229248046875,0.31488037109375,-0.8334808349609375
0.5611419677734375,0.321685791015625,-0.7365264892578125
0.527374267578125,0.3620147705078125,-0.6817474365234375
0.5247039794921875,0.3866729736328125,-0.70001220703125
0.5287933349609375,0.373809814453125,-0.7263336181640625
0.5122833251953125,0.35162353515625,-0.7699737548828125
0.4557952880859375,0.33990478515625,-0.8263397216796875
0.431884765625,0.4184722900390625,-0.8136138916015625
0.4265289306640625,0.43914794921875,-0.797454833984375
0.418426513671875,0.454193115234375,-0.8308258056640625
0.4485321044921875,0.4254913330078125,-0.860504150390625
0.47149658203125,0.415313720703125,-0.8892669677734375
0.422271728515625,0.400634765625,-0.9160003662109376
0.468353271484375,0.3968048095703125,-0.8808746337890625
0.48046875,0.4201507568359375,-0.86395263671875
0.461883544921875,0.4190216064453125,-0.86114501953125
0.4708099365234375,0.4276885986328125,-0.838623046875
0.4908599853515625,0.438201904296875,-0.854461669921875
0.487884521484375,0.4311981201171875,-0.8155975341796875
0.474853515625,0.400909423828125,-0.803863525390625
0.4337005615234375,0.3632659912109375,-0.843048095703125
0.4064788818359375,0.337249755859375,-0.895660400390625
0.3964080810546875,0.3017730712890625,-0.9227294921875
0.3809356689453125,0.263763427734375,-0.93170166015625
0.3549041748046875,0.21356201171875,-0.9786224365234376
0.3176422119140625,0.2046966552734375,-0.996551513671875
0.290618896484375,0.2791748046875,-1.0444183349609375
0.2480926513671875,0.360931396484375,-1.0330047607421875
0.2978668212890625,0.4558563232421875,-0.9924774169921876
0.375579833984375,0.5333404541015625,-0.997314453125
0.43170166015625,0.53839111328125,-1.0190582275390625
0.434051513671875,0.4602813720703125,-0.956573486328125
0.3998260498046875,0.4216766357421875,-0.9168853759765624
0.3670501708984375,0.4445648193359375,-0.9160919189453124
0.336669921875,0.4359130859375,-0.907073974609375
0.3240509033203125,0.4065704345703125,-0.8760528564453125
0.3224334716796875,0.3973388671875,-0.859130859375
0.3113250732421875,0.3640594482421875,-0.773345947265625
0.2783966064453125,0.342559814453125,-0.7540130615234375
0.2410125732421875,0.333465576171875,-0.71600341796875
0.2118377685546875,0.3238677978515625,-0.697418212890625
0.1920623779296875,0.31793212890625,-0.702117919921875
0.18768310546875,0.33087158203125,-0.74560546875
0.1877288818359375,0.375823974609375,-0.828765869140625
0.240447998046875,0.486480712890625,-0.984588623046875
0.3945159912109375,0.5653533935546875,-1.0903167724609375
0.4623260498046875,0.5338287353515625,-1.027984619140625
0.4649658203125,0.5079345703125,-0.948822021484375
0.4463958740234375,0.44464111328125,-0.9410552978515624
0.4555816650390625,0.3097991943359375,-0.9349212646484376
0.4819488525390625,0.242034912109375,-0.96063232421875
0.4861907958984375,0.326019287109375,-0.98486328125
0.4868621826171875,0.4174346923828125,-1.0104522705078125
0.449371337890625,0.3773956298828125,-0.98468017578125
0.3958740234375,0.2867584228515625,-0.937774658203125
0.368255615234375,0.2467498779296875,-0.87890625
0.3130035400390625,0.3072967529296875,-0.8990936279296875
0.307342529296875,0.3439178466796875,-0.849639892578125
0.32830810546875,0.3551177978515625,-0.8674468994140625
0.3349761962890625,0.329986572265625,-0.8993988037109375
0.3321380615234375,0.3149871826171875,-0.919921875
0.3298492431640625,0.2955474853515625,-0.9176483154296876
0.3569488525390625,0.3648681640625,-0.887054443359375
0.3649139404296875,0.44195556640625,-0.8679656982421875
0.3550567626953125,0.46588134765625,-0.8545074462890625
0.368316650390625,0.449249267578125,-0.891693115234375
0.5100250244140625,0.527099609375,-1.023284912109375
0.6015625,0.5089874267578125,-0.9661865234375
0.5994720458984375,0.4127960205078125,-0.767059326171875
0.5897216796875,0.4459228515625,-0.7689361572265625
0.58001708984375,0.5135498046875,-0.8066558837890625
0.6081390380859375,0.5153961181640625,-0.7537841796875
0.652130126953125,0.4575958251953125,-0.678558349609375
0.5755462646484375,0.548492431640625,-0.7465057373046875
0.563690185546875,0.5552520751953125,-0.7649383544921875
0.5897369384765625,0.542022705078125,-0.767364501953125
0.562469482421875,0.553741455078125,-0.7361297607421875
0.5751495361328125,0.5439910888671875,-0.7649993896484375
0.5863189697265625,0.5441131591796875,-0.7524261474609375
0.61065673828125,0.5496063232421875,-0.7833251953125
0.615570068359375,0.536163330078125,-0.798919677734375
0.5946044921875,0.5169525146484375,-0.82830810546875
0.575897216796875,0.51495361328125,-0.8472900390625
0.59503173828125,0.4827880859375,-0.836578369140625
0.55487060546875,0.4800567626953125,-0.85595703125
0.53857421875,0.4899139404296875,-0.843536376953125
0.5219268798828125,0.46453857421875,-0.822235107421875
0.4631805419921875,0.453094482421875,-0.8374176025390625
0.449005126953125,0.464202880859375,-0.846466064453125
0.4629364013671875,0.4995880126953125,-0.8280487060546875
0.408294677734375,0.459197998046875,-0.8068389892578125
0.334716796875,0.38690185546875,-0.7884063720703125
0.2617034912109375,0.3443145751953125,-0.7637176513671875
0.1912689208984375,0.3434906005859375,-0.7745208740234375
0.171875,0.340240478515625,-0.7962646484375
0.1677398681640625,0.323272705078125,-0.891387939453125
0.166717529296875,0.3644866943359375,-0.9750823974609376
0.1968536376953125,0.410125732421875,-1.029998779296875
0.2830657958984375,0.3933868408203125,-1.0433502197265625
0.3143310546875,0.3802642822265625,-1.0416717529296875
0.31317138671875,0.3803558349609375,-1.00567626953125
0.3260650634765625,0.375274658203125,-0.9755706787109376
0.3372039794921875,0.3223419189453125,-0.952056884765625
0.294097900390625,0.340576171875,-0.9636688232421876
0.313568115234375,0.3612823486328125,-0.935546875
0.3523712158203125,0.3667144775390625,-0.9233856201171876
0.377105712890625,0.3600311279296875,-0.9182586669921876
0.3728485107421875,0.33209228515625,-0.89300537109375
0.3754425048828125,0.3270263671875,-0.871826171875
0.362060546875,0.33984375,-0.86004638671875
0.3679962158203125,0.3283233642578125,-0.82647705078125
0.3723907470703125,0.30841064453125,-0.80084228515625
0.3565673828125,0.3090362548828125,-0.824188232421875
0.3699188232421875,0.3442840576171875,-0.8985595703125
0.4005279541015625,0.4059906005859375,-1.0265960693359375
0.4789276123046875,0.497467041015625,-1.1215972900390625
0.474456787109375,0.3468017578125,-1.00146484375
0.4682769775390625,0.333099365234375,-0.9724884033203124
0.4356536865234375,0.3238525390625,-0.87982177734375
0.406005859375,0.2792510986328125,-0.802886962890625
0.402801513671875,0.371826171875,-0.88995361328125
0.4323272705078125,0.566253662109375,-1.0183563232421875
0.4595489501953125,0.575897216796875,-1.0020751953125
0.455078125,0.5045318603515625,-0.9603118896484376
0.4260406494140625,0.44232177734375,-0.882720947265625
0.3703155517578125,0.4683990478515625,-0.8564300537109375
0.3182220458984375,0.525421142578125,-0.863433837890625
0.2686920166015625,0.5409698486328125,-0.82427978515625
0.2438507080078125,0.49639892578125,-0.7587890625
0.1970672607421875,0.4721832275390625,-0.725311279296875
0.16448974609375,0.468780517578125,-0.7186737060546875
0.1649169921875,0.47454833984375,-0.69921875
0.181060791015625,0.461578369140625,-0.709869384765625
0.220306396484375,0.4615478515625,-0.7992095947265625
0.2957916259765625,0.5149993896484375,-0.9279937744140624
0.4021759033203125,0.7828826904296875,-1.1876373291015625
0.5033416748046875,0.7543792724609375,-1.0328216552734375
0.6061248779296875,0.5478363037109375,-0.7820892333984375
0.655731201171875,0.45196533203125,-0.77276611328125
0.5865936279296875,0.3863525390625,-0.9116363525390624
0.546356201171875,0.3699493408203125,-0.9657440185546876
0.5466766357421875,0.4123382568359375,-0.8765869140625
0.4882354736328125,0.4300537109375,-0.8110198974609375
0.4113922119140625,0.419677734375,-0.809478759765625
0.3362579345703125,0.4134368896484375,-0.79583740234375
0.2811431884765625,0.4506683349609375,-0.8170928955078125
0.2351837158203125,0.503326416015625,-0.8401641845703125
0.25042724609375,0.469146728515625,-0.8400726318359375
0.2476654052734375,0.46405029296875,-0.827392578125
0.2289581298828125,0.464752197265625,-0.825897216796875
0.2172393798828125,0.4726715087890625,-0.8398895263671875
0.20098876953125,0.4840240478515625,-0.866790771484375
0.2411041259765625,0.484466552734375,-0.8642120361328125
0.266998291015625,0.4804229736328125,-0.849029541015625
0.2903289794921875,0.4574432373046875,-0.8144683837890625
0.290802001953125,0.4206390380859375,-0.8360595703125
0.2604217529296875,0.4397430419921875,-0.8560333251953125
0.262969970703125,0.4401397705078125,-0.851043701171875
0.2689971923828125,0.4481201171875,-0.8404541015625
0.2694854736328125,0.4583587646484375,-0.840057373046875
0.2755279541015625,0.458282470703125,-0.855804443359375
0.2775726318359375,0.4526519775390625,-0.8719482421875
0.2832489013671875,0.4386749267578125,-0.87835693359375
0.2979583740234375,0.4169769287109375,-0.8866424560546875
0.316802978515625,0.3929290771484375,-0.892425537109375
0.3325042724609375,0.3978118896484375,-0.901580810546875
0.344085693359375,0.380950927734375,-0.900848388671875
0.3535919189453125,0.3714447021484375,-0.9085235595703124
0.345977783203125,0.3648681640625,-0.902069091796875
0.347412109375,0.351806640625,-0.887542724609375
0.3614501953125,0.380035400390625,-0.88800048828125
0.4050445556640625,0.40399169921875,-0.9038848876953124
0.4195709228515625,0.4357452392578125,-0.9337005615234376
0.4321746826171875,0.53582763671875,-0.999114990234375
0.4318389892578125,0.5507049560546875,-0.956512451171875
0.4282073974609375,0.503326416015625,-0.8748016357421875
0.3979644775390625,0.4891357421875,-0.8179779052734375
0.349822998046875,0.4884033203125,-0.7949371337890625
0.3234100341796875,0.48858642578125,-0.7589569091796875
0.308074951171875,0.4865570068359375,-0.7230682373046875
0.2886199951171875,0.471710205078125,-0.716522216796875
0.2772369384765625,0.4543609619140625,-0.730072021484375
0.273284912109375,0.45123291015625,-0.7686614990234375
0.2843780517578125,0.4441986083984375,-0.7835540771484375
0.2824859619140625,0.4227142333984375,-0.7935943603515625
0.27032470703125,0.432830810546875,-0.8581085205078125
0.292083740234375,0.43646240234375,-0.9172821044921876
0.348114013671875,0.5184478759765625,-1.0289306640625
0.4473419189453125,0.6609649658203125,-1.1136932373046875
0.504730224609375,0.5555877685546875,-0.973358154296875
0.5223541259765625,0.3909759521484375,-0.8266143798828125
0.4572906494140625,0.30401611328125,-0.8077850341796875
0.378509521484375,0.2269134521484375,-0.817474365234375
0.3565521240234375,0.2504425048828125,-0.8417510986328125
0.365203857421875,0.419342041015625,-0.9335479736328124
0.3578033447265625,0.5422210693359375,-0.928375244140625
0.3543853759765625,0.383575439453125,-0.85455322265625
0.3269195556640625,0.216705322265625,-0.862640380859375
0.29736328125,0.232818603515625,-0.9026336669921876
0.3237457275390625,0.3328399658203125,-0.902099609375
0.36199951171875,0.3718414306640625,-0.860687255859375
0.3443603515625,0.3552703857421875,-0.8592529296875
0.321014404296875,0.30120849609375,-0.8679656982421875
0.3105621337890625,0.315948486328125,-0.8706817626953125
0.32928466796875,0.355224609375,-0.8664703369140625
0.36279296875,0.4442901611328125,-0.9237213134765624
0.4148712158203125,0.447174072265625,-0.9173126220703124
0.4571990966796875,0.49700927734375,-0.9372406005859376
0.4454498291015625,0.38677978515625,-0.7733154296875
0.446746826171875,0.4174041748046875,-0.7688446044921875
0.5028839111328125,0.564697265625,-0.8814544677734375
0.6417388916015625,0.466033935546875,-0.856842041015625
0.6264801025390625,0.4044647216796875,-0.780242919921875
0.564056396484375,0.479522705078125,-0.751068115234375
0.5470733642578125,0.5192108154296875,-0.720947265625
0.5252227783203125,0.5435028076171875,-0.735382080078125
0.5183258056640625,0.5517120361328125,-0.74212646484375
0.5092010498046875,0.5266876220703125,-0.7574920654296875
0.5243377685546875,0.5431365966796875,-0.779541015625
0.5463409423828125,0.5825347900390625,-0.7742156982421875
0.5623626708984375,0.581756591796875,-0.7352447509765625
0.55072021484375,0.5962677001953125,-0.73077392578125
0.5328521728515625,0.574249267578125,-0.7029571533203125
0.5021514892578125,0.536895751953125,-0.68914794921875
0.46441650390625,0.5213775634765625,-0.7078399658203125
0.4208526611328125,0.4851837158203125,-0.7367401123046875
0.368804931640625,0.4791412353515625,-0.7696685791015625
0.3168182373046875,0.4828033447265625,-0.79315185546875
0.2619781494140625,0.4467926025390625,-0.7946929931640625
0.21881103515625,0.3534393310546875,-0.8618011474609375
0.1939239501953125,0.2995147705078125,-0.933074951171875
0.2210235595703125,0.30712890625,-0.9869537353515624
0.2475738525390625,0.3254547119140625,-0.9809722900390624
0.2600555419921875,0.3307037353515625,-0.98651123046875
0.256744384765625,0.401336669921875,-1.025421142578125
0.2877960205078125,0.462066650390625,-1.007659912109375
0.3070526123046875,0.4555206298828125,-0.946563720703125
0.2826080322265625,0.4037017822265625,-0.9065704345703124
0.23895263671875,0.3725738525390625,-0.8960723876953125
0.2207489013671875,0.381256103515625,-0.8744964599609375
0.2459869384765625,0.3721923828125,-0.842010498046875
0.252166748046875,0.4072113037109375,-0.834503173828125
0.2819061279296875,0.4005279541015625,-0.8316650390625
0.2999725341796875,0.397735595703125,-0.83642578125
0.32415771484375,0.3848114013671875,-0.8380584716796875
0.3375244140625,0.3836669921875,-0.8401947021484375
0.341583251953125,0.3730926513671875,-0.84661865234375
0.3391265869140625,0.349639892578125,-0.84417724609375
0.3405303955078125,0.3197174072265625,-0.834564208984375
0.34527587890625,0.340545654296875,-0.871612548828125
0.370513916015625,0.3769073486328125,-0.9308624267578124
0.413848876953125,0.41058349609375,-0.9952850341796876
0.4055023193359375,0.44305419921875,-0.98388671875
0.3623809814453125,0.3802947998046875,-0.925506591796875
0.364990234375,0.36663818359375,-0.915191650390625
0.38543701171875,0.33184814453125,-0.8711700439453125
0.364105224609375,0.3058319091796875,-0.860321044921875
0.3538055419921875,0.335845947265625,-0.8568572998046875
0.3788299560546875,0.3673858642578125,-0.877838134765625
0.396759033203125,0.436370849609375,-0.988006591796875
0.4062042236328125,0.5211181640625,-1.074249267578125
0.4184112548828125,0.5214385986328125,-1.021087646484375
0.40716552734375,0.4507293701171875,-0.8838043212890625
0.360992431640625,0.42303466796875,-0.831573486328125
0.3074493408203125,0.4431915283203125,-0.841461181640625
0.289581298828125,0.4790191650390625,-0.84423828125
0.283172607421875,0.5013885498046875,-0.79730224609375
0.2742156982421875,0.467071533203125,-0.7674407958984375
0.2400970458984375,0.4505767822265625,-0.7549591064453125
0.2285614013671875,0.4595947265625,-0.7609710693359375
0.251129150390625,0.4532318115234375,-0.7506866455078125
0.26666259765625,0.4384765625,-0.741668701171875
0.2992095947265625,0.5054168701171875,-0.8207855224609375
0.3736419677734375,0.5464324951171875,-0.8724822998046875
0.4539642333984375,0.573822021484375,-0.8777313232421875
0.51220703125,0.592193603515625,-0.857940673828125
0.5588836669921875,0.54376220703125,-0.8218536376953125
0.564971923828125,0.476898193359375,-0.8233642578125
0.5606842041015625,0.4468841552734375,-0.871490478515625
0.538055419921875,0.4223175048828125,-0.8690948486328125
0.5460662841796875,0.41455078125,-0.863677978515625
0.529327392578125,0.4632415771484375,-0.8997802734375
0.5039215087890625,0.49261474609375,-0.9005584716796875
0.458160400390625,0.422393798828125,-0.885955810546875
0.390960693359375,0.362274169921875,-0.89581298828125
0.3183135986328125,0.3327484130859375,-0.9013519287109376
0.282989501953125,0.36834716796875,-0.9163360595703124
0.2855072021484375,0.3883819580078125,-0.868377685546875
0.316009521484375,0.3909149169921875,-0.8669586181640625
0.3297576904296875,0.3605194091796875,-0.870086669921875
0.3147125244140625,0.3169708251953125,-0.851776123046875
0.2822113037109375,0.352447509765625,-0.8513031005859375
0.2659912109375,0.36346435546875,-0.849853515625
0.2411651611328125,0.3565216064453125,-0.8554534912109375
0.23858642578125,0.38018798828125,-0.86431884765625
0.2256622314453125,0.3874664306640625,-0.8518218994140625
0.231109619140625,0.3751678466796875,-0.853179931640625
0.25634765625,0.3665618896484375,-0.8619232177734375
0.275848388671875,0.3504486083984375,-0.8583526611328125
0.31475830078125,0.4024810791015625,-0.916717529296875
0.3354644775390625,0.4332275390625,-0.9663848876953124
0.3451690673828125,0.3699951171875,-0.969879150390625
0.326904296875,0.3649444580078125,-0.9675750732421876
0.320526123046875,0.40704345703125,-0.942138671875
0.3443450927734375,0.4384918212890625,-0.905517578125
0.348907470703125,0.40887451171875,-0.84564208984375
0.33935546875,0.3861541748046875,-0.8442840576171875
0.348297119140625,0.38934326171875,-0.8394012451171875
0.3736572265625,0.4152374267578125,-0.859283447265625
0.378173828125,0.4727935791015625,-0.908172607421875
0.4031829833984375,0.4533843994140625,-0.894073486328125
0.405029296875,0.4290618896484375,-0.8411712646484375
0.38629150390625,0.4394073486328125,-0.8097076416015625
0.3690185546875,0.4599456787109375,-0.7841796875
0.3647003173828125,0.46807861328125,-0.7561798095703125
0.3431549072265625,0.4690399169921875,-0.737335205078125
0.331512451171875,0.45635986328125,-0.7155914306640625
0.3135528564453125,0.442108154296875,-0.735076904296875
0.2963104248046875,0.4182281494140625,-0.758331298828125
0.2911529541015625,0.4254913330078125,-0.8003997802734375
0.3050689697265625,0.4638824462890625,-0.850738525390625
0.35260009765625,0.4596099853515625,-0.862152099609375
0.3986968994140625,0.49761962890625,-0.95086669921875
0.4893951416015625,0.6616363525390625,-1.1264190673828125
0.542327880859375,0.557159423828125,-1.040130615234375
0.551239013671875,0.4332733154296875,-0.9842681884765624
0.4276885986328125,0.351806640625,-0.9506072998046876
0.351287841796875,0.193756103515625,-0.8633880615234375
0.3425750732421875,0.0822601318359375,-0.763458251953125
0.3463134765625,0.16619873046875,-0.812835693359375
0.415008544921875,0.386749267578125,-0.93011474609375
0.497589111328125,0.468475341796875,-0.926666259765625
0.5158538818359375,0.4098663330078125,-0.8346710205078125
0.459991455078125,0.3928680419921875,-0.798431396484375
0.4200897216796875,0.4321441650390625,-0.8241729736328125
0.434051513671875,0.526885986328125,-0.8309173583984375
0.444580078125,0.5396270751953125,-0.7864990234375
0.452911376953125,0.5017852783203125,-0.7850341796875
0.427947998046875,0.47479248046875,-0.8063201904296875
0.441131591796875,0.453704833984375,-0.78265380859375
0.4414520263671875,0.460845947265625,-0.735809326171875
0.427154541015625,0.466033935546875,-0.72247314453125
0.4000396728515625,0.468597412109375,-0.7558135986328125
0.380096435546875,0.4710845947265625,-0.8014068603515625
0.3899993896484375,0.5074920654296875,-0.881378173828125
0.405975341796875,0.530364990234375,-0.914337158203125
0.4004974365234375,0.3412628173828125,-0.77276611328125
0.3751983642578125,0.3678436279296875,-0.8444061279296875
0.387725830078125,0.4920654296875,-0.8934173583984375
0.4734344482421875,0.52239990234375,-0.8414154052734375
0.4864044189453125,0.4645233154296875,-0.7709808349609375
0.4520721435546875,0.423187255859375,-0.76898193359375
0.455230712890625,0.4200286865234375,-0.7630615234375
0.477325439453125,0.47772216796875,-0.7749176025390625
0.4922332763671875,0.5659027099609375,-0.8060760498046875
0.5270233154296875,0.5525665283203125,-0.8088836669921875
0.5408172607421875,0.51458740234375,-0.7959747314453125
0.5460968017578125,0.5022735595703125,-0.772918701171875
0.53759765625,0.5396881103515625,-0.7510986328125
0.5244140625,0.578582763671875,-0.7349395751953125
0.507354736328125,0.5598907470703125,-0.7186126708984375
0.4793548583984375,0.5158538818359375,-0.706207275390625
0.4594879150390625,0.493682861328125,-0.711578369140625
0.429290771484375,0.5017852783203125,-0.7387237548828125
0.4107818603515625,0.5028839111328125,-0.760772705078125
0.400726318359375,0.4860687255859375,-0.7464599609375
0.4079437255859375,0.4800567626953125,-0.7515411376953125
0.3903045654296875,0.433746337890625,-0.749420166015625
0.387054443359375,0.4822845458984375,-0.920654296875
0.331817626953125,0.63702392578125,-1.128204345703125
0.2783355712890625,0.5055389404296875,-0.9778289794921876
0.2262420654296875,0.26544189453125,-0.87115478515625
0.0918731689453125,0.2298126220703125,-0.9317779541015624
0.0697479248046875,0.2548828125,-1.0241546630859375
0.1400604248046875,0.417633056640625,-1.028472900390625
0.220458984375,0.5328369140625,-0.97552490234375
0.2516021728515625,0.5126190185546875,-0.8763275146484375
0.22320556640625,0.344757080078125,-0.8502197265625
0.1881866455078125,0.2896728515625,-0.87554931640625
0.215850830078125,0.334442138671875,-0.8561859130859375
0.274566650390625,0.38299560546875,-0.8155364990234375
0.3160858154296875,0.42156982421875,-0.813262939453125
0.328857421875,0.4259796142578125,-0.8122406005859375
0.3296356201171875,0.3901519775390625,-0.7810516357421875
0.34332275390625,0.3665618896484375,-0.7686004638671875
0.3526153564453125,0.3932342529296875,-0.782196044921875
0.37481689453125,0.3888397216796875,-0.79876708984375
0.3790740966796875,0.3785400390625,-0.8560638427734375
0.381561279296875,0.3654632568359375,-0.945404052734375
0.393310546875,0.347564697265625,-1.003265380859375
0.40338134765625,0.313323974609375,-1.006256103515625
0.375396728515625,0.382598876953125,-1.0308990478515625
0.3477935791015625,0.411712646484375,-1.0175323486328125
0.3582000732421875,0.4339447021484375,-1.011138916015625
0.372039794921875,0.3919219970703125,-0.955169677734375
0.3596649169921875,0.3206787109375,-0.8794097900390625
0.351806640625,0.327545166015625,-0.8656768798828125
0.3491668701171875,0.3669891357421875,-0.857147216796875
0.349395751953125,0.316192626953125,-0.81793212890625
0.3679046630859375,0.447540283203125,-0.982330322265625
0.3932952880859375,0.6017303466796875,-1.0817108154296875
0.412445068359375,0.56585693359375,-0.9665069580078124
0.3961029052734375,0.4752044677734375,-0.8140106201171875
0.325775146484375,0.4334259033203125,-0.7898712158203125
0.282257080078125,0.456878662109375,-0.8103485107421875
0.2766571044921875,0.4775848388671875,-0.789093017578125
0.282745361328125,0.4277191162109375,-0.78741455078125
0.294036865234375,0.3734283447265625,-0.8637542724609375
0.2435302734375,0.361968994140625,-0.884185791015625
0.2861175537109375,0.3474884033203125,-0.895904541015625
0.3736724853515625,0.36419677734375,-0.857513427734375
0.4039764404296875,0.334686279296875,-0.8615264892578125
0.4689483642578125,0.270294189453125,-0.9481201171875
0.4888458251953125,0.3149566650390625,-0.9611968994140624
0.546844482421875,0.229644775390625,-0.8488922119140625
0.6057586669921875,0.2451324462890625,-0.87982177734375
0.641204833984375,0.2166748046875,-0.913909912109375
0.6997528076171875,0.161529541015625,-0.8867950439453125
0.66705322265625,0.2336578369140625,-0.850372314453125
0.5873260498046875,0.20745849609375,-0.8168182373046875
0.478057861328125,0.3029937744140625,-0.9019012451171876
0.349273681640625,0.3162078857421875,-0.842041015625
0.2742919921875,0.2239532470703125,-0.765106201171875
0.346221923828125,0.1689605712890625,-0.746856689453125
0.289276123046875,0.0784454345703125,-0.798919677734375
0.4899139404296875,-0.0299072265625,-0.889404296875
0.4557037353515625,0.0092926025390625,-0.9464263916015624
-0.2021484375,-0.50164794921875,-1.0656585693359375
0.16302490234375,-0.25567626953125,-0.8740997314453125
0.1933135986328125,-0.1625518798828125,-1.1319427490234375
0.006317138671875,-0.114501953125,-1.0289764404296875
-0.0853729248046875,-0.0273590087890625,-0.896575927734375
-0.045440673828125,0.010955810546875,-0.8261871337890625
0.10137939453125,-0.0342864990234375,-0.9801483154296876
0.093994140625,-0.0151519775390625,-0.9658203125
0.0819854736328125,-0.0024871826171875,-1.0655670166015625
0.0047760009765625,-0.024139404296875,-1.027801513671875
0.019287109375,-0.0376434326171875,-1.0642547607421875
0.0167388916015625,-0.0535736083984375,-1.0529327392578125
-0.0322418212890625,-0.0554656982421875,-0.9979095458984376
-0.020751953125,-0.07769775390625,-0.9778289794921876
-0.0482635498046875,-0.0721893310546875,-0.9295654296875
-0.074310302734375,-0.0489349365234375,-0.9184417724609376
-0.037811279296875,-0.0746002197265625,-0.975067138671875
-0.0204620361328125,-0.060546875,-0.97186279296875
-0.01263427734375,-0.053924560546875,-0.9979095458984376
-0.01483154296875,-0.0277099609375,-1.0079803466796875
0.0510711669921875,-0.072540283203125,-1.1126556396484375
0.0789642333984375,-0.070892333984375,-1.0316162109375
0.0498046875,-0.0193634033203125,-1.0189361572265625
0.051239013671875,-0.039276123046875,-1.03350830078125
0.11602783203125,-0.1124420166015625,-1.0024261474609375
0.0411529541015625,-0.0595703125,-0.9600372314453124
0.0237884521484375,-0.1050262451171875,-0.9333953857421876
0.006500244140625,-0.1326141357421875,-0.9649505615234376
-0.0039520263671875,-0.148681640625,-0.942535400390625
0.0171966552734375,-0.1610565185546875,-1.0102996826171875
-0.0074005126953125,-0.1351470947265625,-0.99627685546875
0.0042266845703125,-0.1424407958984375,-0.9958648681640624
0.021881103515625,-0.1534576416015625,-1.0128631591796875
0.04034423828125,-0.12994384765625,-1.0207061767578125
0.0517730712890625,-0.11578369140625,-0.99176025390625
0.0505828857421875,-0.096435546875,-0.988739013671875
0.0553436279296875,-0.110809326171875,-0.958740234375
0.0835418701171875,-0.0930633544921875,-0.9730377197265624
0.107147216796875,-0.0874176025390625,-0.967620849609375
0.0693206787109375,-0.11358642578125,-0.8943023681640625
0.0342254638671875,-0.048583984375,-0.8416748046875
0.2191314697265625,-0.00738525390625,-0.9960784912109376
0.4221038818359375,-0.102691650390625,-0.9022216796875
0.430450439453125,-0.11175537109375,-0.8484344482421875
0.5486907958984375,-0.1146392822265625,-0.686676025390625
0.427001953125,-0.1522979736328125,-0.6093902587890625
0.2747039794921875,0.0482635498046875,-0.6772003173828125
0.0642242431640625,0.25799560546875,-0.5677337646484375
0.0466766357421875,0.3465728759765625,-0.7815399169921875
0.2299652099609375,0.3378753662109375,-1.0915679931640625
0.3276519775390625,0.3624267578125,-1.233795166015625
0.3112335205078125,0.46722412109375,-1.2771759033203125
0.2974700927734375,0.4109344482421875,-1.39520263671875
0.3149261474609375,0.258514404296875,-1.4163665771484375
0.3320465087890625,0.2006683349609375,-1.2973785400390625
0.2987060546875,0.1571197509765625,-1.11956787109375
0.257080078125,0.177520751953125,-1.0644683837890625
0.2464599609375,0.150054931640625,-1.0331878662109375
0.260894775390625,0.15435791015625,-0.9934844970703124
0.2679595947265625,0.1356658935546875,-1.0250701904296875
0.0819091796875,0.3810272216796875,-1.0216064453125
-0.08392333984375,0.56103515625,-0.9392547607421876
0.03887939453125,0.4537506103515625,-0.97662353515625
-0.0051116943359375,0.5343170166015625,-1.0190277099609375
-0.0560302734375,0.557769775390625,-0.922698974609375
-0.08135986328125,0.6605682373046875,-0.872589111328125
-0.004241943359375,0.5612030029296875,-0.812652587890625
-0.0124053955078125,0.5331573486328125,-0.890625
-0.0684051513671875,0.3944091796875,-0.81805419921875
-0.0943603515625,0.594879150390625,-0.8568878173828125
-0.0453338623046875,0.59417724609375,-0.837005615234375
0.0002899169921875,0.5778045654296875,-0.8750762939453125
-0.008514404296875,0.478973388671875,-0.863922119140625
0.036956787109375,0.4768218994140625,-0.7893218994140625
0.06976318359375,0.4429931640625,-0.8038787841796875
0.0897064208984375,0.4387054443359375,-0.8880767822265625
0.15789794921875,0.4619903564453125,-0.97735595703125
0.2075347900390625,0.41259765625,-1.021575927734375
0.2368927001953125,0.3385162353515625,-1.0309906005859375
0.2763671875,0.3282318115234375,-0.97625732421875
0.2527618408203125,0.3450775146484375,-0.994964599609375
0.274383544921875,0.3172454833984375,-0.9862823486328124
0.3081817626953125,0.351959228515625,-1.0485382080078125
0.365692138671875,0.2769775390625,-1.2051239013671875
0.3651885986328125,0.3080291748046875,-1.2986602783203125
0.2611083984375,0.388671875,-1.3219757080078125
0.2476959228515625,0.52294921875,-1.2205810546875
0.1950836181640625,0.4337615966796875,-1.0036163330078125
0.0723876953125,0.1002960205078125,-0.4593353271484375
0.014862060546875,0.01971435546875,-0.0039825439453125
0.013519287109375,0.0190582275390625,-0.0065765380859375
0.012176513671875,0.0200347900390625,-0.0091552734375
0.01031494140625,0.01995849609375,-0.015869140625
0.009002685546875,0.0190887451171875,-0.02545166015625
0.0074615478515625,0.019012451171875,-0.0340728759765625
0.006622314453125,0.0170440673828125,-0.0438232421875
0.0047607421875,0.015045166015625,-0.0515289306640625
-0.6286468505859375,0.320465087890625,-1.5123748779296875
-0.3707733154296875,-0.5054473876953125,-6.1544952392578125
0.230926513671875,0.0966644287109375,-0.539276123046875
-0.0637054443359375,-0.2175140380859375,-0.4107818603515625
-0.2198028564453125,-0.32623291015625,-0.544891357421875
-0.22576904296875,-0.6688232421875,-0.9161376953125
-0.177459716796875,-0.4264068603515625,-1.00189208984375
-0.1054229736328125,-0.2401580810546875,-0.9320526123046876
-0.1310882568359375,-0.307037353515625,-0.951629638671875
-0.140167236328125,-0.35711669921875,-0.941680908203125
-0.1321868896484375,-0.3002471923828125,-0.9426727294921876
-0.140594482421875,-0.344146728515625,-0.9396209716796876
-0.1338043212890625,-0.313079833984375,-0.943084716796875
-0.139190673828125,-0.3341217041015625,-0.94036865234375
-0.135498046875,-0.3206939697265625,-0.9430694580078124
-0.136993408203125,-0.328216552734375,-0.9415435791015624
-0.137054443359375,-0.3263702392578125,-0.9421844482421876
-0.135345458984375,-0.32330322265625,-0.941558837890625
-0.1373291015625,-0.32843017578125,-0.9407501220703124
-0.135162353515625,-0.3233795166015625,-0.9416656494140624
-0.1371612548828125,-0.3280029296875,-0.9407806396484376
-0.1366119384765625,-0.3229522705078125,-0.94189453125
-0.1360626220703125,-0.32733154296875,-0.941497802734375
-0.135986328125,-0.3248443603515625,-0.942291259765625
-0.138824462890625,-0.3249969482421875,-0.9422760009765624
-0.1357879638671875,-0.32342529296875,-0.9423828125
-0.136260986328125,-0.325347900390625,-0.940216064453125
-0.1361541748046875,-0.3250885009765625,-0.9412078857421876
-0.1373443603515625,-0.32684326171875,-0.9420623779296876
-0.1360321044921875,-0.324676513671875,-0.941314697265625
-0.1365203857421875,-0.3265838623046875,-0.941497802734375
-0.1368408203125,-0.3256683349609375,-0.9415740966796876
-0.13714599609375,-0.324981689453125,-0.9416656494140624
-0.13739013671875,-0.325897216796875,-0.9414825439453124
-0.135101318359375,-0.3275604248046875,-0.9405975341796876
-0.1367950439453125,-0.3245086669921875,-0.94158935546875
-0.13702392578125,-0.3250885009765625,-0.9409637451171876
-0.13531494140625,-0.3254547119140625,-0.942230224609375
-0.13714599609375,-0.3255615234375,-0.942108154296875
-0.135101318359375,-0.325653076171875,-0.941131591796875
-0.1363372802734375,-0.32586669921875,-0.9421844482421876
-0.1370086669921875,-0.324981689453125,-0.9419097900390624
-0.1378021240234375,-0.3260955810546875,-0.9333038330078124
-0.1519012451171875,-0.3192138671875,-0.87744140625
-0.123931884765625,-0.348358154296875,-0.8292083740234375
-0.06402587890625,-0.36962890625,-0.9490509033203124
-0.040130615234375,-0.385986328125,-1.00408935546875
0.0322723388671875,-0.345062255859375,-0.97216796875
-0.0250091552734375,-0.376434326171875,-0.9731292724609376
-0.0254364013671875,-0.4068450927734375,-0.9592742919921876
-0.01446533203125,-0.3690643310546875,-0.9389801025390624
-0.038299560546875,-0.382843017578125,-0.9159088134765624
-0.021881103515625,-0.3871307373046875,-0.916534423828125
-0.0258331298828125,-0.364105224609375,-0.9427032470703124
-0.0230255126953125,-0.377960205078125,-0.9308624267578124
-0.0287017822265625,-0.3740081787109375,-0.9420318603515624
-0.028839111328125,-0.3741302490234375,-0.9232635498046876
-0.0312042236328125,-0.3761749267578125,-0.9357757568359376
-0.040740966796875,-0.37945556640625,-0.9255523681640624
-0.03228759765625,-0.3746185302734375,-0.935333251953125
-0.027801513671875,-0.373199462890625,-0.9369964599609376
-0.03277587890625,-0.373382568359375,-0.9192962646484376
-0.032073974609375,-0.384033203125,-0.952301025390625
-0.0302734375,-0.3756103515625,-0.9584808349609376
