AccelerationX,AccelerationY,AccelerationZ
-0.3572540283203125,0.6544036865234375,-0.6095123291015625
-0.33660888671875,0.6707916259765625,-0.635162353515625
-0.3507232666015625,0.6722564697265625,-0.660064697265625
-0.3498992919921875,0.674652099609375,-0.6343536376953125
-0.3368682861328125,0.6649627685546875,-0.640655517578125
-0.3460693359375,0.690155029296875,-0.6141357421875
-0.3057708740234375,0.6566925048828125,-0.66107177734375
-0.4200897216796875,0.631011962890625,-0.5691680908203125
-0.3843231201171875,0.736328125,-0.6513671875
-0.3355865478515625,0.71990966796875,-0.6537017822265625
-0.3543853759765625,0.6362457275390625,-0.626922607421875
-0.4401397705078125,0.656036376953125,-0.6161956787109375
-0.4461669921875,0.6903228759765625,-0.6101837158203125
-0.404998779296875,0.6862640380859375,-0.614532470703125
-0.4102783203125,0.6682586669921875,-0.62249755859375
-0.3608245849609375,0.6970977783203125,-0.6368408203125
-0.36480712890625,0.678009033203125,-0.6105499267578125
-0.40875244140625,0.65228271484375,-0.5651397705078125
-0.3746490478515625,0.7037200927734375,-0.575103759765625
-0.3506011962890625,0.71697998046875,-0.623931884765625
-0.3326263427734375,0.6974334716796875,-0.5991973876953125
-0.3540802001953125,0.691162109375,-0.567291259765625
-0.3630218505859375,0.709564208984375,-0.628875732421875
-0.3636627197265625,0.6759490966796875,-0.5702972412109375
-0.362152099609375,0.6806640625,-0.654998779296875
-0.35723876953125,0.664398193359375,-0.596893310546875
-0.357421875,0.6760711669921875,-0.6298828125
-0.35174560546875,0.6752166748046875,-0.659698486328125
-0.32574462890625,0.67828369140625,-0.6064453125
-0.318511962890625,0.6895751953125,-0.635772705078125
-0.34979248046875,0.6885528564453125,-0.6164093017578125
-0.357391357421875,0.6917877197265625,-0.5941314697265625
-0.31640625,0.7069244384765625,-0.6353607177734375
-0.3352203369140625,0.6787872314453125,-0.5882415771484375
-0.3497161865234375,0.6807861328125,-0.6227569580078125
-0.3714447021484375,0.6823577880859375,-0.604400634765625
-0.383758544921875,0.6750640869140625,-0.600341796875
-0.3719940185546875,0.6838836669921875,-0.5634002685546875
-0.339874267578125,0.6783599853515625,-0.571624755859375
-0.3841400146484375,0.720306396484375,-0.511077880859375
-0.4132843017578125,0.6883087158203125,-0.4748687744140625
-0.4613494873046875,0.6674346923828125,-0.466552734375
-0.46197509765625,0.75531005859375,-0.43878173828125
-0.472564697265625,0.759033203125,-0.633453369140625
-0.520538330078125,0.62353515625,-0.288848876953125
-0.545654296875,0.65948486328125,-0.3300933837890625
-0.5194549560546875,0.728485107421875,-0.270660400390625
-0.7865753173828125,0.7130126953125,-0.37457275390625
-0.7084197998046875,0.6699066162109375,-0.1892852783203125
-0.78680419921875,0.74456787109375,-0.0855712890625
-0.9146881103515624,0.7196044921875,0.1605072021484375
-0.834014892578125,0.72735595703125,0.1782073974609375
-0.7837982177734375,0.7310943603515625,0.1399078369140625
-0.765838623046875,0.70623779296875,0.1356353759765625
-0.8099517822265625,0.7560577392578125,0.120208740234375
-0.8073883056640625,0.8641357421875,0.1765594482421875
-0.8235626220703125,0.7777862548828125,0.1346893310546875
-0.720306396484375,0.682159423828125,0.02947998046875
-0.7450103759765625,0.8500518798828125,-0.123199462890625
-0.655181884765625,0.9816131591796876,-0.2149810791015625
-0.5879364013671875,0.84124755859375,-0.0609130859375
-0.54351806640625,0.7901611328125,-0.0311126708984375
-0.50537109375,0.80859375,-0.0435028076171875
-0.4751739501953125,0.758331298828125,-0.03466796875
-0.4601287841796875,0.7207183837890625,0.06622314453125
-0.458251953125,0.72015380859375,0.1350860595703125
-0.40997314453125,0.786346435546875,0.151702880859375
-0.39556884765625,0.8326263427734375,0.2436676025390625
-0.5450286865234375,0.8948516845703125,0.2741851806640625
-0.56390380859375,0.863739013671875,0.2790374755859375
-0.6304779052734375,0.884979248046875,0.3213043212890625
-0.679290771484375,0.9432830810546876,0.195648193359375
-0.6421051025390625,0.8639678955078125,-0.02764892578125
-0.8350830078125,0.6175994873046875,0.0512237548828125
-0.8540802001953125,0.6224212646484375,0.15985107421875
-0.8944091796875,0.7251434326171875,0.0005950927734375
-0.8463287353515625,0.597076416015625,-0.0356292724609375
-0.7684783935546875,0.5165252685546875,-0.0356292724609375
-0.6665496826171875,0.5934600830078125,0.062591552734375
-0.64581298828125,0.6783599853515625,0.1979522705078125
-0.58447265625,0.692779541015625,0.108001708984375
-0.58953857421875,0.7392730712890625,-0.0029754638671875
-0.78509521484375,0.870574951171875,-0.052947998046875
-0.747039794921875,0.8150634765625,0.1237945556640625
-0.8875579833984375,0.826141357421875,0.03521728515625
-0.8206634521484375,0.8365478515625,0.01690673828125
-0.78228759765625,0.9521026611328124,0.0285797119140625
-0.686370849609375,0.926513671875,0.0249481201171875
-0.717742919921875,0.7014617919921875,0.1133880615234375
-0.7694244384765625,0.7485198974609375,0.1178436279296875
-0.654266357421875,0.8933258056640625,0.00958251953125
-0.475494384765625,0.796417236328125,0.0182342529296875
-0.5099639892578125,0.674041748046875,0.1151123046875
-0.5380859375,0.626251220703125,0.10125732421875
-0.498046875,0.6381988525390625,0.0538482666015625
-0.4287872314453125,0.6394500732421875,0.0561065673828125
-0.434783935546875,0.6517486572265625,0.0726776123046875
-0.480987548828125,0.7568359375,0.0568695068359375
-0.54730224609375,0.9033203125,0.045989990234375
-0.5925445556640625,0.9334564208984376,0.00689697265625
-0.7549591064453125,0.9749298095703124,-0.0123138427734375
-0.811004638671875,1.0395355224609375,-0.062713623046875
-0.7667388916015625,0.8429412841796875,-0.0906829833984375
-0.8240509033203125,0.656524658203125,-0.0714569091796875
-0.8850860595703125,0.74810791015625,-0.0079498291015625
-0.9011383056640624,0.7625579833984375,0.0405426025390625
-0.8710174560546875,0.6027679443359375,0.0861358642578125
-0.8429107666015625,0.55316162109375,0.0977020263671875
-0.73394775390625,0.6324005126953125,0.047027587890625
-0.674163818359375,0.720245361328125,-0.040374755859375
-0.6291046142578125,0.7575225830078125,-0.1107025146484375
-0.649200439453125,0.784881591796875,-0.1412353515625
-0.7042388916015625,0.844757080078125,-0.07769775390625
-0.691375732421875,0.8733367919921875,-0.040771484375
-0.6657562255859375,0.8305511474609375,-0.071868896484375
-0.719451904296875,0.8718414306640625,-0.108612060546875
-0.72357177734375,1.0384674072265625,-0.15472412109375
-0.6116180419921875,0.86114501953125,-0.128570556640625
-0.70751953125,0.746734619140625,-0.0355072021484375
-0.683868408203125,0.8697509765625,-0.0495147705078125
-0.521514892578125,0.8856353759765625,-0.15631103515625
-0.4385986328125,0.695587158203125,-0.1856536865234375
-0.5063934326171875,0.6178741455078125,-0.1005401611328125
-0.5029296875,0.6600341796875,-0.06829833984375
-0.447845458984375,0.7285919189453125,-0.0313873291015625
-0.4178314208984375,0.7662200927734375,0.0020599365234375
-0.4724884033203125,0.8498077392578125,0.0883026123046875
-0.5546112060546875,0.9595947265625,0.0791015625
-0.5792388916015625,0.9098663330078124,0.0342864990234375
-0.64715576171875,0.80157470703125,0.011993408203125
-0.6983642578125,0.926177978515625,0.100921630859375
-0.56512451171875,0.86627197265625,0.028961181640625
-0.670135498046875,0.7165679931640625,-0.0001220703125
-0.7560272216796875,0.774322509765625,0.04473876953125
-0.761962890625,0.819000244140625,0.079254150390625
-0.69775390625,0.6653900146484375,-0.0190582275390625
-0.6589508056640625,0.561248779296875,-0.06512451171875
-0.6468048095703125,0.6041717529296875,-0.0246124267578125
-0.62347412109375,0.68597412109375,0.0365447998046875
-0.636505126953125,0.7183685302734375,0.04010009765625
-0.7132110595703125,0.7196044921875,-0.010009765625
-0.7852630615234375,0.832611083984375,-0.0182952880859375
-0.8179168701171875,0.9282073974609376,-0.0626068115234375
-0.802215576171875,0.856781005859375,-0.0726776123046875
-0.8373870849609375,0.941680908203125,-0.0642242431640625
-0.766632080078125,1.01666259765625,-0.0495147705078125
-0.644287109375,0.810333251953125,-0.0516510009765625
-0.678802490234375,0.8167724609375,-0.0928955078125
-0.57647705078125,0.89825439453125,-0.13812255859375
-0.3881683349609375,0.8645172119140625,-0.1505279541015625
-0.4259185791015625,0.7263946533203125,-0.048614501953125
-0.4954681396484375,0.6513671875,-0.006927490234375
-0.456207275390625,0.697509765625,-0.0256195068359375
-0.4055328369140625,0.74798583984375,-0.0035247802734375
-0.4390411376953125,0.758453369140625,0.0386962890625
-0.5071563720703125,0.803314208984375,0.1036529541015625
-0.5688934326171875,0.950897216796875,0.0577392578125
-0.56561279296875,0.936981201171875,0.005828857421875
-0.6741943359375,0.9125823974609376,-0.0040283203125
-0.6461334228515625,1.030364990234375,0.0023956298828125
-0.5477142333984375,0.81292724609375,-0.02288818359375
-0.714599609375,0.6748504638671875,-0.0240478515625
-0.7978668212890625,0.7458343505859375,0.0010528564453125
-0.7857513427734375,0.727325439453125,-0.01995849609375
-0.772186279296875,0.6084136962890625,-0.0171356201171875
-0.7476806640625,0.6257171630859375,-0.0511932373046875
-0.6507568359375,0.703643798828125,-0.0543212890625
-0.599334716796875,0.6988372802734375,-0.0303955078125
-0.606201171875,0.701171875,-0.0163726806640625
-0.6589813232421875,0.75274658203125,0.0108642578125
-0.7217254638671875,0.8261566162109375,0.0233612060546875
-0.743865966796875,0.833587646484375,0.006500244140625
-0.7721710205078125,0.7850799560546875,-0.0176239013671875
-0.8140411376953125,0.97998046875,-0.016632080078125
-0.7102203369140625,0.9856109619140624,-0.05419921875
-0.685333251953125,0.72296142578125,0.0137481689453125
-0.7805633544921875,0.7796478271484375,0.024078369140625
-0.67352294921875,0.8861846923828125,-0.0571746826171875
-0.5245361328125,0.7922515869140625,-0.1255645751953125
-0.543609619140625,0.6931610107421875,-0.0576019287109375
-0.536651611328125,0.69012451171875,-0.0458831787109375
-0.4396209716796875,0.7030029296875,-0.0661468505859375
-0.3946533203125,0.670928955078125,0.0299835205078125
-0.407684326171875,0.6895904541015625,0.0727386474609375
-0.43548583984375,0.7900543212890625,0.0157928466796875
-0.476287841796875,0.90936279296875,-0.00909423828125
-0.56817626953125,0.8861083984375,-0.000457763671875
-0.71392822265625,1.06689453125,0.0457305908203125
-0.6209716796875,0.96844482421875,-0.13397216796875
-0.5985565185546875,0.733489990234375,-0.2433013916015625
-0.8536529541015625,0.741424560546875,-0.114471435546875
-0.877105712890625,0.79986572265625,0.0016021728515625
-0.849945068359375,0.7059326171875,-0.095245361328125
-0.8258209228515625,0.6002960205078125,-0.1727447509765625
-0.738983154296875,0.6081085205078125,-0.1349945068359375
-0.65924072265625,0.6630859375,-0.0392608642578125
-0.6471099853515625,0.6875457763671875,0.01953125
-0.6417236328125,0.7303619384765625,0.0344085693359375
-0.693084716796875,0.774078369140625,0.0092010498046875
-0.754241943359375,0.8502960205078125,0.0030364990234375
-0.764251708984375,0.858856201171875,-0.019439697265625
-0.748626708984375,0.8367767333984375,-0.0375518798828125
-0.784820556640625,0.9505462646484376,-0.0789031982421875
-0.7429962158203125,1.010833740234375,-0.1697540283203125
-0.6595001220703125,0.7748565673828125,-0.15057373046875
-0.7190399169921875,0.70208740234375,-0.0159759521484375
-0.6379241943359375,0.79547119140625,-0.039581298828125
-0.4479522705078125,0.779449462890625,-0.1102752685546875
-0.43682861328125,0.661285400390625,-0.1090240478515625
-0.498077392578125,0.6038818359375,-0.0308837890625
-0.48175048828125,0.603759765625,-0.0308685302734375
-0.4770355224609375,0.635498046875,-0.03082275390625
-0.466400146484375,0.694580078125,0.023681640625
-0.494964599609375,0.7698974609375,0.02264404296875
-0.582061767578125,0.87078857421875,0.032867431640625
-0.6339569091796875,0.893768310546875,0.037200927734375
-0.769989013671875,0.9220733642578124,0.062225341796875
-0.786346435546875,1.0485382080078125,0.0690460205078125
-0.655181884765625,0.736419677734375,-0.081817626953125
-0.7718963623046875,0.6359710693359375,-0.0894012451171875
-0.83380126953125,0.7659912109375,-0.06451416015625
-0.762603759765625,0.7754364013671875,-0.060394287109375
-0.6830596923828125,0.6319732666015625,-0.1229400634765625
-0.6444854736328125,0.6243896484375,-0.1089324951171875
-0.590362548828125,0.68896484375,-0.08050537109375
-0.5681304931640625,0.68890380859375,-0.0783843994140625
-0.6578521728515625,0.7001800537109375,-0.0932464599609375
-0.743011474609375,0.7497406005859375,-0.0844573974609375
-0.749725341796875,0.8117218017578125,-0.0760650634765625
-0.70611572265625,0.86895751953125,-0.10845947265625
-0.6726531982421875,0.8598175048828125,-0.1055145263671875
-0.758026123046875,1.0378265380859375,-0.086578369140625
-0.6772003173828125,1.0628204345703125,-0.1344146728515625
-0.6251220703125,0.8192596435546875,-0.118133544921875
-0.70648193359375,0.8153076171875,-0.06793212890625
-0.6086578369140625,0.8927764892578125,-0.1385955810546875
-0.4901275634765625,0.8775177001953125,-0.1556396484375
-0.4880828857421875,0.72991943359375,-0.1256561279296875
-0.4886627197265625,0.6449737548828125,-0.0990142822265625
-0.4409637451171875,0.6862945556640625,-0.1253814697265625
-0.3909149169921875,0.7234649658203125,-0.0987091064453125
-0.4433135986328125,0.7631378173828125,-0.044830322265625
-0.501708984375,0.823577880859375,0.0157470703125
-0.5594024658203125,0.9259490966796876,0.0222930908203125
-0.5810394287109375,0.8810272216796875,-0.0529937744140625
-0.71832275390625,1.003448486328125,-0.0322418212890625
-0.6641082763671875,0.9671478271484376,-0.0256805419921875
-0.604095458984375,0.73248291015625,-0.097137451171875
-0.7024688720703125,0.724212646484375,-0.10028076171875
-0.6934051513671875,0.819061279296875,-0.0447235107421875
-0.6887969970703125,0.7569732666015625,-0.0334320068359375
-0.6735076904296875,0.638214111328125,-0.0323028564453125
-0.6047821044921875,0.652923583984375,-0.0104827880859375
-0.577423095703125,0.697265625,-0.0442962646484375
-0.5539398193359375,0.7014923095703125,-0.0956573486328125
-0.5656280517578125,0.6817169189453125,-0.099945068359375
-0.62664794921875,0.701873779296875,-0.0471649169921875
-0.704742431640625,0.77874755859375,-0.0175628662109375
-0.7453155517578125,0.810028076171875,-0.006622314453125
-0.7710418701171875,0.8295745849609375,-0.0623626708984375
-0.837249755859375,0.9764251708984376,-0.0682830810546875
-0.7869873046875,0.978851318359375,-0.10308837890625
-0.7264251708984375,0.7521820068359375,-0.0560455322265625
-0.76287841796875,0.7300262451171875,-0.054595947265625
-0.6924896240234375,0.8827056884765625,-0.0904693603515625
-0.5745697021484375,0.919525146484375,-0.0964202880859375
-0.5853729248046875,0.787353515625,-0.0972900390625
-0.57147216796875,0.719696044921875,-0.0783843994140625
-0.493194580078125,0.746734619140625,-0.08294677734375
-0.406341552734375,0.75213623046875,-0.0566864013671875
-0.3800506591796875,0.73681640625,-0.0234375
-0.391082763671875,0.7312469482421875,0.00946044921875
-0.4223175048828125,0.81768798828125,-0.01153564453125
-0.4583282470703125,0.87603759765625,-0.0463409423828125
-0.58538818359375,0.8693084716796875,-0.0417633056640625
-0.7351531982421875,1.0203857421875,0.03363037109375
-0.6989288330078125,0.9896240234375,-0.0846710205078125
-0.6668701171875,0.711700439453125,-0.1201934814453125
-0.7680206298828125,0.7016448974609375,-0.0156707763671875
-0.6925201416015625,0.84954833984375,0.017608642578125
-0.595550537109375,0.8010711669921875,-0.016204833984375
-0.6083831787109375,0.6581268310546875,-0.0466766357421875
-0.603363037109375,0.6256256103515625,-0.0298614501953125
-0.573272705078125,0.6461029052734375,-0.01324462890625
-0.589263916015625,0.6933135986328125,-0.0150604248046875
-0.605072021484375,0.6902008056640625,-0.0326690673828125
-0.679412841796875,0.732330322265625,-0.067474365234375
-0.7805023193359375,0.841461181640625,-0.0462646484375
-0.8250579833984375,0.8409576416015625,-0.0268402099609375
-0.8341064453125,0.87042236328125,-0.114532470703125
-0.7769622802734375,0.9636688232421876,-0.1481475830078125
-0.678009033203125,0.95306396484375,-0.13519287109375
-0.58074951171875,0.79364013671875,-0.1186065673828125
-0.5899658203125,0.770172119140625,-0.0967864990234375
-0.5844268798828125,0.8986053466796875,-0.0872650146484375
-0.48272705078125,0.884552001953125,-0.141265869140625
-0.540374755859375,0.79925537109375,-0.1358184814453125
-0.5802764892578125,0.720062255859375,-0.1326904296875
-0.57623291015625,0.7513427734375,-0.189178466796875
-0.4903411865234375,0.793792724609375,-0.1252899169921875
-0.448760986328125,0.794036865234375,-0.099761962890625
-0.4310455322265625,0.789093017578125,-0.078125
-0.4433441162109375,0.776397705078125,-0.046875
-0.5272674560546875,0.9160308837890624,0.0160064697265625
-0.4918670654296875,1.062255859375,-0.0198822021484375
-0.5381317138671875,0.77056884765625,0.0232696533203125
-0.7117919921875,0.619903564453125,0.098876953125
-0.791717529296875,0.7364349365234375,0.1016693115234375
-0.682830810546875,0.8990631103515625,0.0712432861328125
-0.627685546875,0.8452301025390625,0.0036163330078125
-0.6591796875,0.79266357421875,-0.05108642578125
-0.6871490478515625,0.772735595703125,-0.115264892578125
-0.6674957275390625,0.7333221435546875,-0.064117431640625
-0.6918182373046875,0.704498291015625,-0.0467071533203125
-0.64849853515625,0.7071685791015625,-0.0789794921875
-0.5787353515625,0.8048248291015625,-0.197113037109375
-0.4502410888671875,0.8790740966796875,-0.3159942626953125
-0.2826385498046875,0.9091339111328124,-0.2234039306640625
-0.30718994140625,0.8827667236328125,-0.0770111083984375
-0.467041015625,0.844940185546875,-0.1652069091796875
-0.5599822998046875,0.860443115234375,-0.1860504150390625
-0.50689697265625,0.902618408203125,-0.18389892578125
-0.4737548828125,0.9195098876953124,-0.2314605712890625
-0.5414886474609375,0.8878173828125,-0.25048828125
-0.5716552734375,0.875152587890625,-0.247161865234375
-0.5550384521484375,0.86358642578125,-0.2470245361328125
-0.5780792236328125,0.86956787109375,-0.2628021240234375
-0.590240478515625,0.85455322265625,-0.25775146484375
-0.638214111328125,0.80279541015625,-0.2275848388671875
-0.6823883056640625,0.7529754638671875,-0.2661590576171875
-0.713775634765625,0.8444976806640625,-0.3227386474609375
-0.6197052001953125,0.85223388671875,-0.3329315185546875
-0.6288604736328125,0.8368988037109375,-0.2469024658203125
-0.5818328857421875,0.8531494140625,-0.238433837890625
-0.470245361328125,0.8123321533203125,-0.191253662109375
-0.542236328125,0.7552642822265625,-0.1446075439453125
-0.568603515625,0.786041259765625,-0.0511322021484375
-0.47589111328125,0.8532257080078125,-0.036712646484375
-0.5110626220703125,0.8451690673828125,-0.058441162109375
-0.49615478515625,0.7975311279296875,0.030181884765625
-0.44879150390625,0.6905059814453125,0.1633148193359375
-0.546295166015625,0.8175811767578125,0.1164703369140625
-0.5807037353515625,0.954681396484375,0.07012939453125
-0.7315673828125,1.0676116943359375,-0.03839111328125
-0.453826904296875,0.7920074462890625,0.0769805908203125
-0.5879974365234375,0.7831268310546875,-0.0210113525390625
-0.6176605224609375,0.7444305419921875,0.024261474609375
-0.557647705078125,0.691192626953125,0.053863525390625
-0.6314239501953125,0.71392822265625,0.1125946044921875
-0.7548828125,0.7320709228515625,0.07769775390625
-0.773895263671875,0.7292022705078125,0.0181427001953125
-0.7681732177734375,0.755157470703125,-0.01361083984375
-0.744720458984375,0.794189453125,-0.0464324951171875
-0.7222900390625,0.7668304443359375,-0.0145263671875
-0.8453369140625,0.951812744140625,-0.0122222900390625
-0.795806884765625,0.9605255126953124,-0.0222320556640625
-0.7090911865234375,0.7364959716796875,-0.0268096923828125
-0.760406494140625,0.779876708984375,-0.082611083984375
-0.7213592529296875,0.88079833984375,-0.1136474609375
-0.64715576171875,0.8277587890625,-0.0821075439453125
-0.6527252197265625,0.729583740234375,-0.0345916748046875
-0.625701904296875,0.7161407470703125,-0.061981201171875
-0.5291900634765625,0.73529052734375,-0.0801544189453125
-0.458831787109375,0.743499755859375,-0.0083770751953125
-0.3833770751953125,0.7098846435546875,0.031890869140625
-0.4174041748046875,0.6862640380859375,0.0484466552734375
-0.4707183837890625,0.7676849365234375,0.0654296875
-0.4976348876953125,0.8185272216796875,0.0379638671875
-0.6213836669921875,0.84759521484375,0.004669189453125
-0.752593994140625,1.0273590087890625,0.0721435546875
-0.6942291259765625,0.921966552734375,-0.0642547607421875
-0.719970703125,0.7026519775390625,-0.1330108642578125
-0.80755615234375,0.75848388671875,-0.1219024658203125
-0.802398681640625,0.828094482421875,0.008148193359375
-0.730255126953125,0.6968994140625,-0.019805908203125
-0.702606201171875,0.577056884765625,-0.027801513671875
-0.6352691650390625,0.6211395263671875,-0.0433502197265625
-0.6021881103515625,0.6668701171875,-0.0576629638671875
-0.6089324951171875,0.687652587890625,-0.0777435302734375
-0.657928466796875,0.69451904296875,-0.054534912109375
-0.7199249267578125,0.7332916259765625,-0.0413970947265625
-0.774200439453125,0.8309326171875,-0.0380401611328125
-0.760101318359375,0.83038330078125,-0.0498199462890625
-0.8079376220703125,0.8350677490234375,-0.049530029296875
-0.7830047607421875,0.987762451171875,-0.06243896484375
-0.69818115234375,0.988067626953125,-0.0689849853515625
-0.6755523681640625,0.77801513671875,-0.061553955078125
-0.6993408203125,0.7710723876953125,-0.057525634765625
-0.63531494140625,0.87615966796875,-0.05047607421875
-0.5056610107421875,0.82861328125,-0.0642852783203125
-0.4980926513671875,0.6842803955078125,-0.09674072265625
-0.488983154296875,0.6157379150390625,-0.0951385498046875
-0.4437255859375,0.648468017578125,-0.0699005126953125
-0.4345245361328125,0.6782684326171875,-0.0228729248046875
-0.4449615478515625,0.693267822265625,-0.0004730224609375
-0.488128662109375,0.7339324951171875,-0.0529327392578125
-0.556060791015625,0.8435821533203125,-0.0441741943359375
-0.5687408447265625,0.9312286376953124,-0.08880615234375
-0.687042236328125,0.9367523193359376,-0.11895751953125
-0.7487945556640625,1.01068115234375,-0.0933074951171875
-0.8072509765625,0.9874267578125,-0.1487274169921875
-0.745819091796875,0.7582244873046875,-0.1480560302734375
-0.7083282470703125,0.641845703125,-0.1178741455078125
-0.6105194091796875,0.723480224609375,-0.0317230224609375
-0.5446929931640625,0.7310028076171875,-0.0263519287109375
-0.586151123046875,0.6562652587890625,-0.050750732421875
-0.6710357666015625,0.6195068359375,-0.0407867431640625
-0.7219085693359375,0.6305389404296875,-0.0004730224609375
-0.714813232421875,0.67266845703125,-0.0054931640625
-0.711700439453125,0.7451934814453125,-0.05316162109375
-0.752899169921875,0.780792236328125,-0.0269622802734375
-0.8037872314453125,0.8572235107421875,-0.00408935546875
-0.761444091796875,0.8670806884765625,-0.0222015380859375
-0.7004547119140625,0.797943115234375,0.006256103515625
-0.7719573974609375,0.976287841796875,0.0210723876953125
-0.7065582275390625,1.011077880859375,-0.0359344482421875
-0.6789398193359375,0.7991943359375,-0.043243408203125
-0.712310791015625,0.80364990234375,-0.0400848388671875
-0.62884521484375,0.865814208984375,-0.0164794921875
-0.5085601806640625,0.79449462890625,-0.038818359375
-0.480804443359375,0.699798583984375,-0.078338623046875
-0.4705352783203125,0.6941680908203125,-0.0938568115234375
-0.50384521484375,0.6691741943359375,-0.059234619140625
-0.599609375,0.640716552734375,-0.0723876953125
-0.5945281982421875,0.6154937744140625,-0.07550048828125
-0.500518798828125,0.66021728515625,-0.0736083984375
-0.501983642578125,0.71099853515625,-0.1342926025390625
-0.571746826171875,0.7718353271484375,-0.1607818603515625
-0.677825927734375,0.80511474609375,-0.082061767578125
-0.7581024169921875,1.06939697265625,-0.05340576171875
-0.65850830078125,0.9345245361328124,-0.2221832275390625
-0.7313079833984375,0.6502685546875,-0.1660614013671875
-0.814056396484375,0.676483154296875,-0.0381622314453125
-0.7283172607421875,0.79443359375,-0.0290069580078125
-0.6460418701171875,0.746551513671875,-0.104766845703125
-0.6097869873046875,0.6563720703125,-0.09051513671875
-0.6016845703125,0.6754302978515625,-0.0403289794921875
-0.60357666015625,0.6947784423828125,0.0023345947265625
-0.6287384033203125,0.7022247314453125,0.0185699462890625
-0.7081298828125,0.7139129638671875,-0.0355987548828125
-0.758453369140625,0.7411346435546875,-0.0457763671875
-0.7815704345703125,0.8026885986328125,-0.092071533203125
-0.7647247314453125,0.8638153076171875,-0.13641357421875
-0.740478515625,0.8553924560546875,-0.1224517822265625
-0.7865753173828125,0.977813720703125,-0.111083984375
-0.7244873046875,0.992218017578125,-0.1282196044921875
-0.6667022705078125,0.8271942138671875,-0.1569366455078125
-0.67919921875,0.81915283203125,-0.1697235107421875
-0.6695709228515625,0.93023681640625,-0.2007598876953125
-0.5564422607421875,0.9182281494140624,-0.189971923828125
-0.45733642578125,0.7718353271484375,-0.1297149658203125
-0.4439849853515625,0.683624267578125,-0.1028289794921875
-0.440185546875,0.687469482421875,-0.0688934326171875
-0.39715576171875,0.6974029541015625,0.0183868408203125
-0.3476715087890625,0.684295654296875,0.0458984375
-0.383941650390625,0.683380126953125,0.0456085205078125
-0.4633636474609375,0.7476959228515625,0.0506134033203125
-0.4977264404296875,0.8880462646484375,0.0655670166015625
-0.549896240234375,0.9543304443359376,-0.0323944091796875
-0.7524871826171875,1.14215087890625,-0.07891845703125
-0.7740325927734375,1.11163330078125,-0.13104248046875
-0.756134033203125,0.8738250732421875,-0.1467132568359375
-0.8268890380859375,0.7052154541015625,-0.04766845703125
-0.8366851806640625,0.7453155517578125,-0.034698486328125
-0.7807464599609375,0.7767181396484375,-0.110931396484375
-0.6970062255859375,0.676544189453125,-0.17230224609375
-0.6308135986328125,0.63116455078125,-0.1714935302734375
-0.56866455078125,0.6530303955078125,-0.1350250244140625
-0.51416015625,0.6573944091796875,-0.0968475341796875
-0.53460693359375,0.68951416015625,-0.0196380615234375
-0.5826263427734375,0.7353057861328125,0.02099609375
-0.6819305419921875,0.8270721435546875,0.041168212890625
-0.775909423828125,0.89068603515625,-0.0027923583984375
-0.790771484375,0.878265380859375,0.0052642822265625
-0.8693389892578125,0.951690673828125,0.0789031982421875
-0.838043212890625,1.037445068359375,0.028472900390625
-0.7384490966796875,0.966156005859375,-0.0878753662109375
-0.7421417236328125,0.8442230224609375,-0.0910797119140625
-0.6723175048828125,0.9346466064453124,-0.0681304931640625
-0.5065460205078125,0.9163818359375,-0.0880279541015625
-0.3988494873046875,0.73248291015625,-0.0716400146484375
-0.4654083251953125,0.609466552734375,-0.0536346435546875
-0.431854248046875,0.597808837890625,-0.0944061279296875
-0.39154052734375,0.6502685546875,-0.0521392822265625
-0.381134033203125,0.6864776611328125,-0.025115966796875
-0.4034576416015625,0.6922607421875,0.0403289794921875
-0.491790771484375,0.751617431640625,0.0673980712890625
-0.5474090576171875,0.9272613525390624,0.036102294921875
-0.5397796630859375,0.96453857421875,-0.059234619140625
-0.7288665771484375,1.0589752197265625,-0.0592193603515625
-0.7592620849609375,1.1396026611328125,-0.1079254150390625
-0.735992431640625,0.969329833984375,-0.1620941162109375
-0.7632293701171875,0.6821136474609375,-0.1327972412109375
-0.8423309326171875,0.6470489501953125,-0.044830322265625
-0.842010498046875,0.741363525390625,0.0232086181640625
-0.7419586181640625,0.731048583984375,-0.02423095703125
-0.6306610107421875,0.6943511962890625,-0.091888427734375
-0.52984619140625,0.6888275146484375,-0.1298065185546875
-0.4878387451171875,0.6786956787109375,-0.081085205078125
-0.48858642578125,0.678558349609375,-0.0379638671875
-0.5688629150390625,0.71240234375,0.013519287109375
-0.70013427734375,0.8037261962890625,-9.1552734375e-05
-0.7582855224609375,0.877227783203125,-0.04541015625
-0.7651824951171875,0.8778839111328125,-0.0662689208984375
-0.76763916015625,0.8485260009765625,-0.0100555419921875
-0.754791259765625,0.9873809814453124,-0.0189666748046875
-0.6498260498046875,0.9323883056640624,-0.0608062744140625
-0.651641845703125,0.728363037109375,-0.02935791015625
-0.75048828125,0.7998809814453125,0.0632476806640625
-0.6932830810546875,0.9910125732421876,-0.037109375
-0.5467376708984375,0.904876708984375,-0.1623992919921875
-0.5534210205078125,0.73211669921875,-0.1794586181640625
-0.5516815185546875,0.679107666015625,-0.0997314453125
-0.5370025634765625,0.6939849853515625,0.0398712158203125
-0.514556884765625,0.6746978759765625,0.0803985595703125
-0.4518585205078125,0.6555633544921875,0.040771484375
-0.4328155517578125,0.7206878662109375,-0.0190277099609375
-0.468414306640625,0.80535888671875,-0.096832275390625
-0.5241546630859375,0.8417510986328125,-0.1971588134765625
-0.6345672607421875,0.8215484619140625,-0.211181640625
-0.6049957275390625,0.9007720947265624,-0.1858062744140625
-0.6094970703125,0.8936920166015625,-0.224212646484375
-0.6130218505859375,0.7693023681640625,-0.137603759765625
-0.6994781494140625,0.796295166015625,-0.1107940673828125
-0.690460205078125,0.86083984375,-0.1296844482421875
-0.65576171875,0.79345703125,-0.1714019775390625
-0.5867156982421875,0.6802825927734375,-0.1047515869140625
-0.5843658447265625,0.6472015380859375,-0.0266876220703125
-0.6190338134765625,0.6809844970703125,-0.0457305908203125
-0.668548583984375,0.730682373046875,0.000335693359375
-0.761749267578125,0.738861083984375,0.0401611328125
-0.849884033203125,0.825286865234375,0.001800537109375
-0.8797760009765625,0.8770904541015625,-0.0648956298828125
-0.878204345703125,0.8522186279296875,-0.055877685546875
-0.843994140625,0.8117218017578125,-0.0537109375
-0.828399658203125,0.90606689453125,-0.0617218017578125
-0.787445068359375,0.99737548828125,-0.0890655517578125
-0.695526123046875,0.7708740234375,-0.15625
-0.7205963134765625,0.67474365234375,-0.1081085205078125
-0.6844482421875,0.848968505859375,-0.0820465087890625
-0.5718536376953125,0.97943115234375,-0.148956298828125
-0.4750213623046875,0.875,-0.2062225341796875
-0.486968994140625,0.753173828125,-0.186614990234375
-0.4580078125,0.722503662109375,-0.09210205078125
-0.3957672119140625,0.7119140625,-0.0425872802734375
-0.3506622314453125,0.7041168212890625,-0.0224151611328125
-0.3729400634765625,0.7068634033203125,-0.009429931640625
-0.44793701171875,0.7832489013671875,0.01220703125
-0.5074920654296875,0.87030029296875,0.0094757080078125
-0.562286376953125,0.868988037109375,0.021820068359375
-0.672332763671875,1.1177978515625,-0.0026702880859375
-0.626800537109375,1.00030517578125,-0.13079833984375
-0.6583251953125,0.7224884033203125,-0.1354217529296875
-0.83367919921875,0.74468994140625,-0.0301666259765625
-0.840667724609375,0.830596923828125,0.032470703125
-0.771728515625,0.75738525390625,-0.041656494140625
-0.6805419921875,0.648345947265625,-0.0988616943359375
-0.5756072998046875,0.6389617919921875,-0.119842529296875
-0.517822265625,0.6608123779296875,-0.0730743408203125
-0.520355224609375,0.684295654296875,-0.0750274658203125
-0.5627899169921875,0.7131500244140625,-0.053375244140625
-0.6701812744140625,0.7599945068359375,-0.0165252685546875
-0.77178955078125,0.8451690673828125,-0.0226593017578125
-0.790496826171875,0.8494720458984375,-0.103424072265625
-0.7989959716796875,0.856170654296875,-0.1026611328125
-0.8865814208984375,1.0956878662109375,-0.0250244140625
-0.8126220703125,1.0121307373046875,-0.0182952880859375
-0.730194091796875,0.705841064453125,-0.0783233642578125
-0.7318878173828125,0.7075042724609375,-0.0977020263671875
-0.643341064453125,0.9066619873046876,-0.145965576171875
-0.5312957763671875,0.9904022216796876,-0.1622314453125
-0.46905517578125,0.853179931640625,-0.146392822265625
-0.481781005859375,0.7291107177734375,-0.147369384765625
-0.439208984375,0.720611572265625,-0.1302490234375
-0.38885498046875,0.7080841064453125,-0.055877685546875
-0.3432464599609375,0.6778411865234375,-0.025482177734375
-0.3695831298828125,0.7010650634765625,-0.0509185791015625
-0.4267425537109375,0.766265869140625,-0.0484771728515625
-0.521209716796875,0.840911865234375,0.001434326171875
-0.5950469970703125,0.857574462890625,0.045379638671875
-0.7100830078125,0.8448486328125,0.0190277099609375
-0.79522705078125,1.01812744140625,-0.0003814697265625
-0.7706451416015625,1.0235748291015625,-0.0743560791015625
-0.73626708984375,0.723480224609375,-0.059051513671875
-0.800994873046875,0.626068115234375,0.0077667236328125
-0.799713134765625,0.7005615234375,-0.0199737548828125
-0.7812347412109375,0.7529296875,-0.0411834716796875
-0.761627197265625,0.732574462890625,-0.0798797607421875
-0.6950531005859375,0.7234954833984375,-0.0975341796875
-0.6093292236328125,0.7366790771484375,-0.097198486328125
-0.5511016845703125,0.74267578125,-0.078216552734375
-0.523223876953125,0.7543182373046875,-0.075958251953125
-0.5375518798828125,0.783599853515625,-0.043121337890625
-0.6097412109375,0.8058624267578125,-0.02069091796875
-0.6603240966796875,0.802581787109375,0.004058837890625
-0.65814208984375,0.8015899658203125,0.003143310546875
-0.6244659423828125,0.80731201171875,-0.0223541259765625
-0.6070098876953125,0.7852935791015625,-0.037078857421875
-0.6240997314453125,0.7991485595703125,-0.036773681640625
-0.6210174560546875,0.9232330322265624,-0.0524749755859375
-0.60302734375,0.94744873046875,-0.075927734375
-0.64373779296875,0.8383331298828125,-0.0804901123046875
-0.6316375732421875,0.7182159423828125,-0.0334320068359375
-0.5968780517578125,0.73931884765625,-0.0295562744140625
-0.52886962890625,0.7825775146484375,-0.0830841064453125
-0.4920501708984375,0.76141357421875,-0.1226654052734375
-0.4978790283203125,0.758392333984375,-0.1374664306640625
-0.5077667236328125,0.7795562744140625,-0.157196044921875
-0.514251708984375,0.8109893798828125,-0.182861328125
-0.5481414794921875,0.841156005859375,-0.1847686767578125
-0.59698486328125,0.8390350341796875,-0.157623291015625
-0.629791259765625,0.8244781494140625,-0.1155548095703125
-0.64788818359375,0.8190155029296875,-0.087738037109375
-0.6309814453125,0.8406829833984375,-0.05078125
-0.649200439453125,0.8421478271484375,-0.047882080078125
-0.687103271484375,0.82159423828125,-0.0225067138671875
-0.726226806640625,0.8065185546875,-0.0229339599609375
-0.7449188232421875,0.7739715576171875,-0.053924560546875
-0.7414093017578125,0.7411041259765625,-0.0940704345703125
-0.7067413330078125,0.743896484375,-0.109832763671875
-0.6979522705078125,0.792938232421875,-0.1367950439453125
-0.68536376953125,0.83843994140625,-0.2021026611328125
-0.6353759765625,0.8749542236328125,-0.2387542724609375
-0.5928802490234375,0.89727783203125,-0.2587127685546875
-0.5589141845703125,0.854583740234375,-0.283843994140625
-0.5224151611328125,0.815032958984375,-0.2624053955078125
-0.4923095703125,0.77410888671875,-0.189422607421875
-0.4765472412109375,0.747406005859375,-0.1320343017578125
-0.46929931640625,0.7829742431640625,-0.0855560302734375
-0.4544219970703125,0.8417816162109375,-0.0469207763671875
-0.4370269775390625,0.843994140625,-0.0246734619140625
-0.423736572265625,0.76544189453125,0.09381103515625
-0.4907989501953125,0.7506103515625,0.189544677734375
-0.5103302001953125,0.795135498046875,0.1828765869140625
-0.4963836669921875,0.827117919921875,0.2022705078125
-0.5283203125,0.8463592529296875,0.2338104248046875
-0.58441162109375,0.87188720703125,0.2570953369140625
-0.6510772705078125,0.9258270263671876,0.191375732421875
-0.730316162109375,0.8991546630859375,0.1558837890625
-0.8346405029296875,0.8504791259765625,0.133636474609375
-0.88433837890625,0.8110198974609375,0.078582763671875
-0.8990631103515625,0.7572021484375,0.0376129150390625
-0.95806884765625,0.891876220703125,-0.0733795166015625
-0.885498046875,0.982208251953125,-0.1858978271484375
-0.6974639892578125,0.76715087890625,-0.1792449951171875
-0.6910552978515625,0.778289794921875,-0.1187286376953125
-0.6261444091796875,0.88214111328125,-0.1369476318359375
-0.5511016845703125,0.9473114013671876,-0.20263671875
-0.47607421875,0.8574981689453125,-0.2046051025390625
-0.5179290771484375,0.760223388671875,-0.15557861328125
-0.4959869384765625,0.7325897216796875,-0.078369140625
-0.50146484375,0.7531890869140625,-0.0464935302734375
-0.4865875244140625,0.7812347412109375,-0.02130126953125
-0.5014495849609375,0.84588623046875,-0.012420654296875
-0.5153350830078125,0.9688720703125,-0.065032958984375
-0.4766998291015625,0.944427490234375,-0.04522705078125
-0.528076171875,0.865936279296875,-0.019683837890625
-0.5318603515625,1.0246429443359375,-0.0479583740234375
-0.4559173583984375,0.91180419921875,-0.025726318359375
-0.4735870361328125,0.6864013671875,0.0939788818359375
-0.5819091796875,0.6855316162109375,0.19390869140625
-0.605072021484375,0.8372039794921875,0.110443115234375
-0.5502471923828125,0.868072509765625,0.0486602783203125
-0.5530853271484375,0.7452850341796875,0.011016845703125
-0.56134033203125,0.699920654296875,-0.01873779296875
-0.5337371826171875,0.70599365234375,0.0279541015625
-0.612091064453125,0.706268310546875,0.015716552734375
-0.7018890380859375,0.6694488525390625,0.0586700439453125
-0.7693939208984375,0.7257080078125,0.0696563720703125
-0.8570709228515625,0.84405517578125,-0.0312957763671875
-0.9087066650390624,0.850677490234375,-0.12786865234375
-0.9098663330078124,0.811767578125,-0.11761474609375
-0.879486083984375,0.981964111328125,-0.0826263427734375
-0.7898101806640625,1.009490966796875,-0.1101531982421875
-0.687896728515625,0.750030517578125,-0.15576171875
-0.720489501953125,0.7181396484375,-0.111968994140625
-0.62591552734375,0.8488616943359375,-0.0799560546875
-0.5163116455078125,0.8932647705078125,-0.1041259765625
-0.487579345703125,0.7988128662109375,-0.1153564453125
-0.5026702880859375,0.7151031494140625,-0.141571044921875
-0.471466064453125,0.7299041748046875,-0.095977783203125
-0.4595794677734375,0.730316162109375,-0.0372314453125
-0.433258056640625,0.7214202880859375,0.0426483154296875
-0.45452880859375,0.763671875,0.0101318359375
-0.506591796875,0.8177490234375,-0.015472412109375
-0.5144195556640625,0.873016357421875,0.02301025390625
-0.5009613037109375,0.8649749755859375,0.04876708984375
-0.62347412109375,1.0126800537109375,0.0740966796875
-0.5816192626953125,1.0208892822265625,0.0194854736328125
-0.5826568603515625,0.727996826171875,-0.0409393310546875
-0.7610931396484375,0.7564239501953125,0.0052490234375
-0.8173828125,0.8673553466796875,-0.0127105712890625
-0.80169677734375,0.81591796875,-0.06744384765625
-0.7554473876953125,0.698822021484375,-0.1342926025390625
-0.6789703369140625,0.694305419921875,-0.1721343994140625
-0.5967254638671875,0.7225799560546875,-0.0933990478515625
-0.5788421630859375,0.7121124267578125,-0.0821533203125
-0.62158203125,0.73016357421875,-0.06201171875
-0.7176513671875,0.7508087158203125,-0.02947998046875
-0.8046112060546875,0.804229736328125,0.0103759765625
-0.83197021484375,0.825164794921875,-0.02520751953125
-0.8311309814453125,0.8341827392578125,-0.0835113525390625
-0.8904571533203125,1.08819580078125,-0.1177520751953125
-0.6949310302734375,1.0238800048828125,-0.126800537109375
-0.666015625,0.826263427734375,-0.083221435546875
-0.654693603515625,0.93414306640625,-0.1270751953125
-0.5424041748046875,1.0640411376953125,-0.1938323974609375
-0.4038543701171875,0.9398193359375,-0.3346710205078125
-0.4427032470703125,0.758941650390625,-0.2896270751953125
-0.448944091796875,0.6624298095703125,-0.1201171875
-0.4057769775390625,0.6882781982421875,-0.086273193359375
-0.3090667724609375,0.75,-0.1085205078125
-0.2924652099609375,0.793701171875,-0.0351104736328125
-0.3827972412109375,0.869842529296875,0.0325927734375
-0.4658203125,0.9132843017578124,0.0310516357421875
-0.5872955322265625,0.8900604248046875,-0.0203704833984375
-0.736785888671875,1.151092529296875,0.0292205810546875
-0.622406005859375,1.02362060546875,-0.020050048828125
-0.6477508544921875,0.7372283935546875,-0.04241943359375
-0.7855682373046875,0.736602783203125,0.0183868408203125
-0.7769012451171875,0.77978515625,0.0779876708984375
-0.6899566650390625,0.710601806640625,-0.05316162109375
-0.6369781494140625,0.673858642578125,-0.0959014892578125
-0.5887451171875,0.724853515625,-0.1274261474609375
-0.54486083984375,0.7308807373046875,-0.0850067138671875
-0.575836181640625,0.733734130859375,-0.0850830078125
-0.625335693359375,0.75390625,-0.0413055419921875
-0.6852874755859375,0.77593994140625,-0.02874755859375
-0.7175445556640625,0.8237457275390625,-0.044647216796875
-0.7185821533203125,0.8302001953125,-0.070220947265625
-0.819549560546875,0.9583740234375,-0.051605224609375
-0.83966064453125,1.106292724609375,-0.0869140625
-0.76263427734375,0.8076934814453125,-0.069091796875
-0.81494140625,0.742950439453125,-0.0942230224609375
-0.7217254638671875,0.8745880126953125,-0.127044677734375
-0.639007568359375,0.93927001953125,-0.1451416015625
-0.5762786865234375,0.8482666015625,-0.128875732421875
-0.56158447265625,0.77056884765625,-0.133392333984375
-0.4568023681640625,0.7693634033203125,-0.1065673828125
-0.3728179931640625,0.756072998046875,-0.0465545654296875
-0.30633544921875,0.7183380126953125,0.01068115234375
-0.2999420166015625,0.715576171875,-0.0040435791015625
-0.380096435546875,0.76776123046875,-0.0658416748046875
-0.43707275390625,0.87115478515625,0.0198211669921875
-0.5012359619140625,0.8513336181640625,-0.016937255859375
-0.6408538818359375,1.1161041259765625,0.0043487548828125
-0.59185791015625,1.0641632080078125,-0.1863555908203125
-0.6416168212890625,0.800201416015625,-0.16314697265625
-0.794158935546875,0.791961669921875,-0.064422607421875
-0.753631591796875,0.8425445556640625,-0.044036865234375
-0.677581787109375,0.76446533203125,-0.0668487548828125
-0.628448486328125,0.6529083251953125,-0.0400238037109375
-0.580230712890625,0.6594390869140625,-0.011138916015625
-0.542694091796875,0.690216064453125,-0.01141357421875
-0.5408172607421875,0.6806182861328125,0.002227783203125
-0.617431640625,0.732269287109375,-0.018402099609375
-0.689239501953125,0.781524658203125,-0.0295562744140625
-0.7744293212890625,0.8296051025390625,-0.065277099609375
-0.776458740234375,0.849456787109375,-0.114349365234375
-0.8011627197265625,0.8854827880859375,-0.091217041015625
-0.81903076171875,1.079559326171875,-0.079437255859375
-0.663177490234375,0.836151123046875,-0.0847625732421875
-0.726806640625,0.7619476318359375,-0.0602264404296875
-0.7036590576171875,0.92462158203125,-0.0496826171875
-0.60003662109375,0.9718170166015624,-0.100311279296875
-0.5352783203125,0.8239593505859375,-0.1592559814453125
-0.5407867431640625,0.7246856689453125,-0.1056365966796875
-0.489227294921875,0.713348388671875,-0.0417633056640625
-0.3984375,0.7376861572265625,0.007781982421875
-0.3250274658203125,0.74285888671875,0.0325164794921875
-0.3317718505859375,0.7482757568359375,0.041046142578125
-0.4436492919921875,0.771148681640625,-0.0430145263671875
-0.4649505615234375,0.8665008544921875,-0.0419464111328125
-0.4795379638671875,0.904754638671875,-0.1546630859375
-0.6655731201171875,1.0594329833984375,-0.191009521484375
-0.6305999755859375,0.9471893310546876,-0.156982421875
-0.545074462890625,0.7770233154296875,-0.21148681640625
-0.6196441650390625,0.7561492919921875,-0.2069549560546875
-0.6527252197265625,0.82598876953125,-0.13201904296875
-0.75164794921875,0.8406524658203125,-0.111907958984375
-0.719696044921875,0.6903228759765625,-0.1198883056640625
-0.7257537841796875,0.6366424560546875,-0.0854034423828125
-0.6715545654296875,0.6801910400390625,0.0193328857421875
-0.6065216064453125,0.7087554931640625,0.07373046875
-0.551971435546875,0.7357330322265625,0.0284423828125
-0.6342010498046875,0.787567138671875,-0.1829986572265625
-0.790924072265625,0.7985076904296875,-0.0395965576171875
-0.8609466552734375,0.8542938232421875,0.0403289794921875
-0.7875213623046875,0.8546295166015625,-0.0459442138671875
-0.81585693359375,1.0469970703125,-0.14892578125
-0.7592620849609375,1.049041748046875,-0.18310546875
-0.6793060302734375,0.8350982666015625,-0.2014923095703125
-0.6693572998046875,0.8227386474609375,-0.094268798828125
-0.59039306640625,0.893524169921875,-0.1435699462890625
-0.474639892578125,0.8642730712890625,-0.2554168701171875
-0.437286376953125,0.7044830322265625,-0.311859130859375
-0.4993133544921875,0.6396331787109375,-0.26983642578125
-0.5042572021484375,0.674591064453125,-0.2407073974609375
-0.4659576416015625,0.7468414306640625,-0.1427154541015625
-0.428375244140625,0.789947509765625,-0.0372772216796875
-0.416473388671875,0.837432861328125,0.0184783935546875
-0.4764862060546875,0.8972320556640625,0.014923095703125
-0.45703125,0.88409423828125,-0.0144195556640625
-0.5788421630859375,0.9239349365234376,0.0077362060546875
-0.601470947265625,1.02239990234375,0.0963592529296875
-0.541595458984375,0.704071044921875,0.0818328857421875
-0.696533203125,0.72564697265625,0.097503662109375
-0.694732666015625,0.889862060546875,0.1274261474609375
-0.6786956787109375,0.8566436767578125,-0.0345306396484375
-0.6716766357421875,0.675994873046875,-0.072479248046875
-0.6813201904296875,0.6576080322265625,-0.1126556396484375
-0.60418701171875,0.716339111328125,-0.0892791748046875
-0.5768280029296875,0.7234649658203125,-0.0818939208984375
-0.62066650390625,0.726318359375,-0.0905303955078125
-0.6901397705078125,0.764617919921875,-0.0849456787109375
-0.7520751953125,0.7947998046875,-0.058746337890625
-0.7641143798828125,0.8533172607421875,-0.0926513671875
-0.74700927734375,0.8012542724609375,-0.1297607421875
-0.807098388671875,0.912872314453125,-0.152008056640625
-0.772613525390625,1.06060791015625,-0.118408203125
-0.682861328125,0.8771209716796875,-0.0724029541015625
-0.7523193359375,0.828521728515625,-0.0410308837890625
-0.711639404296875,0.955718994140625,-0.1200103759765625
-0.5963592529296875,0.99859619140625,-0.1953125
-0.5309295654296875,0.8736724853515625,-0.1809844970703125
-0.5518341064453125,0.7632904052734375,-0.090576171875
-0.4813385009765625,0.7660369873046875,-0.081085205078125
-0.3698272705078125,0.7422332763671875,-0.07342529296875
-0.30096435546875,0.6893463134765625,-0.0089569091796875
-0.2929229736328125,0.6872711181640625,0.0336151123046875
-0.3447265625,0.77239990234375,0.0255584716796875
-0.4229583740234375,0.88836669921875,-0.0026092529296875
-0.5173187255859375,0.89581298828125,-0.021453857421875
-0.680328369140625,0.9999542236328124,0.0041351318359375
-0.67266845703125,1.1399993896484375,-0.05548095703125
-0.6263427734375,0.9785308837890624,-0.1933135986328125
-0.7225189208984375,0.7553253173828125,-0.084503173828125
-0.7988739013671875,0.780059814453125,0.0513153076171875
-0.8083343505859375,0.857513427734375,0.037689208984375
-0.71038818359375,0.7264251708984375,-0.0784149169921875
-0.67755126953125,0.6394805908203125,-0.1162872314453125
-0.59466552734375,0.667877197265625,-0.1063995361328125
-0.5304107666015625,0.6928558349609375,-0.05010986328125
-0.5238189697265625,0.709259033203125,-0.0097808837890625
-0.5488433837890625,0.720703125,0.020477294921875
-0.6753387451171875,0.7815093994140625,0.0167083740234375
-0.7783203125,0.88641357421875,-0.0115509033203125
-0.828033447265625,0.8785858154296875,-0.057769775390625
-0.8636627197265625,0.919586181640625,-0.0876922607421875
-0.8319091796875,1.0710296630859375,-0.1101837158203125
-0.68341064453125,1.016876220703125,-0.102508544921875
-0.6180419921875,0.79522705078125,-0.1363677978515625
-0.659942626953125,0.80596923828125,-0.1345062255859375
-0.622711181640625,0.901519775390625,-0.0942535400390625
-0.579437255859375,0.9045562744140624,-0.0749969482421875
-0.525238037109375,0.7904815673828125,-0.0959625244140625
-0.441009521484375,0.72430419921875,-0.1674652099609375
-0.3961334228515625,0.7615814208984375,-0.1597747802734375
-0.3548583984375,0.754150390625,-0.1161041259765625
-0.3762664794921875,0.723968505859375,-0.0288543701171875
-0.4224700927734375,0.7424774169921875,-0.031707763671875
-0.5175628662109375,0.7934112548828125,-0.04718017578125
-0.5706329345703125,0.84844970703125,-0.0406341552734375
-0.629302978515625,0.8375701904296875,-0.12774658203125
-0.69952392578125,0.9588165283203124,-0.124114990234375
-0.697509765625,0.8634490966796875,-0.156768798828125
-0.71832275390625,0.7193603515625,-0.257904052734375
-0.7783355712890625,0.590179443359375,-0.2430572509765625
-0.80731201171875,0.67822265625,-0.257476806640625
-0.72955322265625,0.797698974609375,-0.427734375
-0.562774658203125,0.79791259765625,-0.57073974609375
-0.5082550048828125,0.7415008544921875,-0.5092620849609375
-0.527801513671875,0.695587158203125,-0.3271484375
-0.547821044921875,0.671875,-0.2796478271484375
-0.5187835693359375,0.7039947509765625,-0.2955169677734375
-0.494384765625,0.769866943359375,-0.371826171875
-0.5021209716796875,0.808502197265625,-0.4295196533203125
-0.5465240478515625,0.787506103515625,-0.4694366455078125
-0.549041748046875,0.7867279052734375,-0.4111785888671875
-0.4984283447265625,0.81048583984375,-0.3936767578125
-0.455352783203125,0.792938232421875,-0.34564208984375
-0.4490509033203125,0.8151397705078125,-0.35791015625
-0.4661712646484375,0.8766632080078125,-0.352508544921875
-0.4266815185546875,0.8480377197265625,-0.37701416015625
-0.4105987548828125,0.7500762939453125,-0.4423065185546875
-0.44189453125,0.7113494873046875,-0.3885955810546875
-0.429779052734375,0.7292633056640625,-0.371185302734375
-0.4125213623046875,0.773162841796875,-0.374420166015625
-0.3927001953125,0.7771148681640625,-0.4462432861328125
-0.337982177734375,0.757232666015625,-0.4775543212890625
-0.3127899169921875,0.7346954345703125,-0.5545196533203125
-0.3347015380859375,0.7389373779296875,-0.587554931640625
-0.3965301513671875,0.70062255859375,-0.6198272705078125
-0.3980712890625,0.7029876708984375,-0.677520751953125
-0.3616485595703125,0.6927032470703125,-0.6726837158203125
-0.3531341552734375,0.665435791015625,-0.73297119140625
-0.37005615234375,0.665618896484375,-0.773681640625
-0.37310791015625,0.66094970703125,-0.786468505859375
-0.355621337890625,0.660125732421875,-0.704010009765625
-0.4231719970703125,0.70562744140625,-0.696441650390625
-0.515411376953125,0.75494384765625,-0.6829833984375
-0.522674560546875,0.789154052734375,-0.6344451904296875
-0.5741729736328125,0.8566131591796875,-0.54412841796875
-0.5504608154296875,0.8695831298828125,-0.50103759765625
-0.4916229248046875,0.8519439697265625,-0.4364013671875
-0.456878662109375,0.8439178466796875,-0.3516082763671875
-0.485504150390625,0.9032745361328124,-0.2346954345703125
-0.3958892822265625,0.901153564453125,-0.1002044677734375
-0.4354400634765625,0.777862548828125,-0.1203765869140625
-0.457183837890625,0.7335662841796875,0.015106201171875
-0.4246826171875,0.82257080078125,0.134796142578125
-0.3310546875,0.969390869140625,0.09295654296875
-0.289947509765625,0.945526123046875,0.01239013671875
-0.396728515625,0.85614013671875,0.0228118896484375
-0.55072021484375,0.76959228515625,0.094512939453125
-0.625579833984375,0.7257537841796875,0.1480560302734375
-0.654022216796875,0.7823638916015625,0.123321533203125
-0.6348724365234375,0.7938079833984375,0.017425537109375
-0.66619873046875,0.7852325439453125,-0.0318756103515625
-0.7129058837890625,0.808135986328125,-0.064727783203125
-0.704193115234375,0.8442535400390625,-0.077911376953125
-0.7019195556640625,0.8447723388671875,-0.1340789794921875
-0.77899169921875,0.984771728515625,-0.174407958984375
-0.7683258056640625,1.0138397216796875,-0.1526641845703125
-0.72222900390625,0.85797119140625,-0.164886474609375
-0.7230072021484375,0.8892974853515625,-0.213714599609375
-0.6477508544921875,0.9180908203125,-0.245086669921875
-0.565155029296875,0.8668060302734375,-0.1594696044921875
-0.5536041259765625,0.804901123046875,-0.1198577880859375
-0.5224456787109375,0.82110595703125,-0.136871337890625
-0.475128173828125,0.855133056640625,-0.1407012939453125
-0.4293365478515625,0.83404541015625,-0.09344482421875
-0.3942413330078125,0.7921295166015625,-0.0713043212890625
-0.365936279296875,0.77490234375,-0.0959014892578125
-0.3713531494140625,0.819122314453125,-0.0600433349609375
-0.3410491943359375,0.85382080078125,-0.04595947265625
-0.4237060546875,0.9095916748046876,-0.05712890625
-0.4908294677734375,1.15826416015625,-0.0260772705078125
-0.433685302734375,0.8673553466796875,-0.1388397216796875
-0.65972900390625,0.7867279052734375,-0.098388671875
-0.7017669677734375,0.87103271484375,-0.0500335693359375
-0.6420440673828125,0.8928070068359375,-0.06640625
-0.5625762939453125,0.7449493408203125,-0.1483306884765625
-0.540557861328125,0.6855316162109375,-0.161529541015625
-0.5247650146484375,0.7221832275390625,-0.1174163818359375
-0.495758056640625,0.7244110107421875,-0.072509765625
-0.511871337890625,0.7047882080078125,-0.0660247802734375
-0.581024169921875,0.772491455078125,-0.0616912841796875
-0.654327392578125,0.89935302734375,-0.0913848876953125
-0.686859130859375,0.89959716796875,-0.1417083740234375
-0.704559326171875,0.8115997314453125,-0.1679840087890625
-0.7939300537109375,1.0158233642578125,-0.1182861328125
-0.695220947265625,1.11138916015625,-0.139892578125
-0.64703369140625,0.8359832763671875,-0.1620635986328125
-0.7229766845703125,0.7880706787109375,-0.1759796142578125
-0.6723175048828125,0.8862762451171875,-0.1337738037109375
-0.528228759765625,0.90093994140625,-0.1497344970703125
-0.4885711669921875,0.7975006103515625,-0.183746337890625
-0.4688568115234375,0.74688720703125,-0.148956298828125
-0.426788330078125,0.7562255859375,-0.0912628173828125
-0.435455322265625,0.758941650390625,-0.015106201171875
-0.4334564208984375,0.765167236328125,0.0306549072265625
-0.4532470703125,0.800567626953125,-0.0609893798828125
-0.5021514892578125,0.85748291015625,-0.1068267822265625
-0.5174560546875,0.8920440673828125,-0.0960845947265625
-0.5069580078125,0.828857421875,-0.15087890625
-0.577484130859375,0.9840545654296876,-0.0589599609375
-0.3943328857421875,0.9657135009765624,-0.1430511474609375
-0.3488616943359375,0.7969818115234375,-0.2983551025390625
-0.5640716552734375,0.7676239013671875,-0.19415283203125
-0.5911407470703125,0.8064422607421875,-0.0175323486328125
-0.550537109375,0.832000732421875,-0.1302947998046875
-0.5004730224609375,0.716552734375,-0.1792449951171875
-0.5230712890625,0.69110107421875,-0.135833740234375
-0.53607177734375,0.7349700927734375,-0.1247711181640625
-0.5939178466796875,0.76611328125,-0.08551025390625
-0.701629638671875,0.801300048828125,-0.0779571533203125
-0.740325927734375,0.8463287353515625,-0.1316070556640625
-0.79278564453125,0.8647918701171875,-0.215057373046875
-0.908203125,0.8256378173828125,-0.105438232421875
-0.90618896484375,0.7451934814453125,0.0999755859375
-0.86376953125,0.8150787353515625,0.0604400634765625
-0.903076171875,1.099365234375,-0.187530517578125
-0.747406005859375,0.94317626953125,-0.253326416015625
-0.716583251953125,0.843353271484375,-0.2965850830078125
-0.6350860595703125,0.902191162109375,-0.304534912109375
-0.49957275390625,0.9397735595703124,-0.22833251953125
-0.396453857421875,0.85247802734375,-0.2532806396484375
-0.387969970703125,0.7436676025390625,-0.278961181640625
-0.4139556884765625,0.7196197509765625,-0.235992431640625
-0.398468017578125,0.7001953125,-0.1347808837890625
-0.368896484375,0.7144317626953125,-0.1037750244140625
-0.37066650390625,0.758880615234375,-0.0826568603515625
-0.4281158447265625,0.8274383544921875,-0.05413818359375
-0.4892578125,0.871490478515625,0.0278167724609375
-0.5326385498046875,0.86981201171875,0.0186004638671875
-0.694854736328125,1.00616455078125,-0.0469512939453125
-0.5869903564453125,1.106658935546875,-0.12255859375
-0.5426025390625,0.8572998046875,-0.2438507080078125
-0.6658172607421875,0.6600494384765625,-0.0871429443359375
-0.7186737060546875,0.71453857421875,0.070343017578125
-0.6557769775390625,0.7631378173828125,0.0402069091796875
-0.5525970458984375,0.7027435302734375,-0.1172332763671875
-0.521575927734375,0.694610595703125,-0.1908111572265625
-0.501495361328125,0.7439117431640625,-0.1714019775390625
-0.517242431640625,0.7244720458984375,-0.0950927734375
-0.59088134765625,0.697052001953125,-0.0480499267578125
-0.6607818603515625,0.7189788818359375,-0.0264892578125
-0.7157440185546875,0.764404296875,-0.0400390625
-0.7507171630859375,0.823974609375,-0.0853424072265625
-0.7439727783203125,0.85113525390625,-0.1088409423828125
-0.76605224609375,0.85565185546875,-0.105255126953125
-0.8405914306640625,1.123046875,-0.107025146484375
-0.710784912109375,1.01080322265625,-0.1407928466796875
-0.70684814453125,0.7760162353515625,-0.1262969970703125
-0.726806640625,0.8858489990234375,-0.130584716796875
-0.624267578125,0.9907684326171876,-0.1797943115234375
-0.49212646484375,0.875946044921875,-0.2204132080078125
-0.47296142578125,0.730987548828125,-0.2191619873046875
-0.4298858642578125,0.7351531982421875,-0.22149658203125
-0.3554229736328125,0.7397003173828125,-0.1129608154296875
-0.303558349609375,0.7044219970703125,-0.0260467529296875
-0.2924957275390625,0.701202392578125,-0.00921630859375
-0.351043701171875,0.7499847412109375,-0.02386474609375
-0.47528076171875,0.8613739013671875,0.0147247314453125
-0.5025177001953125,0.956756591796875,0.0204925537109375
-0.65704345703125,1.00286865234375,0.0022125244140625
-0.6774139404296875,1.16961669921875,-0.0543365478515625
-0.583709716796875,0.9089813232421876,-0.2438812255859375
-0.727447509765625,0.7658843994140625,-0.1194000244140625
-0.77825927734375,0.82598876953125,-0.021636962890625
-0.739654541015625,0.8155517578125,-0.107757568359375
-0.6570281982421875,0.7057647705078125,-0.2549591064453125
-0.6240692138671875,0.6570587158203125,-0.2836456298828125
-0.5227508544921875,0.696258544921875,-0.192138671875
-0.4581756591796875,0.7067718505859375,-0.1346893310546875
-0.4258880615234375,0.688873291015625,-0.093292236328125
-0.470458984375,0.732696533203125,-0.0108489990234375
-0.6284332275390625,0.840179443359375,-0.094879150390625
-0.7450408935546875,0.84918212890625,-0.09478759765625
-0.7793426513671875,0.8085784912109375,-0.0463104248046875
-0.7951202392578125,0.8315887451171875,-0.0041961669921875
-0.797760009765625,1.048919677734375,-0.05438232421875
-0.6895599365234375,0.9693756103515624,-0.1133575439453125
-0.7201995849609375,0.812042236328125,-0.114044189453125
-0.7049713134765625,0.940826416015625,-0.132659912109375
-0.616973876953125,0.98968505859375,-0.165985107421875
-0.5137786865234375,0.8724822998046875,-0.204925537109375
-0.4796905517578125,0.73944091796875,-0.202606201171875
-0.41510009765625,0.7383575439453125,-0.1478118896484375
-0.3274993896484375,0.7224578857421875,-0.054046630859375
-0.3023529052734375,0.687896728515625,-0.004425048828125
-0.299652099609375,0.7103271484375,0.021209716796875
-0.3600921630859375,0.7833709716796875,0.002716064453125
-0.446136474609375,0.90692138671875,-0.0040130615234375
-0.4821929931640625,0.939239501953125,-0.07830810546875
-0.5651397705078125,0.9030303955078124,-0.157257080078125
-0.71221923828125,1.1371307373046875,-0.056732177734375
-0.6447601318359375,1.09808349609375,-0.13031005859375
-0.633087158203125,0.83001708984375,-0.2242584228515625
-0.727142333984375,0.7212677001953125,-0.169342041015625
-0.8134918212890625,0.7838897705078125,-0.1190185546875
-0.786712646484375,0.74749755859375,-0.083221435546875
-0.6817169189453125,0.64044189453125,-0.0908203125
-0.568206787109375,0.6544036865234375,-0.092376708984375
-0.49951171875,0.69036865234375,-0.0853118896484375
-0.4805450439453125,0.6878509521484375,-0.0770416259765625
-0.5602874755859375,0.6610565185546875,-0.0653839111328125
-0.6593170166015625,0.717864990234375,-0.07672119140625
-0.7242584228515625,0.886322021484375,-0.11431884765625
-0.7631378173828125,0.9029388427734376,-0.0762939453125
-0.779205322265625,0.904541015625,-0.044525146484375
-0.7589111328125,0.9362640380859376,0.0284881591796875
-0.700439453125,1.13482666015625,0.0818328857421875
-0.6246795654296875,0.908660888671875,-0.02642822265625
-0.793426513671875,0.8656158447265625,-0.02740478515625
-0.754486083984375,1.0499114990234375,-0.0377044677734375
-0.548919677734375,1.04290771484375,-0.087127685546875
-0.38446044921875,0.878570556640625,-0.186126708984375
-0.335723876953125,0.757568359375,-0.1868438720703125
-0.328857421875,0.7070770263671875,-0.1055908203125
-0.2601318359375,0.6583099365234375,0.022735595703125
-0.233184814453125,0.617584228515625,0.045166015625
-0.298431396484375,0.666473388671875,-0.0405120849609375
-0.403289794921875,0.7890167236328125,-0.1786651611328125
-0.5228118896484375,0.9166412353515624,-0.2172698974609375
-0.641693115234375,0.960906982421875,-0.1988525390625
-0.797119140625,1.0431671142578125,-0.14544677734375
-0.8709716796875,1.2299041748046875,-0.2033843994140625
-0.8369903564453125,1.071868896484375,-0.24945068359375
-0.7843780517578125,0.6722869873046875,-0.197967529296875
-0.811248779296875,0.570648193359375,-0.1512908935546875
-0.783660888671875,0.687896728515625,-0.06842041015625
-0.6604461669921875,0.792205810546875,-0.0643310546875
-0.55975341796875,0.75030517578125,-0.118408203125
-0.59619140625,0.7786712646484375,-0.1063079833984375
-0.666412353515625,0.732574462890625,-0.019073486328125
-0.76092529296875,0.63397216796875,-0.0164947509765625
-0.8883819580078125,0.67626953125,-0.1636505126953125
-0.962799072265625,0.64556884765625,-0.4924163818359375
-0.931732177734375,0.6261749267578125,-0.910797119140625
-0.9445953369140624,0.60174560546875,-0.900299072265625
-0.9241790771484376,0.497955322265625,-0.9532318115234376
-0.8526763916015625,0.5869598388671875,-0.9765625
-0.593963623046875,0.6648101806640625,-1.1064453125
-0.4585418701171875,0.502044677734375,-1.150909423828125
-0.37042236328125,0.485321044921875,-0.98944091796875
-0.3138427734375,0.537872314453125,-0.908905029296875
-0.282989501953125,0.4686431884765625,-0.825408935546875
-0.2546539306640625,0.332855224609375,-0.9113922119140624
-0.308807373046875,0.2976837158203125,-0.9738311767578124
-0.277435302734375,0.209564208984375,-0.9147491455078124
-0.1558685302734375,0.128753662109375,-1.0643157958984375
-0.20526123046875,0.145172119140625,-1.1480712890625
-0.2924957275390625,0.12396240234375,-1.0489349365234375
-0.1635284423828125,0.0749664306640625,-1.12078857421875
-0.1217498779296875,0.08270263671875,-1.1867828369140625
-0.145477294921875,0.024688720703125,-0.927093505859375
-0.1249847412109375,-0.1328277587890625,-0.880523681640625
-0.1393585205078125,-0.1208343505859375,-0.9678802490234376
-0.158660888671875,-0.0381927490234375,-0.9009857177734376
-0.0802459716796875,-0.0669403076171875,-0.7808380126953125
0.01263427734375,-0.1078643798828125,-0.7059783935546875
-0.0308380126953125,-0.2153167724609375,-0.544036865234375
-0.1868896484375,-0.2886505126953125,-0.554290771484375
-0.2571868896484375,-0.2935943603515625,-0.8277130126953125
-0.2117462158203125,-0.347900390625,-0.8194732666015625
-0.258941650390625,-0.2254791259765625,-0.6484832763671875
-0.0078277587890625,-0.30255126953125,-0.7516326904296875
0.0793609619140625,-0.294891357421875,-0.660614013671875
0.022857666015625,-0.32806396484375,-0.85595703125
0.0566558837890625,-0.2755279541015625,-0.9679718017578124
0.170318603515625,-0.416259765625,-0.910400390625
0.0884246826171875,-0.246673583984375,-0.7036895751953125
-0.0267333984375,-0.24029541015625,-0.90521240234375
0.1349945068359375,-0.3412017822265625,-1.0936737060546875
0.244049072265625,-0.1722259521484375,-0.806793212890625
0.0400848388671875,-0.43341064453125,-0.59814453125
-0.088043212890625,-0.2846832275390625,-0.9477691650390624
0.11810302734375,-0.3881988525390625,-1.0186767578125
0.0138702392578125,-0.3246612548828125,-0.764007568359375
-0.0402374267578125,-0.458526611328125,-0.6926116943359375
0.0013580322265625,-0.397918701171875,-0.72747802734375
0.1791839599609375,-0.3880157470703125,-0.56939697265625
0.2266845703125,-0.1640167236328125,-0.230255126953125
0.033721923828125,0.0126190185546875,0.00250244140625
0.0333251953125,0.0147552490234375,0.0014495849609375
0.03277587890625,0.0160980224609375,-0.002410888671875
0.0312042236328125,0.0191650390625,-0.0050048828125
0.02728271484375,0.02001953125,-0.006561279296875
0.0234527587890625,0.019683837890625,-0.0061492919921875
0.0199432373046875,0.0193023681640625,-0.00677490234375
0.01507568359375,0.01861572265625,-0.007568359375
0.010955810546875,0.01800537109375,-0.00732421875
0.00750732421875,0.0162353515625,-0.006195068359375
-6.3663482666015625,0.7195587158203125,-0.7753448486328125
-2.1943359375,-1.74713134765625,-6.01617431640625
0.3533935546875,0.2764129638671875,0.1053619384765625
0.1785430908203125,0.069366455078125,0.029632568359375
0.16162109375,0.029296875,-0.042694091796875
0.356048583984375,0.084686279296875,-0.6652679443359375
2.088470458984375,-0.2767181396484375,-0.2443084716796875
0.9519500732421876,0.2350616455078125,-1.0660858154296875
-0.4426422119140625,0.2978973388671875,-1.2014312744140625
-0.5333709716796875,-0.2062835693359375,-0.606536865234375
-0.1585693359375,-0.272186279296875,-0.4565277099609375
-0.12969970703125,-0.3920745849609375,-1.3410797119140625
0.03228759765625,-0.0677032470703125,-0.995452880859375
-0.1759796142578125,-0.21307373046875,-0.9298858642578124
-0.0482025146484375,-0.122406005859375,-1.050048828125
-0.1395263671875,-0.1912078857421875,-0.904876708984375
-0.1096954345703125,-0.13421630859375,-1.010406494140625
-0.1194305419921875,-0.1855010986328125,-0.95294189453125
-0.0925140380859375,-0.156097412109375,-0.9921112060546876
-0.0897216796875,-0.1854248046875,-0.9757080078125
-0.10137939453125,-0.161865234375,-0.9754791259765624
-0.0730743408203125,-0.1704864501953125,-0.999053955078125
-0.09185791015625,-0.160919189453125,-0.9715728759765624
-0.0918121337890625,-0.17620849609375,-0.9754180908203124
-0.0796356201171875,-0.1673736572265625,-0.9883270263671876
-0.0834808349609375,-0.18170166015625,-0.9819488525390624
-0.09063720703125,-0.183197021484375,-0.994171142578125
-0.1362762451171875,-0.2357330322265625,-0.9473419189453124
