AccelerationX,AccelerationY,AccelerationZ
0.0061798095703125,-0.01422119140625,-1.0653839111328125
-0.0311279296875,-0.06903076171875,-1.0387115478515625
-0.0024261474609375,-0.073822021484375,-0.900390625
0.123260498046875,-0.0431976318359375,-0.939178466796875
0.1617279052734375,-0.1576995849609375,-1.061553955078125
0.1231231689453125,-0.1610870361328125,-0.94427490234375
0.22259521484375,-0.1214447021484375,-1.0045013427734375
0.283599853515625,-0.1369171142578125,-1.022216796875
0.202606201171875,-0.1009674072265625,-0.8749847412109375
0.1532440185546875,-0.1912078857421875,-0.875
0.347686767578125,-0.1617889404296875,-1.0394287109375
0.24835205078125,-0.12445068359375,-0.79620361328125
0.3253021240234375,-0.2982025146484375,-1.1694793701171875
0.7784423828125,-0.4075469970703125,-0.9898681640625
0.223907470703125,-0.3108978271484375,-1.11376953125
0.326324462890625,-0.2627716064453125,-0.906890869140625
0.3432769775390625,-0.141937255859375,-0.836212158203125
0.358306884765625,-0.0833740234375,-0.9129180908203124
0.121826171875,-0.0086669921875,-0.721435546875
-0.0244903564453125,0.20635986328125,-0.86395263671875
-0.0919647216796875,0.519744873046875,-0.89959716796875
-0.2516937255859375,0.74578857421875,-0.87969970703125
-0.2316436767578125,1.2099151611328125,-0.651580810546875
0.5402374267578125,1.171142578125,-0.9988250732421876
0.7825775146484375,0.5218048095703125,-1.5178375244140625
0.0057525634765625,0.4944610595703125,-1.602508544921875
-0.5565948486328125,0.3809814453125,-1.636077880859375
-0.2570953369140625,0.6407623291015625,-1.781036376953125
0.5244140625,0.5619049072265625,-1.6111907958984375
0.586944580078125,-0.0693817138671875,-2.616851806640625
0.7836151123046875,-0.49981689453125,-2.6798248291015625
0.4068603515625,-0.2635955810546875,-1.3604736328125
-0.0084381103515625,-0.3914947509765625,0.3348388671875
-0.5562286376953125,-0.529815673828125,0.5054779052734375
-0.0404510498046875,-0.3269500732421875,1.3784332275390625
1.66943359375,-1.2758941650390625,-0.3841705322265625
1.9620208740234373,-2.0054473876953125,-3.8148193359375
2.28729248046875,-2.233505249023437,-5.865493774414063
1.7157745361328125,0.2230987548828125,-4.968658447265625
0.4886474609375,1.46453857421875,-2.78179931640625
0.4428253173828125,1.906768798828125,-0.5636749267578125
0.5431976318359375,2.2620849609375,-0.2533416748046875
-0.2783355712890625,2.4630889892578125,0.3676605224609375
0.0256195068359375,2.75,0.718109130859375
0.0713653564453125,2.4925994873046875,-0.1106719970703125
0.06866455078125,2.271331787109375,-1.20062255859375
-1.1141510009765625,1.2539215087890625,-3.484222412109375
3.4325714111328125,-3.834243774414064,-7.927383422851562
0.999359130859375,-1.48077392578125,-2.098724365234375
-0.50701904296875,-1.065826416015625,-0.38348388671875
0.2788543701171875,-1.2326812744140625,0.715911865234375
0.789947509765625,-1.673919677734375,0.425323486328125
-1.743865966796875,-1.97442626953125,1.1200714111328125
3.09674072265625,-2.22119140625,0.58062744140625
2.744857788085937,-2.930084228515625,-2.22998046875
5.99395751953125,-3.276611328125,-5.773406982421875
3.5199737548828125,0.6173248291015625,-6.5469970703125
-0.4405670166015625,2.1628875732421875,-3.4407501220703125
1.492095947265625,2.865097045898437,0.041961669921875
0.873809814453125,3.1976470947265625,-0.05560302734375
-1.0523529052734375,3.404266357421875,0.2156982421875
-0.3137664794921875,2.9525146484375,-0.4831390380859375
1.058349609375,2.57098388671875,-1.4768218994140625
0.0689544677734375,2.440093994140625,-3.6248779296875
0.6570281982421875,0.2132568359375,-7.254562377929687
4.646209716796875,-4.022720336914063,-7.759979248046875
0.3714752197265625,-1.892364501953125,-1.568328857421875
0.0347747802734375,-1.806976318359375,1.50799560546875
0.4757843017578125,-1.6564788818359375,0.8803253173828125
-0.0235443115234375,-1.7082977294921875,1.3722686767578125
1.1226654052734375,-1.75665283203125,0.1330108642578125
2.139755249023437,-4.319183349609375,-3.687469482421875
4.25048828125,-3.9937591552734375,-5.8477935791015625
4.46563720703125,-0.1723480224609375,-6.9633636474609375
1.243011474609375,2.530853271484375,-4.2494049072265625
1.759124755859375,3.424957275390625,-0.8473663330078125
1.6287994384765625,4.246246337890625,-0.6822967529296875
-1.5637969970703125,4.791839599609375,0.8743133544921875
-0.2111053466796875,4.217330932617188,-0.847076416015625
0.905120849609375,3.546417236328125,-3.26446533203125
-0.044891357421875,1.70721435546875,-5.636138916015625
2.5357208251953125,-3.0416412353515625,-7.939361572265625
4.1148834228515625,-3.2737579345703125,-4.460601806640625
-0.708465576171875,-1.6550445556640625,0.252838134765625
1.1825408935546875,-1.7190093994140625,1.20111083984375
0.4915771484375,-1.9254608154296875,0.593475341796875
-0.132843017578125,-1.7759552001953125,1.85888671875
2.654754638671875,-4.131118774414063,-1.4771575927734375
1.606964111328125,-4.8792572021484375,-5.0345001220703125
5.111328125,-2.9517974853515625,-7.909637451171875
1.8058624267578125,2.390289306640625,-7.8964996337890625
2.0800933837890625,3.8162994384765625,-1.6166839599609375
1.382904052734375,4.876190185546875,-0.68927001953125
-1.2192535400390625,5.589035034179688,1.9332122802734373
0.7907562255859375,4.382827758789063,-0.561279296875
1.089691162109375,3.908111572265625,-1.9088287353515625
0.7599029541015625,4.078369140625,-5.4054718017578125
5.9605560302734375,-1.492340087890625,-7.902679443359375
3.01556396484375,-3.8758697509765625,-6.1576690673828125
0.46856689453125,-1.9744720458984373,-0.4524688720703125
0.3340911865234375,-2.009140014648437,1.3058624267578125
-0.527496337890625,-2.283477783203125,0.97235107421875
-0.42730712890625,-2.5438232421875,0.744110107421875
0.6786956787109375,-3.7998046875,-0.6787109375
6.5018157958984375,-5.3499755859375,-6.062789916992188
6.306396484375,-1.2422027587890625,-7.899124145507812
2.67816162109375,2.8440399169921875,-7.7182464599609375
3.3138885498046875,3.824752807617188,-2.06231689453125
1.1750946044921875,4.863555908203125,-1.722320556640625
-1.4676055908203125,5.345718383789063,0.8945159912109375
0.2490997314453125,4.64923095703125,0.38946533203125
1.4014434814453125,4.277496337890625,-0.783660888671875
0.7452239990234375,3.7763519287109375,-4.2095794677734375
-0.7511444091796875,3.5887451171875,-7.962158203125
8.094741821289062,-3.126190185546875,-7.874725341796875
0.3097991943359375,-1.7324371337890625,-2.398345947265625
0.998138427734375,-1.9691162109375,0.7625579833984375
-0.410430908203125,-3.182769775390625,0.1130523681640625
0.997711181640625,-3.4280548095703125,0.557586669921875
3.06427001953125,-4.2433013916015625,-0.965423583984375
3.9571380615234375,-2.93402099609375,-2.141098022460937
8.089675903320312,-1.563873291015625,-7.645294189453125
4.400115966796875,3.415863037109375,-7.929718017578125
3.2224884033203125,4.21881103515625,-2.272430419921875
1.3828277587890625,4.749237060546875,-1.9123077392578125
-1.321014404296875,5.4620208740234375,0.988525390625
-0.038360595703125,4.699249267578125,0.491302490234375
1.4107666015625,3.7608489990234375,-0.2907257080078125
1.35064697265625,3.3625640869140625,-2.845550537109375
0.776519775390625,3.23223876953125,-5.82110595703125
8.09283447265625,-1.9158935546875,-7.8770751953125
2.08880615234375,-2.79901123046875,-4.113433837890625
1.013885498046875,-1.8195343017578125,-0.335845947265625
1.2642974853515625,-2.2657928466796875,0.5605010986328125
-1.0909576416015625,-2.3971710205078125,0.99700927734375
1.6324920654296875,-2.719451904296875,1.0550537109375
1.700103759765625,-4.04736328125,-0.8385009765625
5.0951995849609375,-4.1024322509765625,-3.962661743164064
8.081710815429688,-1.555755615234375,-6.9722900390625
2.714462280273437,1.74951171875,-5.670562744140625
2.6268768310546875,3.708465576171875,-1.766510009765625
1.4454345703125,4.51409912109375,-1.379913330078125
-2.319091796875,4.887847900390625,1.2960357666015625
0.7773284912109375,3.769577026367188,0.0082244873046875
1.8371429443359373,3.1131744384765625,-0.6670989990234375
1.19989013671875,2.764389038085937,-3.268157958984375
0.5111846923828125,2.601715087890625,-5.2659759521484375
7.697189331054687,-3.28936767578125,-7.879074096679687
1.6271514892578125,-2.729843139648437,-3.092498779296875
0.5862579345703125,-1.3597869873046875,0.721099853515625
0.202239990234375,-2.7265167236328125,0.3376922607421875
0.840576171875,-2.9606475830078125,1.230560302734375
0.3519439697265625,-3.993438720703125,0.0263519287109375
5.2247161865234375,-4.4024810791015625,-2.49981689453125
7.657867431640625,-3.0022735595703125,-7.880035400390625
3.283111572265625,1.7358245849609375,-7.231536865234375
2.062286376953125,3.574203491210937,-1.7643585205078125
1.3636474609375,3.906082153320313,-1.6080322265625
-1.338714599609375,4.594940185546875,0.62969970703125
0.3304595947265625,3.89324951171875,-0.0479278564453125
1.5051727294921875,3.6076507568359375,-0.4825286865234375
0.993560791015625,3.527450561523437,-3.06170654296875
1.4442596435546875,2.1475372314453125,-7.0247955322265625
5.7112579345703125,-4.3374786376953125,-7.90020751953125
1.8418731689453125,-2.837310791015625,-2.5673370361328125
0.2615814208984375,-1.9143218994140625,0.7713165283203125
0.7450103759765625,-2.259796142578125,1.1705322265625
-0.77294921875,-2.08892822265625,0.98529052734375
1.4910888671875,-2.2075653076171875,0.726470947265625
0.7388458251953125,-4.00531005859375,-2.114654541015625
6.4561920166015625,-4.551971435546875,-5.572265625
5.1446685791015625,-0.4798583984375,-6.953170776367188
3.135604858398437,2.5238037109375,-3.3105621337890625
2.2666778564453125,3.811859130859375,-1.688873291015625
0.33349609375,4.5972900390625,-0.893035888671875
-1.427703857421875,4.64202880859375,1.1082000732421875
0.3587493896484375,3.55731201171875,-0.03363037109375
1.0704345703125,3.052597045898437,-2.050537109375
0.8681182861328125,2.5749053955078125,-4.4290618896484375
4.3308868408203125,-2.09564208984375,-7.920318603515625
4.6111907958984375,-4.13665771484375,-5.721923828125
0.0593719482421875,-1.5345611572265625,-0.047027587890625
0.7132720947265625,-1.5854949951171875,1.2033538818359375
0.29034423828125,-2.136947631835937,1.2181243896484375
0.585540771484375,-1.99957275390625,1.4785308837890625
2.281097412109375,-3.093414306640625,0.2573699951171875
3.32635498046875,-5.0531158447265625,-4.04443359375
6.968231201171875,-3.548248291015625,-6.4339599609375
2.4609832763671875,0.8959503173828125,-5.8385772705078125
2.150634765625,3.015609741210937,-1.5180206298828125
1.679779052734375,4.0386505126953125,-1.4109039306640625
-1.872589111328125,4.906906127929688,1.3801116943359375
0.3577423095703125,3.94775390625,-0.1014862060546875
1.8254852294921875,3.421859741210937,-1.02569580078125
0.9156341552734376,3.0787811279296875,-4.382049560546875
4.3993988037109375,-2.0218658447265625,-7.91973876953125
5.620147705078125,-4.6793212890625,-6.379364013671875
-0.2012176513671875,-1.8338775634765625,-0.582611083984375
-0.1955718994140625,-1.37579345703125,1.1128387451171875
0.5128936767578125,-2.1330108642578125,1.392242431640625
0.123748779296875,-2.344955444335937,1.3749237060546875
1.94512939453125,-3.53802490234375,0.8993988037109375
4.10125732421875,-4.998504638671875,-3.319244384765625
7.2025299072265625,-4.24188232421875,-7.1920318603515625
3.49249267578125,1.3332977294921875,-6.27197265625
2.2353515625,3.369232177734375,-1.7519989013671875
1.5903778076171875,4.23431396484375,-1.459716796875
-1.3516082763671875,4.540313720703125,-0.0453338623046875
-0.312347412109375,3.745559692382813,0.2119903564453125
1.473480224609375,3.0843658447265625,-0.7401275634765625
1.6924285888671875,3.11163330078125,-1.9442596435546875
1.2169647216796875,2.3294677734375,-6.061431884765625
5.8368682861328125,-2.2885284423828125,-7.9025726318359375
4.636016845703125,-2.990570068359375,-3.959182739257813
0.1566314697265625,-1.7683563232421875,-0.791595458984375
0.7445220947265625,-1.97015380859375,0.8683319091796875
-0.4794921875,-2.5140380859375,1.90203857421875
3.118270874023437,-3.4970855712890625,1.15850830078125
2.728118896484375,-3.19854736328125,-0.636199951171875
5.508026123046875,-2.998565673828125,-3.719085693359375
7.8059539794921875,-1.4474945068359375,-6.1166534423828125
2.9788970947265625,2.1976318359375,-3.761764526367188
1.7516326904296875,3.89715576171875,-1.18402099609375
0.1298828125,4.0230865478515625,-0.7288818359375
-1.275482177734375,3.922271728515625,0.92633056640625
0.4638519287109375,3.257720947265625,0.0226898193359375
1.309173583984375,3.297515869140625,-1.236236572265625
1.4004058837890625,2.8753204345703125,-4.423995971679688
5.18511962890625,-1.352874755859375,-7.911895751953125
5.7134857177734375,-3.934539794921875,-6.26959228515625
0.9857330322265624,-1.8077850341796875,-0.2454681396484375
-0.096466064453125,-1.619293212890625,1.2988433837890625
0.0874176025390625,-2.0173492431640625,1.62420654296875
0.6551971435546875,-2.066436767578125,1.337432861328125
0.9718780517578124,-3.3434295654296875,-0.0331268310546875
3.2548980712890625,-4.200408935546875,-2.7196197509765625
8.029815673828125,-4.619552612304688,-6.3946380615234375
5.0875244140625,0.8435211181640625,-5.691452026367188
2.879989624023437,3.55133056640625,-1.65185546875
2.03863525390625,4.322723388671875,-1.1834259033203125
-1.8199615478515625,5.64959716796875,1.2157135009765625
0.045928955078125,4.334243774414063,0.31622314453125
1.373443603515625,3.3594512939453125,-0.9674530029296876
1.4757080078125,2.550018310546875,-3.4337158203125
4.159912109375,-0.344635009765625,-6.965728759765625
8.0670166015625,-3.5894012451171875,-5.4497833251953125
0.3465423583984375,-2.004058837890625,-1.33984375
-0.5380706787109375,-1.63995361328125,0.3691253662109375
-0.4818878173828125,-1.9519805908203125,1.4215545654296875
-1.095703125,-1.919281005859375,0.7835235595703125
0.7928619384765625,-2.0665283203125,1.201324462890625
2.01092529296875,-3.994140625,-1.6650543212890625
5.662643432617188,-3.584075927734375,-4.155288696289063
4.8928070068359375,-1.00994873046875,-5.1822662353515625
3.06024169921875,1.680816650390625,-2.7904815673828125
2.164794921875,3.075057983398437,-1.074981689453125
0.5810089111328125,3.927459716796875,-0.488037109375
-1.7587890625,4.13360595703125,0.89404296875
0.2762603759765625,3.398590087890625,0.5225830078125
0.9753265380859376,2.9131317138671875,-0.8777313232421875
1.431732177734375,2.8608551025390625,-3.163848876953125
6.094985961914063,-1.047210693359375,-7.901885986328125
5.806365966796875,-3.800048828125,-5.3830108642578125
0.26593017578125,-1.624908447265625,-0.546417236328125
0.181854248046875,-1.6326446533203125,0.5930023193359375
-0.236083984375,-1.99359130859375,1.0574951171875
0.365753173828125,-1.8964996337890625,1.5683441162109375
1.6678466796875,-2.8767852783203125,0.720703125
0.4297027587890625,-3.886383056640625,-1.0855865478515625
7.784744262695312,-4.8581085205078125,-5.6547393798828125
4.0162506103515625,-0.1899261474609375,-7.2214508056640625
3.174301147460937,2.86724853515625,-2.4564361572265625
0.6365966796875,3.994827270507813,-1.773651123046875
-0.84027099609375,4.2344818115234375,0.138519287109375
-0.0867919921875,4.077651977539063,1.235595703125
1.1698455810546875,2.9417877197265625,0.012481689453125
0.86187744140625,2.49053955078125,-1.408294677734375
0.89434814453125,1.886444091796875,-4.08270263671875
2.3408966064453125,-2.5330810546875,-7.9425048828125
5.840621948242188,-3.50567626953125,-4.708465576171875
-0.3922882080078125,-1.5749969482421875,-0.1987152099609375
-0.5746307373046875,-1.198577880859375,0.5430908203125
-0.194061279296875,-1.26409912109375,1.274322509765625
0.237884521484375,-1.0436553955078125,1.64569091796875
1.4336090087890625,-2.2971343994140625,0.2662353515625
1.5664825439453125,-3.03564453125,-1.113433837890625
5.6447296142578125,-3.8544769287109375,-4.313934326171875
4.5221710205078125,-0.16552734375,-4.845962524414063
1.6375885009765625,2.0904541015625,-1.81854248046875
1.283203125,3.184539794921875,-0.4121551513671875
-0.475311279296875,3.793487548828125,-0.1117706298828125
-0.7943267822265625,3.7965087890625,1.21734619140625
1.2888946533203125,2.8887176513671875,-0.0028533935546875
1.033477783203125,2.24859619140625,-1.2470550537109375
0.2796173095703125,2.1222076416015625,-3.528564453125
3.81671142578125,-0.4729461669921875,-7.929229736328125
4.42437744140625,-3.446380615234375,-6.222808837890625
-0.1907196044921875,-2.1077117919921875,-1.3784942626953125
0.222015380859375,-1.890289306640625,0.5253143310546875
0.198150634765625,-2.115341186523437,1.1452484130859375
-0.2574310302734375,-1.48095703125,0.999908447265625
0.855377197265625,-1.4980010986328125,1.09112548828125
2.778717041015625,-4.162750244140625,-2.9873809814453125
6.076431274414063,-4.3421630859375,-5.747329711914063
3.377044677734375,0.9129180908203124,-4.754913330078125
2.298828125,2.5576629638671875,-1.6035003662109375
1.3880767822265625,3.03778076171875,-0.8415374755859375
0.289581298828125,3.41046142578125,-0.9055633544921876
-1.5333404541015625,3.6360931396484375,1.2574005126953125
0.12957763671875,2.986907958984375,-0.314422607421875
0.4030303955078125,2.856109619140625,-1.0018768310546875
0.17138671875,2.8558807373046875,-3.689620971679688
5.10382080078125,-1.5047149658203125,-7.912521362304687
5.536865234375,-4.542572021484375,-6.299362182617188
0.634033203125,-1.7937774658203125,-0.196563720703125
-0.2994842529296875,-1.46575927734375,1.2870941162109375
-0.4710540771484375,-1.4647674560546875,1.3037872314453125
-0.301544189453125,-1.1835174560546875,1.2239837646484375
1.3220367431640625,-1.8233184814453125,1.18280029296875
2.151718139648437,-3.843170166015625,-1.8965911865234373
8.086563110351562,-5.273971557617188,-6.892990112304688
2.8984375,1.00421142578125,-5.97052001953125
2.554779052734375,3.246078491210937,-1.3655548095703125
1.2660675048828125,4.4629974365234375,-1.110443115234375
-2.706634521484375,5.973892211914063,0.987030029296875
-1.0036163330078125,4.95184326171875,-0.7290802001953125
2.2457427978515625,3.967559814453125,-1.322784423828125
2.0911407470703125,2.56036376953125,-5.507110595703125
4.5445556640625,-1.1334381103515625,-7.9197235107421875
6.6485443115234375,-3.3981475830078125,-6.292724609375
0.3938751220703125,-2.089385986328125,-1.355621337890625
-0.0301361083984375,-1.98828125,0.1321563720703125
-0.126129150390625,-1.8510894775390625,0.958526611328125
-0.9804840087890624,-1.4685211181640625,0.944091796875
0.5726318359375,-1.4273681640625,0.9350433349609376
1.031402587890625,-2.4872283935546875,0.137908935546875
5.5987548828125,-4.569107055664063,-3.042694091796875
5.469985961914063,-3.225067138671875,-6.179718017578125
2.5993804931640625,0.153656005859375,-4.8048858642578125
2.526763916015625,3.10772705078125,-1.6586761474609375
1.0992279052734375,4.136138916015625,-1.0325927734375
-1.7245941162109375,4.41571044921875,0.2808380126953125
-0.6228485107421875,3.618850708007813,-0.128387451171875
1.17974853515625,3.191162109375,-0.902008056640625
1.2044219970703125,2.538482666015625,-3.300018310546875
3.544342041015625,1.4113006591796875,-7.516708374023437
7.2299957275390625,-4.56585693359375,-7.747406005859375
-0.1386260986328125,-2.3697052001953125,-1.6048431396484375
-0.0532684326171875,-1.733673095703125,0.6405181884765625
-0.2242889404296875,-1.876678466796875,1.064697265625
0.3546905517578125,-1.456329345703125,1.46624755859375
1.51568603515625,-1.955291748046875,1.56390380859375
1.5761566162109375,-3.202728271484375,-0.4091644287109375
8.051986694335938,-4.3992919921875,-4.0576934814453125
3.851638793945313,-0.0848388671875,-5.855133056640625
2.310089111328125,2.331771850585937,-2.090667724609375
1.42950439453125,3.692428588867188,-1.0415191650390625
-0.9553680419921876,5.008071899414063,0.0226898193359375
-1.4314422607421875,4.96893310546875,0.178558349609375
1.502349853515625,4.493331909179688,-1.03656005859375
2.113861083984375,3.368255615234375,-4.793914794921875
1.951171875,-0.7013702392578125,-7.9504241943359375
8.0906982421875,-4.055908203125,-7.412521362304687
0.3605194091796875,-2.1807098388671875,-1.22662353515625
-0.0823516845703125,-1.575531005859375,0.52154541015625
0.9871826171875,-1.7200927734375,1.244903564453125
0.0091400146484375,-1.5101165771484375,1.2252960205078125
0.259857177734375,-1.35791015625,1.2010955810546875
-0.06561279296875,-2.169036865234375,-0.4422607421875
3.9903411865234375,-4.117477416992188,-3.4906768798828125
6.46185302734375,-2.45654296875,-5.7807159423828125
3.5288543701171875,0.9080047607421876,-3.6708984375
2.50677490234375,3.119049072265625,-1.3376007080078125
1.284698486328125,3.461669921875,-1.36639404296875
-2.148178100585937,4.123458862304688,0.4285888671875
-0.590972900390625,3.451324462890625,0.6028900146484375
0.432769775390625,2.3016815185546875,-0.379241943359375
0.0146942138671875,1.8725738525390625,-1.3920440673828125
0.1703948974609375,2.5304412841796875,-3.1757049560546875
7.408767700195312,-2.260604858398437,-7.88446044921875
5.307769775390625,-2.8643951416015625,-3.384735107421875
0.03521728515625,-1.3106689453125,0.3056640625
-0.2994842529296875,-1.2219696044921875,0.3492584228515625
-0.2246246337890625,-1.3778076171875,1.158660888671875
0.1910247802734375,-1.57183837890625,1.4652252197265625
1.2362213134765625,-1.4807281494140625,1.31201171875
2.161865234375,-2.144927978515625,-0.70831298828125
8.064651489257812,-5.19805908203125,-5.0458526611328125
3.495513916015625,-0.0380401611328125,-6.1859893798828125
2.1204986572265625,2.9534454345703125,-1.447845458984375
0.2520294189453125,3.506561279296875,-0.4932708740234375
-1.7742767333984375,3.9488677978515625,0.5550689697265625
-0.580963134765625,3.44464111328125,0.42974853515625
0.7915802001953125,2.4885711669921875,-0.47021484375
0.46173095703125,2.07940673828125,-1.5806732177734375
0.3857421875,2.362411499023437,-3.7998046875
6.906219482421875,-2.24053955078125,-7.890167236328125
3.569442749023437,-2.8067169189453125,-3.6119232177734375
0.1780242919921875,-1.8852996826171875,-0.4182281494140625
-0.83209228515625,-1.6426239013671875,0.4506072998046875
-0.108734130859375,-1.8631134033203125,1.038970947265625
0.7870025634765625,-1.380126953125,1.313995361328125
0.98541259765625,-0.866729736328125,1.6272735595703125
1.311248779296875,-1.982818603515625,-0.65191650390625
7.606842041015625,-4.943038940429688,-5.209320068359375
4.983306884765625,-0.8373565673828125,-5.6363067626953125
2.9234771728515625,2.6089019775390625,-1.89703369140625
1.2359161376953125,3.1637115478515625,-1.2010650634765625
-0.08154296875,3.42254638671875,-0.87408447265625
-1.7447662353515625,3.57574462890625,1.0058746337890625
-0.0608062744140625,2.820892333984375,0.4975738525390625
0.0402679443359375,2.283920288085937,-1.198883056640625
-0.149078369140625,2.4544219970703125,-2.5789947509765625
5.750167846679688,0.57733154296875,-6.619186401367188
4.681060791015625,-3.0304107666015625,-5.171310424804688
1.3286285400390625,-1.897308349609375,-1.1426239013671875
0.038604736328125,-1.448974609375,0.3428497314453125
-0.1852874755859375,-1.611419677734375,0.9677581787109376
-0.37261962890625,-1.6719970703125,1.1722259521484375
1.683868408203125,-1.7161407470703125,1.169708251953125
2.363616943359375,-2.3883056640625,-0.3318939208984375
7.647537231445312,-4.32470703125,-5.388702392578125
4.2826690673828125,-0.4293365478515625,-7.46185302734375
2.93792724609375,2.8275146484375,-2.5396881103515625
1.430694580078125,3.861480712890625,-0.4779510498046875
-0.5152587890625,4.2742462158203125,0.0678863525390625
-0.7219390869140625,4.2144317626953125,1.2157440185546875
0.3509063720703125,3.2528533935546875,0.2204742431640625
0.7703857421875,2.5105438232421875,-1.3382568359375
0.648162841796875,1.9487457275390625,-3.8997955322265625
3.0679931640625,0.7608795166015625,-6.164093017578125
6.27716064453125,-2.7085723876953125,-6.0528106689453125
1.4882049560546875,-1.659942626953125,-1.140869140625
-0.1327362060546875,-1.687652587890625,0.256011962890625
-0.0926513671875,-2.3902130126953125,0.5222320556640625
1.0400848388671875,-2.2549285888671875,1.1883087158203125
2.3154449462890625,-2.5090484619140625,0.4867095947265625
4.445083618164063,-2.484725952148437,-1.861236572265625
6.621841430664063,-1.4776458740234375,-5.221923828125
2.695343017578125,1.346282958984375,-4.317352294921875
3.20123291015625,2.897186279296875,-0.885986328125
0.8283843994140625,3.728668212890625,-0.36126708984375
-1.63482666015625,4.114471435546875,0.8485260009765625
-0.2875518798828125,3.983078002929688,0.7004241943359375
0.532379150390625,3.114288330078125,-0.880126953125
0.6443328857421875,2.64703369140625,-4.098312377929688
3.632232666015625,1.1538543701171875,-6.889068603515625
5.489547729492188,-2.4494171142578125,-6.12213134765625
0.73077392578125,-1.58978271484375,-1.6989593505859375
0.7495880126953125,-1.5748748779296875,0.4643402099609375
0.6105804443359375,-2.3479766845703125,0.744476318359375
-0.1795806884765625,-2.4829254150390625,0.7507171630859375
2.632720947265625,-2.7545928955078125,0.225128173828125
4.187789916992188,-2.604110717773437,-2.0283966064453125
6.369781494140625,-1.232086181640625,-5.0305023193359375
4.7777862548828125,1.9184112548828125,-6.2281646728515625
3.5177459716796875,3.4971923828125,-2.510848999023437
0.80657958984375,4.18768310546875,-0.7259368896484375
-0.4403076171875,3.9456787109375,-0.6139068603515625
-1.6887359619140625,4.077194213867188,0.7581634521484375
-0.4636383056640625,3.3657379150390625,-0.373626708984375
0.258514404296875,2.8641357421875,-2.028839111328125
0.5064849853515625,2.085662841796875,-5.168991088867188
5.5799713134765625,-0.3878936767578125,-7.36651611328125
4.6264190673828125,-2.423614501953125,-4.414306640625
1.109375,-1.54119873046875,-0.8020477294921875
0.375274658203125,-1.79754638671875,0.320037841796875
-0.790069580078125,-2.08966064453125,0.493499755859375
-0.4770660400390625,-2.324127197265625,0.3845367431640625
1.178314208984375,-2.695297241210937,0.384368896484375
5.6902923583984375,-3.5870361328125,-2.904449462890625
7.285614013671875,-2.089691162109375,-5.719818115234375
3.95501708984375,1.5258941650390625,-5.65826416015625
2.87982177734375,3.48516845703125,-1.69781494140625
1.0137176513671875,4.768798828125,-1.19952392578125
-2.36248779296875,5.3891143798828125,0.5631866455078125
-0.9575347900390624,4.5008697509765625,0.19183349609375
1.559326171875,3.16497802734375,-1.49774169921875
1.7643280029296875,3.2025146484375,-2.6374969482421875
4.459030151367188,1.338653564453125,-5.9395599365234375
5.850753784179688,-3.049560546875,-6.73101806640625
1.5796966552734375,-1.6619873046875,-1.585052490234375
0.388519287109375,-1.736328125,-0.247711181640625
-0.0233612060546875,-1.9074249267578125,0.0677947998046875
-0.859344482421875,-1.937530517578125,0.3880462646484375
-0.12579345703125,-1.628875732421875,0.410064697265625
1.6940460205078125,-1.699798583984375,0.8713836669921875
4.97845458984375,-2.726165771484375,-2.765365600585937
6.58673095703125,-1.6240386962890625,-5.5279693603515625
2.583358764648437,1.5230712890625,-4.371368408203125
2.021514892578125,2.8059234619140625,-1.1505126953125
0.6740875244140625,3.16497802734375,-0.64239501953125
-1.35491943359375,3.8438720703125,-0.06048583984375
-1.80865478515625,3.691680908203125,0.58502197265625
0.300323486328125,2.947235107421875,-0.917572021484375
1.0401458740234375,2.345062255859375,-2.0164794921875
0.23577880859375,0.834991455078125,-4.6461181640625
5.5699615478515625,-3.650070190429688,-7.767501831054687
1.6379241943359375,-2.324462890625,-1.8947601318359373
-0.9176025390625,-1.8200836181640625,0.1105804443359375
-0.7026519775390625,-1.7513427734375,0.6096649169921875
0.0478515625,-1.5967559814453125,1.4446563720703125
0.708740234375,-1.71038818359375,0.605010986328125
1.73126220703125,-2.523910522460937,-0.9242095947265624
1.2964935302734375,-2.678939819335937,-2.649505615234375
3.0790252685546875,-2.7530059814453125,-3.6705322265625
5.46124267578125,-0.8218536376953125,-4.928970336914063
1.4888153076171875,1.4668121337890625,-2.5113983154296875
1.4042510986328125,2.755599975585937,-0.71661376953125
1.036865234375,3.402084350585937,-0.917999267578125
-2.61175537109375,4.088790893554688,0.85235595703125
-0.6050872802734375,3.626266479492188,0.246734619140625
1.107757568359375,2.904052734375,-1.518035888671875
0.6130523681640625,1.925933837890625,-4.2952423095703125
4.527633666992188,-2.11187744140625,-7.9179840087890625
5.12750244140625,-3.697555541992188,-5.066741943359375
-0.112152099609375,-1.4244384765625,-0.5096282958984375
0.230560302734375,-1.000579833984375,1.246246337890625
0.8317718505859375,-1.1394195556640625,1.0138092041015625
-0.2330322265625,-1.142333984375,1.417755126953125
-0.296722412109375,-1.3174285888671875,1.0002288818359375
1.361083984375,-3.1353912353515625,-0.9470977783203124
3.8499755859375,-3.388092041015625,-2.259033203125
5.46075439453125,-2.5886688232421875,-4.905029296875
2.402069091796875,0.161956787109375,-4.273773193359375
1.35858154296875,2.018218994140625,-0.6587066650390625
0.4968719482421875,2.8954315185546875,0.0263214111328125
-0.2240447998046875,3.3599090576171875,0.007965087890625
-1.156829833984375,3.34869384765625,0.774078369140625
0.1805419921875,2.8867340087890625,-0.6008453369140625
1.0131988525390625,2.6601715087890625,-1.9528350830078125
1.4525909423828125,1.197845458984375,-5.370529174804688
6.1284942626953125,-2.5190582275390625,-6.9398956298828125
3.0828094482421875,-2.877792358398437,-2.862899780273437
-0.1895904541015625,-1.766448974609375,-0.152374267578125
-0.6599884033203125,-1.3896026611328125,0.2207794189453125
-0.3506011962890625,-1.1945343017578125,0.954437255859375
-0.25396728515625,-0.7890625,1.2015838623046875
0.23883056640625,-0.9693450927734376,1.445220947265625
1.8658905029296875,-2.213592529296875,-0.9281768798828124
4.9881439208984375,-4.128204345703125,-3.653030395507813
4.3063507080078125,-1.0726165771484375,-3.44189453125
1.796630859375,0.67510986328125,-2.097076416015625
1.2375946044921875,2.2142486572265625,-0.5048370361328125
0.8229217529296875,2.657012939453125,-0.1259307861328125
-1.3182373046875,3.435531616210937,0.3751373291015625
-1.0876922607421875,3.2749481201171875,0.478851318359375
0.49822998046875,2.802734375,-0.579498291015625
1.184051513671875,1.8828125,-2.7550811767578125
1.2724761962890625,-0.14788818359375,-3.79510498046875
6.044952392578125,-3.4951324462890625,-7.897872924804687
0.3043060302734375,-1.8182830810546875,-1.799530029296875
0.0029296875,-1.3422393798828125,0.2555084228515625
0.5428009033203125,-1.389190673828125,0.712310791015625
0.074371337890625,-1.4002838134765625,0.942169189453125
0.634674072265625,-1.14935302734375,1.7962188720703125
0.4603729248046875,-1.108642578125,0.6571502685546875
0.4763336181640625,-2.0771942138671875,-1.2881622314453125
5.57196044921875,-4.2733306884765625,-4.7171173095703125
2.7813262939453125,-0.6922760009765625,-4.2079620361328125
0.8386993408203125,1.166534423828125,-1.2750396728515625
1.1550445556640625,2.307281494140625,0.2884368896484375
0.3420867919921875,3.498565673828125,0.14288330078125
-2.5437774658203125,4.2982177734375,1.70513916015625
0.166717529296875,3.648727416992188,-0.4582672119140625
1.55938720703125,3.0033721923828125,-2.088836669921875
1.0823822021484375,0.5670318603515625,-6.3355560302734375
4.572036743164063,-2.31793212890625,-6.940643310546875
2.766326904296875,-2.366790771484375,-2.894256591796875
0.14727783203125,-1.4085540771484375,-0.5335693359375
-0.7822113037109375,-0.959991455078125,0.178680419921875
-0.3386993408203125,-0.747711181640625,0.584991455078125
0.203948974609375,-0.754638671875,1.0451202392578125
0.751251220703125,-1.3116302490234375,1.7279205322265625
1.5151519775390625,-2.11285400390625,-0.6005401611328125
3.3970489501953125,-3.220855712890625,-2.671661376953125
5.316253662109375,-1.51922607421875,-5.2494659423828125
1.4154815673828125,0.9499664306640624,-3.24114990234375
1.6971435546875,2.3175201416015625,-0.1913299560546875
0.3529510498046875,3.1523590087890625,0.114898681640625
-1.6795501708984375,3.6816253662109375,1.0402374267578125
-0.4490203857421875,3.3374481201171875,0.5964508056640625
1.07672119140625,2.6893310546875,-0.51776123046875
1.0527801513671875,2.210296630859375,-2.3704071044921875
1.4524383544921875,-0.147369384765625,-6.07733154296875
5.2164154052734375,-2.740951538085937,-5.68011474609375
1.67144775390625,-1.586944580078125,-1.3759765625
-0.7172698974609375,-1.2147979736328125,-0.4803619384765625
-0.76153564453125,-1.0513153076171875,0.136322021484375
0.18646240234375,-1.1281280517578125,0.813018798828125
1.054473876953125,-0.9156494140625,1.0966339111328125
0.9705047607421876,-0.7108612060546875,0.725616455078125
0.0342864990234375,-0.305450439453125,0.6005859375
1.7215118408203125,-2.44775390625,-1.0450897216796875
6.060638427734375,-3.395980834960937,-6.824508666992188
1.45745849609375,0.7041168212890625,-2.3027496337890625
1.2562255859375,1.9416961669921875,-0.4253692626953125
0.73980712890625,2.89306640625,-0.04083251953125
-2.051376342773437,4.194366455078125,1.3155975341796875
-0.627716064453125,3.680923461914064,0.470001220703125
0.9232330322265624,2.84295654296875,-0.8755645751953125
0.781585693359375,2.111419677734375,-3.297210693359375
3.7795257568359375,-1.293243408203125,-7.573699951171875
5.50811767578125,-2.996932983398437,-4.9891510009765625
-0.0013275146484375,-1.4368896484375,-0.905426025390625
-0.5078125,-1.0411376953125,-0.108245849609375
-0.577911376953125,-0.668060302734375,0.6492156982421875
0.20684814453125,-0.6392974853515625,1.0700836181640625
0.5985870361328125,-0.9586639404296876,1.40972900390625
0.9906005859375,-1.389801025390625,0.7009124755859375
0.857177734375,-1.7646636962890625,-0.5279083251953125
4.517120361328125,-3.276596069335937,-3.122955322265625
5.2845458984375,-1.2307281494140625,-5.837432861328125
0.9438018798828124,1.5111846923828125,-2.9410552978515625
0.4344329833984375,2.321380615234375,-0.156707763671875
0.2666778564453125,3.1545562744140625,0.3684234619140625
-1.2139434814453125,3.921554565429688,1.4954833984375
-0.1237030029296875,3.614425659179688,0.4582672119140625
1.0223388671875,3.182159423828125,-0.98699951171875
0.6102447509765625,2.6685943603515625,-3.407135009765625
1.166168212890625,0.28912353515625,-7.673934936523437
5.6426849365234375,-2.9020538330078125,-6.443618774414063
0.6106109619140625,-1.737457275390625,-1.12567138671875
0.4246826171875,-1.9383392333984373,0.08026123046875
0.64190673828125,-1.5912628173828125,0.3466339111328125
0.48004150390625,-1.243408203125,1.0636138916015625
0.0594635009765625,-0.998077392578125,0.94189453125
0.5565338134765625,-1.9208831787109373,-0.268829345703125
2.57574462890625,-3.349594116210937,-2.91357421875
5.676773071289063,-3.5326385498046875,-4.992889404296875
4.0665130615234375,0.241729736328125,-4.795257568359375
1.793487548828125,2.1577606201171875,-1.844085693359375
0.91839599609375,2.9018096923828125,0.121856689453125
0.7775115966796875,3.48529052734375,-0.229034423828125
-2.112823486328125,4.2055511474609375,1.043853759765625
-0.193328857421875,3.7140960693359375,0.040069580078125
1.4415283203125,3.087142944335937,-0.9824676513671876
0.9637603759765624,2.329254150390625,-3.438690185546875
3.330795288085937,-1.7035675048828125,-7.9326324462890625
5.268798828125,-3.274398803710937,-5.2383880615234375
0.60992431640625,-1.533050537109375,-0.9683837890625
-0.66131591796875,-1.34088134765625,-0.1008148193359375
-0.1255950927734375,-1.091766357421875,0.290130615234375
0.00408935546875,-1.0672607421875,0.950042724609375
0.0678863525390625,-1.0672760009765625,1.4033203125
0.7369842529296875,-1.4331512451171875,0.7643585205078125
3.754806518554688,-2.143890380859375,-1.1328887939453125
5.842437744140625,-2.764892578125,-5.8401947021484375
1.62890625,0.6805877685546875,-4.439224243164063
1.273681640625,1.820709228515625,-1.3682708740234375
0.1861419677734375,2.196517944335937,0.0353546142578125
0.088409423828125,2.626953125,-0.1800537109375
-1.355743408203125,3.265289306640625,1.4593048095703125
-0.1144256591796875,2.893341064453125,0.4523162841796875
0.7051544189453125,2.54449462890625,-0.845367431640625
0.0021820068359375,1.787841796875,-3.865936279296875
1.729095458984375,-1.1094207763671875,-7.503387451171875
2.9215240478515625,-2.801361083984375,-4.271896362304688
0.59063720703125,-1.4407806396484375,-0.4676971435546875
-0.2906494140625,-1.3211517333984375,0.140350341796875
-0.1034698486328125,-1.3378753662109375,0.114288330078125
0.08837890625,-1.195037841796875,0.6324005126953125
0.39776611328125,-0.995269775390625,0.511749267578125
0.6630859375,-1.2695465087890625,0.021942138671875
3.212982177734375,-2.8023681640625,-1.655853271484375
4.388580322265625,-2.735931396484375,-5.706710815429688
0.351043701171875,0.49334716796875,-3.7965087890625
0.700927734375,1.60809326171875,-1.240081787109375
0.4893035888671875,2.1767120361328125,-0.078277587890625
-0.332061767578125,2.775482177734375,-0.0128631591796875
-1.044097900390625,3.096099853515625,1.023834228515625
0.321075439453125,2.7568511962890625,-0.306243896484375
0.5522918701171875,2.3005523681640625,-1.5766448974609375
0.0994415283203125,0.6069183349609375,-3.581878662109375
2.382843017578125,-2.86187744140625,-7.4697113037109375
3.00128173828125,-2.7578277587890625,-4.284454345703125
0.33026123046875,-1.1422882080078125,-0.6179351806640625
-0.5110626220703125,-0.8558502197265625,0.18096923828125
-0.304229736328125,-0.6073760986328125,0.6603546142578125
0.5025482177734375,-0.73712158203125,0.65850830078125
0.5157318115234375,-0.6162109375,0.8530426025390625
0.4034881591796875,-0.7880859375,0.6965179443359375
2.1639556884765625,-2.797103881835937,-2.0711669921875
4.1814727783203125,-3.666717529296875,-3.099822998046875
3.0384521484375,-0.93505859375,-4.18109130859375
0.8738250732421875,0.7686309814453125,-2.2533721923828125
0.475738525390625,1.6907196044921875,-0.2926025390625
1.0744781494140625,2.401351928710937,0.2496490478515625
-0.71185302734375,2.9858551025390625,0.34552001953125
-0.7559356689453125,2.8226470947265625,0.3244476318359375
0.31695556640625,2.2477569580078125,-0.520751953125
0.530303955078125,1.684478759765625,-2.208465576171875
1.1512908935546875,-1.0763397216796875,-4.933013916015625
2.0952301025390625,-1.97998046875,-4.3446807861328125
0.603668212890625,-1.6600341796875,-3.1247100830078125
-0.0445404052734375,-1.16326904296875,-1.021453857421875
-0.094451904296875,-0.970977783203125,-0.3207244873046875
0.290618896484375,-0.91864013671875,0.088592529296875
0.1582183837890625,-0.7671966552734375,0.265106201171875
0.2811737060546875,-0.8014984130859375,0.0978546142578125
0.6191558837890625,-0.9225311279296876,-0.8887481689453125
0.504364013671875,-0.4984588623046875,-2.1190948486328125
0.770904541015625,-0.141510009765625,-2.762115478515625
0.2884979248046875,-0.113677978515625,-3.00225830078125
-0.0767669677734375,0.296966552734375,-1.486572265625
-0.1749420166015625,0.45623779296875,-0.3539581298828125
0.4252166748046875,0.0332183837890625,-0.5767364501953125
-0.3039398193359375,0.559112548828125,-0.160247802734375
-0.01470947265625,0.060699462890625,-0.0645904541015625
0.0027313232421875,0.018829345703125,-0.0624237060546875
0.0032958984375,0.021270751953125,-0.0724945068359375
0.001983642578125,0.0219573974609375,-0.0852203369140625
0.00384521484375,0.0234222412109375,-0.0963897705078125
0.0031280517578125,0.0295562744140625,-0.10284423828125
0.0028228759765625,0.0323333740234375,-0.1083831787109375
0.004608154296875,0.0340423583984375,-0.1049652099609375
0.005767822265625,0.0329437255859375,-0.10382080078125
0.00823974609375,0.036712646484375,-0.10357666015625
0.0089874267578125,0.02972412109375,-0.097442626953125
0.0076141357421875,0.0293121337890625,-0.101287841796875
-7.85516357421875,7.940093994140625,-8.080047607421875
0.1221160888671875,1.3240966796875,-0.0546417236328125
0.05255126953125,1.2297210693359375,-0.120697021484375
0.0177764892578125,1.1566619873046875,-0.1043548583984375
0.0013885498046875,1.1071319580078125,-0.09478759765625
-0.0160675048828125,1.0700225830078125,-0.093170166015625
-0.013153076171875,0.9287872314453124,-0.0976715087890625
-0.100860595703125,0.464935302734375,-0.17828369140625
-0.520660400390625,1.7678985595703125,-7.293731689453125
-0.4647369384765625,1.2850799560546875,0.1284942626953125
0.0757598876953125,0.109710693359375,-0.6749267578125
-0.019805908203125,0.2189483642578125,-1.217132568359375
-0.101776123046875,0.257049560546875,-0.7552032470703125
-0.08721923828125,0.221893310546875,-0.9477386474609376
-0.0579833984375,0.2148284912109375,-1.000335693359375
-0.0546875,0.21221923828125,-0.99737548828125
-0.053680419921875,0.2066802978515625,-0.9945831298828124
-0.0537872314453125,0.204681396484375,-0.99346923828125
-0.053558349609375,0.2051239013671875,-0.9932098388671876
-0.053375244140625,0.203521728515625,-0.9952392578125
-0.0489044189453125,0.2020263671875,-0.99273681640625
-0.0537567138671875,0.2040863037109375,-0.9942779541015624
-0.053741455078125,0.2039794921875,-0.995147705078125
-0.0517120361328125,0.2044525146484375,-0.9919891357421876
-0.0527801513671875,0.2017669677734375,-0.996246337890625
-0.0531005859375,0.202056884765625,-0.994140625
-0.0524749755859375,0.2049713134765625,-0.992950439453125
-0.0540313720703125,0.2047119140625,-0.99578857421875
-0.0530242919921875,0.2031707763671875,-0.996337890625
-0.05706787109375,0.202545166015625,-0.996368408203125
-0.0556793212890625,0.20245361328125,-0.9950103759765624
-0.0513458251953125,0.200775146484375,-0.9959716796875
-0.0533294677734375,0.2042999267578125,-0.9943084716796876
-0.052520751953125,0.199737548828125,-0.9954681396484376
-0.054443359375,0.201690673828125,-0.9963226318359376
-0.0537872314453125,0.2027130126953125,-0.995819091796875
-0.0535125732421875,0.20135498046875,-0.9966888427734376
-0.0543975830078125,0.2035369873046875,-0.99481201171875
-0.0541839599609375,0.20245361328125,-0.9971771240234376
-0.0526275634765625,0.2011260986328125,-0.995635986328125
-0.053924560546875,0.1990814208984375,-0.9969329833984376
-0.0540008544921875,0.200408935546875,-0.9934234619140624
-0.0548248291015625,0.2031402587890625,-0.9946441650390624
-0.0538787841796875,0.20184326171875,-0.9934844970703124
-0.0520477294921875,0.200714111328125,-0.993865966796875
-0.054962158203125,0.1993255615234375,-0.99627685546875
-0.0527496337890625,0.19879150390625,-0.9938812255859376
-0.0539398193359375,0.20025634765625,-0.9950408935546876
-0.0538787841796875,0.201751708984375,-0.99517822265625
-0.0527801513671875,0.2037200927734375,-0.994293212890625
-0.0530853271484375,0.2025146484375,-0.994964599609375
-0.0535888671875,0.201690673828125,-0.9952392578125
-0.0531158447265625,0.200958251953125,-0.994140625
-0.0514678955078125,0.20263671875,-0.9945831298828124
-0.05279541015625,0.1986541748046875,-0.9964599609375
-0.0526275634765625,0.2007904052734375,-0.994598388671875
-0.0537261962890625,0.2012176513671875,-0.9954986572265624
-0.0552215576171875,0.1998443603515625,-0.9951171875
-0.054046630859375,0.2018280029296875,-0.9945068359375
-0.053314208984375,0.2012481689453125,-0.9951324462890624
-0.053985595703125,0.2014312744140625,-0.9951019287109376
-0.053436279296875,0.20318603515625,-0.99346923828125
-0.053985595703125,0.2014312744140625,-0.994842529296875
-0.053680419921875,0.2017822265625,-0.99432373046875
-0.052734375,0.1978607177734375,-0.995330810546875
-0.05194091796875,0.19970703125,-0.9946441650390624
-0.0519866943359375,0.200103759765625,-0.9959869384765624
-0.054107666015625,0.2010040283203125,-0.9951324462890624
-0.051483154296875,0.2015228271484375,-0.9941864013671876
-0.054107666015625,0.201629638671875,-0.993988037109375
-0.05242919921875,0.1982269287109375,-0.995025634765625
-0.0537567138671875,0.19970703125,-0.994873046875
-0.0533905029296875,0.1995391845703125,-0.9948577880859376
-0.053497314453125,0.200286865234375,-0.993927001953125
-0.05322265625,0.200531005859375,-0.9951019287109376
-0.0525665283203125,0.2002105712890625,-0.9943695068359376
-0.0531463623046875,0.20159912109375,-0.9963836669921876
-0.051971435546875,0.1989898681640625,-0.99395751953125
-0.0517730712890625,0.1993255615234375,-0.9931640625
-0.054595947265625,0.1992645263671875,-0.993896484375
-0.05401611328125,0.2003021240234375,-0.9945068359375
-0.0561981201171875,0.19903564453125,-0.993255615234375
-0.0523529052734375,0.198699951171875,-0.9933624267578124
-0.0518035888671875,0.2005767822265625,-0.9959259033203124
-0.0538787841796875,0.197906494140625,-0.9934234619140624
-0.05108642578125,0.20098876953125,-0.995513916015625
-0.0528717041015625,0.1986846923828125,-0.996673583984375
-0.05206298828125,0.1992950439453125,-0.9954833984375
-0.05377197265625,0.199249267578125,-0.9923858642578124
-0.05517578125,0.20013427734375,-0.99578857421875
-0.0539398193359375,0.199981689453125,-0.9952545166015624
-0.0526275634765625,0.1985015869140625,-0.9943389892578124
-0.054046630859375,0.1998443603515625,-0.9943695068359376
-0.0553131103515625,0.2003173828125,-0.9939117431640624
-0.054931640625,0.1992340087890625,-0.99456787109375
-0.055206298828125,0.2010955810546875,-0.9956817626953124
-0.0540008544921875,0.20037841796875,-0.9948577880859376
-0.0540924072265625,0.2004547119140625,-0.9967041015625
-0.0525665283203125,0.1981658935546875,-0.9949798583984376
-0.0545196533203125,0.19775390625,-0.99700927734375
-0.054473876953125,0.198638916015625,-0.9954833984375
-0.0518646240234375,0.198822021484375,-0.995208740234375
-0.0546112060546875,0.1981201171875,-0.995269775390625
-0.0537567138671875,0.200164794921875,-0.995025634765625
-0.0542449951171875,0.2003173828125,-0.995361328125
-0.0570831298828125,0.20147705078125,-0.9936676025390624
-0.05438232421875,0.1962432861328125,-0.9940643310546876
-0.0546722412109375,0.200286865234375,-0.9935302734375
-0.0524444580078125,0.1999053955078125,-0.9950103759765624
-0.051513671875,0.200714111328125,-0.996002197265625
-0.052520751953125,0.1999664306640625,-0.9954833984375
-0.05328369140625,0.200347900390625,-0.995574951171875
-0.053558349609375,0.199798583984375,-0.995452880859375
-0.053558349609375,0.201019287109375,-0.9937591552734376
-0.055023193359375,0.199615478515625,-0.99371337890625
-0.0527496337890625,0.19891357421875,-0.994598388671875
-0.05511474609375,0.199371337890625,-0.994964599609375
-0.0545196533203125,0.1999053955078125,-0.994384765625
-0.0546875,0.1982879638671875,-0.9953765869140624
-0.054351806640625,0.200653076171875,-0.9952239990234376
-0.055572509765625,0.1995086669921875,-0.9936065673828124
-0.0550537109375,0.1983795166015625,-0.993927001953125
-0.0537261962890625,0.1998291015625,-0.9957733154296876
-0.05316162109375,0.1972808837890625,-0.994537353515625
-0.0540771484375,0.1980133056640625,-0.995025634765625
-0.055084228515625,0.1980438232421875,-0.994171142578125
-0.0526123046875,0.19830322265625,-0.995269775390625
-0.05352783203125,0.198394775390625,-0.9947967529296876
-0.055206298828125,0.1979522705078125,-0.99481201171875
-0.054595947265625,0.1975555419921875,-0.9942169189453124
-0.0542144775390625,0.201019287109375,-0.995635986328125
-0.052520751953125,0.1990203857421875,-0.992462158203125
-0.0528411865234375,0.1991119384765625,-0.993804931640625
-0.0527801513671875,0.19659423828125,-0.9966888427734376
-0.053070068359375,0.1990203857421875,-0.994659423828125
-0.054229736328125,0.2000274658203125,-0.99700927734375
-0.0553741455078125,0.200469970703125,-0.9937896728515624
-0.0551910400390625,0.20037841796875,-0.9954071044921876
-0.0527801513671875,0.1971282958984375,-0.9940185546875
-0.0545806884765625,0.198577880859375,-0.995025634765625
-0.0543975830078125,0.1992950439453125,-0.9938812255859376
-0.0548095703125,0.195770263671875,-0.995574951171875
-0.05279541015625,0.197967529296875,-0.9962310791015624
-0.05487060546875,0.1977691650390625,-0.9967041015625
-0.0537567138671875,0.1970672607421875,-0.9934234619140624
-0.0544891357421875,0.1989288330078125,-0.9955291748046876
-0.0528106689453125,0.1965179443359375,-0.995361328125
-0.05377197265625,0.201080322265625,-0.9951171875
-0.0542449951171875,0.19879150390625,-0.9931182861328124
-0.0533599853515625,0.19622802734375,-0.99542236328125
-0.05511474609375,0.1963653564453125,-0.9925079345703124
-0.0542144775390625,0.196624755859375,-0.9949951171875
-0.052459716796875,0.198089599609375,-0.993865966796875
-0.053955078125,0.195159912109375,-0.994873046875
-0.055023193359375,0.199981689453125,-0.9954376220703124
-0.055328369140625,0.198333740234375,-0.99676513671875
-0.0548858642578125,0.198394775390625,-0.995147705078125
-0.0546417236328125,0.196441650390625,-0.9935302734375
-0.0529022216796875,0.198028564453125,-0.9968414306640624
-0.0554046630859375,0.1956634521484375,-0.996337890625
-0.056060791015625,0.1986846923828125,-0.993988037109375
-0.0553131103515625,0.199249267578125,-0.9945526123046876
-0.0508575439453125,0.198455810546875,-0.9937591552734376
-0.0533599853515625,0.199249267578125,-0.9956817626953124
-0.0548095703125,0.197540283203125,-0.9957733154296876
-0.05401611328125,0.1970672607421875,-0.994049072265625
-0.0556793212890625,0.1974029541015625,-0.9941253662109376
-0.0535736083984375,0.1993408203125,-0.9946746826171876
-0.053741455078125,0.1981964111328125,-0.994232177734375
-0.0543365478515625,0.1976318359375,-0.99505615234375
-0.055938720703125,0.1973114013671875,-0.995513916015625
-0.056396484375,0.1978759765625,-0.994171142578125
-0.0548248291015625,0.198333740234375,-0.995513916015625
-0.053131103515625,0.1980438232421875,-0.9946441650390624
-0.0536651611328125,0.1979217529296875,-0.995147705078125
-0.054656982421875,0.1981353759765625,-0.993743896484375
-0.0546722412109375,0.19732666015625,-0.9948577880859376
-0.0536651611328125,0.1969451904296875,-0.9905548095703124
-0.0550384521484375,0.1976470947265625,-0.99676513671875
-0.0543975830078125,0.1970977783203125,-0.9945220947265624
-0.0547943115234375,0.1973876953125,-0.99395751953125
-0.05413818359375,0.1988983154296875,-0.994659423828125
-0.0558929443359375,0.19525146484375,-0.9946136474609376
-0.056640625,0.195281982421875,-0.9954833984375
-0.053253173828125,0.1978302001953125,-0.9907379150390624
-0.0550689697265625,0.1965484619140625,-0.9937896728515624
-0.0561981201171875,0.197845458984375,-0.9937286376953124
-0.05450439453125,0.198974609375,-0.9952392578125
-0.0538177490234375,0.198089599609375,-0.99359130859375
-0.0548095703125,0.198333740234375,-0.9957122802734376
-0.0500030517578125,0.1743927001953125,-1.020538330078125
-0.105987548828125,0.203277587890625,-0.9999237060546876
-0.0362548828125,0.1622467041015625,-1.020477294921875
-0.1089630126953125,0.15313720703125,-0.9675445556640624
-0.1032562255859375,0.15423583984375,-0.953643798828125
