AccelerationX,AccelerationY,AccelerationZ
-0.5952606201171875,0.5454864501953125,-0.51898193359375
-0.6678924560546875,0.5359954833984375,-0.5263519287109375
-0.6118927001953125,0.5487213134765625,-0.5245361328125
-0.6463470458984375,0.5503387451171875,-0.472137451171875
-0.641693115234375,0.5446624755859375,-0.50750732421875
-0.676788330078125,0.5450897216796875,-0.485107421875
-0.6832275390625,0.5465545654296875,-0.4655609130859375
-0.6840972900390625,0.5561981201171875,-0.4977874755859375
-0.6719207763671875,0.5487213134765625,-0.463836669921875
-0.65948486328125,0.5408782958984375,-0.4318084716796875
-0.659423828125,0.5387725830078125,-0.4552001953125
-0.647491455078125,0.53887939453125,-0.46240234375
-0.67523193359375,0.5529937744140625,-0.3885650634765625
-0.630035400390625,0.5972442626953125,-0.3784332275390625
-0.6090087890625,0.6071929931640625,-0.3881378173828125
-0.6302490234375,0.6082305908203125,-0.3463592529296875
-0.703277587890625,0.6153717041015625,-0.2667236328125
-0.7987518310546875,0.5819549560546875,-0.321624755859375
-0.8331298828125,0.5274810791015625,-0.193145751953125
-0.8022613525390625,0.504486083984375,-0.1694183349609375
-0.866302490234375,0.5070343017578125,-0.2100372314453125
-0.91455078125,0.394256591796875,0.0388946533203125
-0.997344970703125,0.4131317138671875,-0.02911376953125
-1.08367919921875,0.4592132568359375,-0.1412353515625
-1.0760498046875,0.4558868408203125,0.0182952880859375
-1.0833740234375,0.4890289306640625,0.12139892578125
-1.2584991455078125,0.4354095458984375,0.0148773193359375
-1.201568603515625,0.45318603515625,-0.2273406982421875
-1.1336517333984375,0.4250946044921875,-0.2483978271484375
-1.0634613037109375,0.2624969482421875,-0.1938323974609375
-1.3200225830078125,0.5758819580078125,0.0746612548828125
-1.22955322265625,0.8389892578125,-0.0798492431640625
-1.0609588623046875,0.8008270263671875,-0.2263946533203125
-0.855224609375,0.797882080078125,-0.0933990478515625
-0.766815185546875,0.886566162109375,-0.1352691650390625
-0.6463775634765625,0.94830322265625,-0.0843353271484375
-0.3155670166015625,0.8983612060546875,0.1066131591796875
-0.1230926513671875,0.7765350341796875,0.287994384765625
-0.1306304931640625,0.7588653564453125,0.3838958740234375
-0.190216064453125,0.75469970703125,0.2404327392578125
-0.446868896484375,0.8880615234375,0.266845703125
-0.512664794921875,0.9002685546875,0.267578125
-0.731842041015625,1.0374603271484375,0.1572265625
-0.89874267578125,1.43048095703125,0.0461883544921875
-1.1097412109375,1.322357177734375,0.09222412109375
-0.9362640380859376,0.8464202880859375,0.100860595703125
-0.8415679931640625,0.6649322509765625,-0.0386505126953125
-0.87445068359375,0.567291259765625,-0.1004791259765625
-0.845947265625,0.5637969970703125,0.0064849853515625
-0.8434906005859375,0.6226348876953125,-0.0235748291015625
-1.0678253173828125,1.01556396484375,-0.0943603515625
-1.1380462646484375,1.10614013671875,-0.142547607421875
-1.202362060546875,1.01947021484375,-0.188873291015625
-1.1470184326171875,0.900238037109375,-0.072418212890625
-1.048095703125,1.1805877685546875,-0.011993408203125
-0.6660614013671875,1.044403076171875,-0.0203399658203125
-0.719635009765625,1.1059112548828125,-0.064178466796875
-0.741729736328125,1.3016815185546875,-0.19293212890625
-0.668182373046875,1.20477294921875,-0.2676544189453125
-0.6491546630859375,0.9720458984375,-0.3071746826171875
-0.58831787109375,0.8778533935546875,-0.3197784423828125
-0.518707275390625,0.9089508056640624,-0.1119384765625
-0.41094970703125,0.9564056396484376,-0.0673828125
-0.2842254638671875,1.0478668212890625,-0.09228515625
-0.155487060546875,1.062347412109375,-0.044219970703125
-0.187164306640625,0.95513916015625,0.0255584716796875
-0.152008056640625,0.7881927490234375,0.00628662109375
-0.112762451171875,0.8183746337890625,0.0635223388671875
0.06097412109375,0.8402557373046875,0.205322265625
-0.3501434326171875,1.0271759033203125,0.296356201171875
-0.427978515625,1.24090576171875,0.4957275390625
-0.5865936279296875,1.3139495849609375,0.2738189697265625
-0.774658203125,1.18115234375,0.0558013916015625
-0.893157958984375,1.1016387939453125,0.07696533203125
-0.9239501953125,1.04559326171875,0.22149658203125
-0.9327392578125,0.8947601318359375,0.187347412109375
-1.159912109375,0.9865570068359376,-0.022369384765625
-1.18017578125,1.1988067626953125,-0.3318939208984375
-1.079315185546875,1.0963897705078125,-0.471527099609375
-1.0284881591796875,0.8280181884765625,-0.0903472900390625
-0.853118896484375,0.90155029296875,-0.0647735595703125
-0.675384521484375,1.074432373046875,-0.3764495849609375
-0.86737060546875,1.17327880859375,-0.4658050537109375
-0.9733123779296876,1.314483642578125,-0.4873199462890625
-0.7485809326171875,1.330810546875,-0.4993133544921875
-0.727081298828125,1.29058837890625,-0.3026580810546875
-0.76715087890625,1.35504150390625,-0.0665130615234375
-0.68609619140625,1.3953399658203125,-0.06378173828125
-0.57940673828125,1.4419097900390625,-0.179840087890625
-0.4224395751953125,1.498077392578125,-0.1455841064453125
-0.1394195556640625,1.332244873046875,0.1070098876953125
0.1093292236328125,1.0529937744140625,0.2251739501953125
0.145843505859375,0.8153228759765625,0.0157318115234375
0.116302490234375,0.892333984375,-0.0373687744140625
-0.1136627197265625,0.804962158203125,-0.0512847900390625
-0.3548736572265625,1.0032501220703125,0.0149383544921875
-0.3804931640625,1.1632843017578125,-0.0405426025390625
-0.4563446044921875,1.120269775390625,-0.081146240234375
-0.58587646484375,1.072998046875,-0.0769805908203125
-0.69879150390625,1.1569976806640625,-0.033447265625
-0.817626953125,1.3836212158203125,0.0074920654296875
-0.9738616943359376,1.422698974609375,-0.01348876953125
-1.1309967041015625,1.2759857177734375,-0.03131103515625
-1.3541412353515625,1.247406005859375,-0.1255950927734375
-1.52032470703125,0.975738525390625,-0.205474853515625
-1.4055328369140625,0.8662567138671875,-0.471405029296875
-0.976104736328125,0.9468994140625,-0.3563995361328125
-0.81988525390625,1.0625,-0.253570556640625
-0.865234375,1.26190185546875,-0.3844146728515625
-0.8231658935546875,1.4005889892578125,-0.4200286865234375
-0.811981201171875,1.3502349853515625,-0.329193115234375
-0.8545379638671875,1.46044921875,-0.137603759765625
-0.7297515869140625,1.597869873046875,0.015106201171875
-0.56756591796875,1.60260009765625,0.0946502685546875
-0.3828277587890625,1.52069091796875,0.0012664794921875
-0.1999969482421875,1.2516937255859375,0.0622711181640625
-0.0246734619140625,0.94879150390625,0.199615478515625
0.290679931640625,0.688934326171875,0.2579498291015625
0.183380126953125,0.7635650634765625,0.0511322021484375
0.0884246826171875,0.77423095703125,-0.1009368896484375
-0.26556396484375,1.0732879638671875,-0.0203857421875
-0.3957977294921875,1.25494384765625,0.1236724853515625
-0.54144287109375,1.13128662109375,0.07720947265625
-0.7100982666015625,0.980194091796875,-0.0423736572265625
-0.7571563720703125,0.976043701171875,0.0247039794921875
-0.8515625,1.1422271728515625,0.01446533203125
-1.1475982666015625,1.135345458984375,0.0059356689453125
-1.1754150390625,1.1519927978515625,-0.0302276611328125
-1.2295074462890625,1.1983642578125,-0.1534423828125
-1.35162353515625,1.10272216796875,-0.15167236328125
-1.30364990234375,0.830047607421875,0.002166748046875
-1.351409912109375,1.1174468994140625,-0.0510406494140625
-1.0655059814453125,0.89422607421875,-0.19354248046875
-1.151458740234375,1.120574951171875,-0.32879638671875
-1.072784423828125,1.4254150390625,-0.2928009033203125
-0.659759521484375,1.261871337890625,-0.3770599365234375
-0.5737762451171875,1.0784759521484375,-0.452362060546875
-0.62139892578125,1.154205322265625,-0.3106689453125
-0.6084747314453125,1.33441162109375,-0.1137237548828125
-0.4861907958984375,1.444732666015625,-0.010650634765625
-0.3856048583984375,1.4254913330078125,-0.04034423828125
-0.2963104248046875,1.2968902587890625,-0.02728271484375
-0.0758209228515625,1.0857696533203125,0.0723419189453125
0.2342529296875,0.7772674560546875,0.1079254150390625
0.0608367919921875,0.745452880859375,0.3115997314453125
-0.01934814453125,0.659088134765625,0.5920257568359375
-0.3514251708984375,1.0581817626953125,0.41876220703125
-0.5880889892578125,1.3902587890625,0.2997283935546875
-0.7856292724609375,1.392578125,0.27484130859375
-0.905670166015625,1.1771087646484375,0.23321533203125
-0.8945159912109375,1.096832275390625,0.11871337890625
-0.934722900390625,1.1489715576171875,0.172332763671875
-1.00030517578125,1.166412353515625,0.2259063720703125
-1.0694427490234375,1.151092529296875,0.0323028564453125
-1.244140625,1.14068603515625,-0.169281005859375
-1.384735107421875,1.0238494873046875,-0.274505615234375
-1.0679473876953125,0.8536376953125,-0.1270599365234375
-0.9870147705078124,1.05108642578125,-0.12457275390625
-0.90045166015625,1.04046630859375,-0.1491241455078125
-1.0107879638671875,1.19384765625,-0.117523193359375
-1.049072265625,1.443878173828125,-0.1062164306640625
-0.901580810546875,1.4805450439453125,-0.09466552734375
-0.82525634765625,1.440582275390625,-0.108367919921875
-0.7151641845703125,1.4747772216796875,-0.0228271484375
-0.58599853515625,1.5096435546875,0.0311126708984375
-0.4066619873046875,1.44000244140625,-0.01800537109375
-0.200714111328125,1.2833404541015625,-0.0194854736328125
-0.11993408203125,1.0860443115234375,0.0122222900390625
-0.0533294677734375,0.8795166015625,0.149169921875
0.0648345947265625,0.679931640625,0.1846466064453125
-0.0523681640625,0.8279571533203125,0.1706085205078125
-0.1045379638671875,0.829315185546875,0.1505584716796875
-0.4229888916015625,1.07867431640625,0.1492156982421875
-0.629608154296875,1.3690948486328125,0.176025390625
-0.6736907958984375,1.335845947265625,0.0902252197265625
-0.7279510498046875,1.1295318603515625,0.101287841796875
-0.7936859130859375,1.0335845947265625,0.0849151611328125
-0.806793212890625,1.080535888671875,0.0720062255859375
-0.8525848388671875,1.170745849609375,0.051788330078125
-0.9671783447265624,1.17889404296875,-0.05731201171875
-1.1646270751953125,1.211181640625,-0.14239501953125
-1.33294677734375,0.9370574951171876,0.0193328857421875
-1.474151611328125,0.595550537109375,0.0753631591796875
-1.4020843505859375,0.7134246826171875,0.0831298828125
-1.017486572265625,0.717193603515625,0.0816497802734375
-1.0334930419921875,0.779266357421875,-0.06829833984375
-1.1220855712890625,0.922882080078125,-0.174072265625
-1.1653594970703125,1.0465850830078125,-0.191070556640625
-1.1416473388671875,1.108062744140625,-0.21612548828125
-1.1589202880859375,1.2239990234375,-0.2606964111328125
-1.1378021240234375,1.39923095703125,-0.2763214111328125
-0.9781494140625,1.4334716796875,-0.3206787109375
-0.712615966796875,1.2280120849609375,-0.2451934814453125
-0.58123779296875,0.9999847412109376,-0.2135009765625
-0.435150146484375,0.833282470703125,-0.22100830078125
-0.27154541015625,0.6973419189453125,-0.185394287109375
-0.2275848388671875,0.6292266845703125,-0.094512939453125
-0.1673126220703125,0.555633544921875,-0.0550079345703125
-0.30462646484375,0.4835357666015625,-0.0269775390625
-0.485198974609375,0.621795654296875,0.08013916015625
-0.6710357666015625,0.8685302734375,0.0989532470703125
-0.91522216796875,1.029754638671875,0.1544036865234375
-1.097503662109375,1.0218505859375,0.341278076171875
-1.1703948974609375,0.9356689453125,0.4462738037109375
-1.1965789794921875,0.9724884033203124,0.438446044921875
-1.1840362548828125,0.930084228515625,0.37493896484375
-1.1761627197265625,0.8791656494140625,0.3531646728515625
-1.111328125,0.7674102783203125,0.41796875
-0.9665374755859376,0.658905029296875,0.4065093994140625
-0.8492279052734375,0.7093963623046875,0.313018798828125
-0.8690948486328125,0.87066650390625,0.12481689453125
-0.8936920166015625,1.0291595458984375,0.0407867431640625
-0.8644256591796875,1.1162261962890625,-0.0496673583984375
-0.6720123291015625,0.9566192626953124,-0.3086090087890625
-0.6418914794921875,0.87127685546875,-0.9263458251953124
-0.5829620361328125,0.8535308837890625,-0.7598876953125
-0.6259307861328125,0.84906005859375,-0.917877197265625
-0.7747039794921875,0.8448486328125,-1.0993194580078125
-0.8586883544921875,0.9304962158203124,-0.9377899169921876
-0.7484588623046875,1.0551910400390625,-0.7717437744140625
-0.68768310546875,1.156005859375,-0.4978485107421875
-0.7578887939453125,1.3789215087890625,-0.281463623046875
-0.8550872802734375,1.3263702392578125,-0.5358123779296875
-0.6392669677734375,1.593292236328125,-0.6870880126953125
-0.4271240234375,1.39764404296875,-0.431182861328125
-0.3697357177734375,1.2628631591796875,-0.071044921875
-0.12286376953125,1.134918212890625,-0.056060791015625
0.16424560546875,0.9317779541015624,-0.1473846435546875
0.6703948974609375,1.2321319580078125,0.3945159912109375
0.3591766357421875,1.393035888671875,0.449920654296875
0.0661468505859375,1.339752197265625,-0.0653839111328125
0.0476226806640625,1.213134765625,0.0887298583984375
-0.148162841796875,1.208251953125,0.3463134765625
-0.4063262939453125,1.264404296875,0.4354705810546875
-0.650726318359375,1.310394287109375,0.3367462158203125
-0.82720947265625,1.3624114990234375,0.2646484375
-0.935333251953125,1.3902435302734375,0.261138916015625
-1.1699066162109375,1.35565185546875,0.280059814453125
-1.40570068359375,1.116241455078125,0.20782470703125
-1.5597076416015625,0.84625244140625,-0.1533966064453125
-1.3348541259765625,0.918304443359375,-0.3049468994140625
-0.9197845458984376,0.93304443359375,-0.014190673828125
-1.0523834228515625,1.2092132568359375,0.12603759765625
-1.0919036865234375,1.6133880615234375,-0.012115478515625
-0.9009857177734376,1.7699432373046875,-0.228851318359375
-0.8404541015625,1.7902069091796875,-0.20697021484375
-0.7132568359375,1.8742828369140625,-0.04266357421875
-0.384246826171875,1.8025054931640625,-0.0220184326171875
-0.294921875,1.5636749267578125,-0.0483551025390625
-0.12451171875,1.29376220703125,0.0811614990234375
0.119354248046875,1.12542724609375,0.1551513671875
0.391204833984375,0.9957275390625,0.1038970947265625
0.3019256591796875,0.7740478515625,-0.0561065673828125
0.0602874755859375,0.8915252685546875,0.0990753173828125
0.0220184326171875,0.9657135009765624,0.0655517578125
-0.3311309814453125,1.2281494140625,0.009521484375
-0.498565673828125,1.5382080078125,0.2406768798828125
-0.653167724609375,1.5652313232421875,0.2636871337890625
-0.779510498046875,1.3703155517578125,0.102508544921875
-0.7563934326171875,1.250701904296875,0.0108795166015625
-0.760345458984375,1.21551513671875,-0.048095703125
-0.8986663818359375,1.2174835205078125,-0.001220703125
-0.9211883544921876,1.23016357421875,0.0224456787109375
-0.97515869140625,1.27532958984375,-0.121826171875
-1.0393218994140625,1.1252593994140625,-0.097381591796875
-1.020782470703125,0.8547821044921875,0.0070648193359375
-0.964935302734375,0.8588714599609375,0.09246826171875
-0.8740081787109375,0.849761962890625,0.09771728515625
-1.051513671875,1.122161865234375,0.1358795166015625
-1.10211181640625,1.45294189453125,0.123992919921875
-0.9543304443359376,1.6351165771484375,0.0132904052734375
-0.7561798095703125,1.700897216796875,0.00445556640625
-0.559112548828125,1.6566619873046875,0.0919189453125
-0.3252410888671875,1.4725189208984375,0.219146728515625
-0.277740478515625,1.2679443359375,0.2583465576171875
-0.21966552734375,1.135589599609375,0.2505035400390625
-0.0587615966796875,0.9413604736328124,0.278076171875
0.191650390625,0.82025146484375,0.485687255859375
0.262298583984375,0.7573394775390625,0.2911224365234375
-0.0784912109375,0.9728851318359376,0.070037841796875
-0.2752532958984375,1.245330810546875,-0.1945953369140625
-0.498748779296875,1.425445556640625,-0.2733154296875
-0.6813812255859375,1.4139404296875,-0.1641387939453125
-0.708587646484375,1.21148681640625,-0.05169677734375
-0.690185546875,1.041107177734375,0.0670928955078125
-0.599822998046875,0.984039306640625,0.0794219970703125
-0.5736236572265625,0.997802734375,-0.0668487548828125
-0.63568115234375,0.9862213134765624,-0.16632080078125
-0.809051513671875,0.97637939453125,-0.1176605224609375
-1.079376220703125,1.3175201416015625,0.1084136962890625
-1.126800537109375,1.48968505859375,0.23291015625
-1.152587890625,1.2089691162109375,0.1456146240234375
-1.2629852294921875,0.8321380615234375,-0.0126190185546875
-1.308746337890625,0.693145751953125,-0.012725830078125
-1.1180572509765625,0.8313446044921875,0.11346435546875
-1.1415252685546875,1.328704833984375,-0.0859375
-1.0772247314453125,1.805328369140625,-0.3613433837890625
-0.85467529296875,1.852783203125,-0.5218963623046875
-0.7147064208984375,1.7519989013671875,-0.2967987060546875
-0.490875244140625,1.739837646484375,-0.061309814453125
-0.3249969482421875,1.5402374267578125,0.0338287353515625
-0.1522064208984375,1.2404327392578125,0.0820465087890625
0.0401763916015625,1.03826904296875,0.0076141357421875
0.235076904296875,0.944244384765625,0.1260528564453125
0.370849609375,0.877685546875,0.240875244140625
0.2158966064453125,0.8372650146484375,0.0583648681640625
0.00970458984375,0.98724365234375,0.0555267333984375
-0.128936767578125,1.1114044189453125,0.07177734375
-0.4052276611328125,1.5321197509765625,0.05511474609375
-0.5380706787109375,1.817047119140625,0.01275634765625
-0.6840362548828125,1.70257568359375,0.0860748291015625
-0.86322021484375,1.4974517822265625,0.0276336669921875
-0.9083099365234376,1.429718017578125,-0.0400390625
-0.8633270263671875,1.4091033935546875,-0.0316162109375
-0.9265899658203124,1.2047882080078125,0.002471923828125
-1.096282958984375,1.21319580078125,-0.0772705078125
-1.1641082763671875,1.1787261962890625,0.0428009033203125
-1.3139801025390625,0.955078125,0.102508544921875
-1.3412322998046875,0.8531494140625,0.0122528076171875
-1.1429901123046875,1.1984405517578125,-0.2274322509765625
-0.9878082275390624,1.2628021240234375,-0.22967529296875
-1.0327911376953125,1.5371246337890625,-0.2772064208984375
-0.961517333984375,1.871490478515625,-0.2497711181640625
-0.7657623291015625,1.9643707275390625,-0.2690277099609375
-0.5690155029296875,1.8894195556640625,-0.2994842529296875
-0.3780364990234375,1.6640777587890625,-0.23785400390625
-0.2452850341796875,1.4014892578125,-0.1970977783203125
-0.28033447265625,1.2490081787109375,-0.191070556640625
-0.2380218505859375,1.2147064208984375,-0.115814208984375
-0.0712738037109375,1.1003875732421875,-0.020294189453125
0.013580322265625,0.89605712890625,0.0409088134765625
0.06488037109375,0.7357940673828125,0.0391387939453125
0.031829833984375,0.8241119384765625,0.014404296875
0.0196990966796875,0.87432861328125,-0.0881500244140625
-0.2317657470703125,1.200714111328125,-0.02337646484375
-0.420562744140625,1.6383056640625,0.0496673583984375
-0.655609130859375,1.771881103515625,0.033477783203125
-0.9326324462890624,1.571441650390625,-0.0244598388671875
-0.9403533935546876,1.464691162109375,-0.1267547607421875
-0.865447998046875,1.4165496826171875,-0.19549560546875
-0.9525604248046876,1.2487945556640625,-0.2206268310546875
-1.0651397705078125,1.1128692626953125,-0.2579498291015625
-1.0717926025390625,1.063079833984375,-0.12689208984375
-0.8795928955078125,1.0178680419921875,-0.005218505859375
-0.7134552001953125,0.87384033203125,-0.04644775390625
-0.7829437255859375,0.8540496826171875,-0.179351806640625
-0.8329315185546875,0.896331787109375,-0.1841278076171875
-0.99371337890625,1.0195465087890625,-0.091217041015625
-1.2025299072265625,1.36376953125,-0.100555419921875
-1.238067626953125,1.80413818359375,-0.1558074951171875
-1.1594696044921875,2.15625,-0.07342529296875
-0.9014739990234376,2.43670654296875,0.010772705078125
-0.455078125,2.1397247314453125,0.25103759765625
-0.2548065185546875,1.584716796875,0.24713134765625
-0.14776611328125,1.1994476318359375,0.2288055419921875
0.0391082763671875,0.88037109375,0.3644561767578125
0.3848419189453125,0.808807373046875,0.434234619140625
0.531036376953125,0.762176513671875,0.1456146240234375
0.298583984375,0.8528289794921875,-0.1954193115234375
-0.1295928955078125,1.07086181640625,-0.3188934326171875
-0.3478546142578125,1.199554443359375,-0.2085113525390625
-0.5460357666015625,1.5688629150390625,-0.28741455078125
-0.6782073974609375,1.945159912109375,-0.4739227294921875
-0.8864593505859375,1.8748321533203125,-0.4943389892578125
-0.9895477294921876,1.5195770263671875,-0.468536376953125
-1.0490570068359375,1.318939208984375,-0.24920654296875
-1.0447235107421875,1.27581787109375,-0.080780029296875
-0.9454193115234376,1.1984405517578125,-0.0788116455078125
-0.7892913818359375,1.1780853271484375,-0.1640625
-0.962188720703125,1.2572021484375,-0.2445831298828125
-1.15380859375,1.05792236328125,-0.228057861328125
-1.279052734375,0.804840087890625,-0.3071136474609375
-1.2600555419921875,0.719146728515625,-0.27099609375
-0.963165283203125,0.825531005859375,-0.1505584716796875
-0.98126220703125,1.16796875,-0.1898956298828125
-1.05078125,1.546112060546875,-0.2123870849609375
-1.0568389892578125,1.7986297607421875,-0.22747802734375
-0.972930908203125,1.867156982421875,-0.247344970703125
-0.901580810546875,2.0045623779296875,-0.202850341796875
-0.69036865234375,2.021148681640625,-0.114410400390625
-0.3977813720703125,1.7670440673828125,-0.1043548583984375
-0.27838134765625,1.430206298828125,-0.00091552734375
-0.224029541015625,1.15240478515625,0.0043182373046875
-0.0528717041015625,0.9295501708984376,0.0679168701171875
0.316253662109375,0.750396728515625,0.0869598388671875
0.3682861328125,0.7870330810546875,-0.100830078125
0.230926513671875,0.8835906982421875,-0.155731201171875
-0.164764404296875,1.1100311279296875,0.0650482177734375
-0.491729736328125,1.4162445068359375,0.288360595703125
-0.6910552978515625,1.591156005859375,0.3510589599609375
-0.7847747802734375,1.5456390380859375,0.251220703125
-0.844482421875,1.5836181640625,0.032745361328125
-0.91448974609375,1.61871337890625,-0.0382537841796875
-1.00738525390625,1.498992919921875,-0.0349578857421875
-1.0718536376953125,1.2572174072265625,-0.014404296875
-1.163055419921875,1.14501953125,-0.00128173828125
-1.1750030517578125,1.065185546875,0.13262939453125
-1.095245361328125,0.842864990234375,0.257904052734375
-1.118011474609375,0.8350067138671875,0.2468414306640625
-1.0062255859375,0.8754425048828125,0.1128082275390625
-0.9676055908203124,0.9907379150390624,0.0181427001953125
-0.996856689453125,1.2327117919921875,-0.0541839599609375
-1.03753662109375,1.5077667236328125,-0.10028076171875
-1.0236358642578125,1.6400604248046875,-0.122833251953125
-1.001800537109375,1.7267608642578125,-0.10955810546875
-0.947723388671875,1.865570068359375,-0.1451416015625
-0.72564697265625,1.8249359130859373,-0.2828521728515625
-0.4657745361328125,1.52716064453125,-0.3428497314453125
-0.4114837646484375,1.1837158203125,-0.1764068603515625
-0.354705810546875,0.9228668212890624,-0.13519287109375
-0.3108673095703125,0.7282867431640625,-0.1502838134765625
-0.2403106689453125,0.6446075439453125,-0.1109161376953125
-0.0985107421875,0.6356353759765625,-0.08331298828125
-0.001251220703125,0.62457275390625,-0.077850341796875
-0.2499847412109375,0.7373046875,-0.0767974853515625
-0.502166748046875,1.063873291015625,-0.0074005126953125
-0.683258056640625,1.425323486328125,0.1458892822265625
-0.93487548828125,1.4936981201171875,0.3850555419921875
-1.033477783203125,1.36859130859375,0.4868316650390625
-0.9679718017578124,1.2699432373046875,0.4238433837890625
-0.937042236328125,1.181396484375,0.3828277587890625
-0.892791748046875,1.1230010986328125,0.446533203125
-0.8709716796875,1.1030426025390625,0.4189910888671875
-0.815521240234375,1.016326904296875,0.3432159423828125
-0.82574462890625,1.0367584228515625,0.2567901611328125
-0.882476806640625,1.076324462890625,0.22900390625
-0.9061279296875,1.002166748046875,0.1023406982421875
-0.95654296875,0.9534149169921876,-0.1593017578125
-0.948089599609375,0.9314727783203124,-0.457061767578125
-0.9987945556640624,0.9514923095703124,-1.1013031005859375
-1.1262969970703125,0.9901123046875,-1.075408935546875
-1.1580963134765625,0.9954833984375,-0.8479156494140625
-1.287628173828125,1.2843017578125,-1.1652679443359375
-1.3262176513671875,1.5363922119140625,-1.0642242431640625
-1.3040008544921875,1.7937774658203125,-0.8249359130859375
-1.0469512939453125,2.03271484375,-0.8360443115234375
-0.6881866455078125,1.9598541259765625,-0.802032470703125
-0.3896331787109375,1.705291748046875,-0.5990142822265625
-0.267486572265625,1.40301513671875,-0.4334564208984375
-0.1272430419921875,1.1077880859375,-0.2579803466796875
0.13018798828125,0.881103515625,-0.011474609375
0.3662567138671875,0.8907623291015625,-0.0360565185546875
0.160675048828125,1.081207275390625,-0.114654541015625
-0.0496826171875,1.2762451171875,0.0331268310546875
-0.1601715087890625,1.366455078125,0.159576416015625
-0.2493438720703125,1.3835601806640625,0.360260009765625
-0.5385589599609375,1.45361328125,0.4359283447265625
-0.7291259765625,1.5351409912109375,0.489105224609375
-0.9064788818359376,1.4859771728515625,0.429962158203125
-0.9684906005859376,1.3396759033203125,0.2766571044921875
-0.9567413330078124,1.299835205078125,0.113739013671875
-1.022430419921875,1.2069854736328125,-0.00323486328125
-1.0762481689453125,1.21929931640625,-0.09271240234375
-1.127410888671875,1.1284027099609375,-0.14300537109375
-1.221832275390625,0.7880859375,-0.4275054931640625
-1.318145751953125,0.6504974365234375,-0.509307861328125
-1.1599884033203125,0.8031005859375,-0.121246337890625
-1.1004638671875,1.132293701171875,-0.0500946044921875
-1.1916961669921875,1.50457763671875,-0.1832275390625
-1.2476959228515625,1.7800140380859375,-0.306549072265625
-1.21063232421875,2.077117919921875,-0.3582000732421875
-1.0199127197265625,2.289794921875,-0.36163330078125
-0.60833740234375,2.121932983398437,-0.3436737060546875
-0.313629150390625,1.6484375,-0.2319793701171875
-0.2363128662109375,1.230438232421875,-0.1291046142578125
0.0594329833984375,0.957794189453125,0.0258026123046875
0.4057159423828125,0.8488006591796875,0.093780517578125
0.4422760009765625,0.79443359375,-0.02349853515625
0.14691162109375,0.8630523681640625,-0.1344146728515625
0.0892486572265625,0.9491729736328124,0.0738372802734375
-0.1108551025390625,1.2840576171875,-0.102508544921875
-0.4337158203125,1.849884033203125,-0.276031494140625
-0.8145904541015625,2.318878173828125,-0.2292938232421875
-1.2564697265625,2.215423583984375,-0.094512939453125
-1.5490264892578125,1.71051025390625,-0.0522003173828125
-1.4611663818359375,1.1375885009765625,-0.2007598876953125
-1.4646453857421875,0.8137359619140625,-0.4717254638671875
-1.3861846923828125,0.8516693115234375,-0.413726806640625
-1.243499755859375,1.11968994140625,-0.31390380859375
-1.016815185546875,1.081512451171875,-0.3876495361328125
-0.9528045654296876,0.91998291015625,-0.4751739501953125
-0.9468841552734376,0.855682373046875,-0.395965576171875
-0.8496246337890625,1.102020263671875,-0.19647216796875
-0.7348480224609375,1.3074493408203125,-0.213653564453125
-0.7393341064453125,1.6655120849609375,-0.4032745361328125
-0.758453369140625,1.71722412109375,-0.515106201171875
-0.881011962890625,1.3775634765625,-0.6553955078125
-0.8931884765625,1.146453857421875,-0.86761474609375
-0.6971435546875,1.2940673828125,-0.5737762451171875
-0.5493316650390625,1.3540496826171875,-0.2772064208984375
-0.362335205078125,1.2734832763671875,-0.172454833984375
-0.2793121337890625,1.18316650390625,-0.2325286865234375
-0.11810302734375,1.0912017822265625,-0.18804931640625
0.0645904541015625,0.9078369140625,0.1537017822265625
0.271148681640625,0.7613525390625,0.2210845947265625
0.248687744140625,0.7583465576171875,-0.01702880859375
0.1933746337890625,0.860504150390625,0.053680419921875
-0.277740478515625,1.1314239501953125,0.031646728515625
-0.59588623046875,1.4471282958984375,0.1975860595703125
-0.665283203125,1.7112579345703125,0.201904296875
-0.879302978515625,1.6010284423828125,0.0058135986328125
-0.9461212158203124,1.505706787109375,-0.132904052734375
-1.010101318359375,1.4640960693359375,-0.010772705078125
-1.125579833984375,1.28192138671875,0.0478057861328125
-1.2217864990234375,1.061279296875,-0.0195159912109375
-1.0635833740234375,1.0454559326171875,-0.0662841796875
-0.786651611328125,1.1317596435546875,-0.1513519287109375
-0.6226348876953125,1.0657958984375,-0.2439727783203125
-0.7588348388671875,0.8359832763671875,-0.28955078125
-0.8467864990234375,0.7357330322265625,-0.409210205078125
-0.939483642578125,0.977294921875,-0.1971588134765625
-1.0524139404296875,1.136993408203125,0.0465240478515625
-1.219268798828125,1.3504180908203125,-0.2158355712890625
-1.1033935546875,1.6757965087890625,-0.560546875
-0.9238739013671876,2.014144897460937,-0.555267333984375
-0.7042388916015625,2.0696563720703125,-0.3451385498046875
-0.447357177734375,1.8722991943359373,-0.225830078125
-0.257598876953125,1.57244873046875,-0.350677490234375
-0.0979156494140625,1.3208770751953125,-0.273834228515625
0.139129638671875,1.05224609375,0.120330810546875
0.5305938720703125,0.93768310546875,0.273834228515625
0.4830169677734375,0.8488311767578125,-0.189178466796875
0.109375,0.9536590576171876,-0.1844024658203125
0.079376220703125,1.130462646484375,0.0795745849609375
-0.2086029052734375,1.535247802734375,-0.1083984375
-0.570831298828125,1.7467498779296875,-0.1367034912109375
-0.7761383056640625,1.669677734375,-0.0888519287109375
-0.8866729736328125,1.54632568359375,-0.0751953125
-0.8974761962890625,1.43243408203125,-0.0763702392578125
-0.908935546875,1.29461669921875,-0.1277313232421875
-1.04736328125,1.1083526611328125,-0.220184326171875
-1.0999908447265625,1.0204620361328125,-0.204864501953125
-0.966217041015625,1.162933349609375,-0.1616668701171875
-0.7767791748046875,1.1867523193359375,-0.15570068359375
-0.82244873046875,0.9718017578125,-0.2142791748046875
-0.9880218505859376,0.8599090576171875,-0.2514190673828125
-1.0222320556640625,0.73388671875,-0.1787567138671875
-1.2365875244140625,0.980712890625,-0.1251068115234375
-1.2714385986328125,1.363372802734375,-0.0650177001953125
-1.2296905517578125,1.746856689453125,-0.2902984619140625
-1.1918182373046875,2.084747314453125,-0.26580810546875
-0.9036102294921876,2.3059844970703125,-0.17034912109375
-0.4900360107421875,2.027938842773437,-0.131195068359375
-0.3311767578125,1.5978240966796875,-0.19207763671875
-0.1886138916015625,1.258270263671875,-0.2043304443359375
-0.0534515380859375,0.9926605224609376,-0.0559234619140625
0.0900421142578125,0.844696044921875,0.0233154296875
0.193634033203125,0.6594085693359375,0.00225830078125
0.0676116943359375,0.7103424072265625,-0.0657501220703125
0.1473541259765625,0.799835205078125,-0.0090484619140625
-0.028900146484375,1.0927581787109375,-0.0895843505859375
-0.2740936279296875,1.4716644287109375,-0.141845703125
-0.5998077392578125,1.6673736572265625,-0.2174072265625
-0.85028076171875,1.6248779296875,-0.2258453369140625
-0.9758758544921876,1.6362762451171875,-0.1508941650390625
-1.0847015380859375,1.738006591796875,-0.1759796142578125
-1.1544036865234375,1.6679534912109375,-0.2293701171875
-1.34576416015625,1.379913330078125,-0.266082763671875
-1.57086181640625,1.0787811279296875,-0.3782196044921875
-1.605560302734375,0.817901611328125,-0.3784942626953125
-1.212677001953125,0.6347808837890625,-0.326202392578125
-1.112945556640625,0.9155120849609376,-0.4135284423828125
-1.0178680419921875,1.238189697265625,-0.5712432861328125
-0.9972381591796876,1.58709716796875,-0.7371063232421875
-1.1439208984375,1.8831329345703125,-0.687744140625
-0.923858642578125,1.818206787109375,-0.6671905517578125
-0.684967041015625,1.6175384521484375,-0.65203857421875
-0.66510009765625,1.6357421875,-0.50762939453125
-0.612030029296875,1.6309356689453125,-0.2153778076171875
-0.495819091796875,1.5880584716796875,-0.2017364501953125
-0.3505401611328125,1.575408935546875,-0.430694580078125
-0.196136474609375,1.33001708984375,-0.5758209228515625
-0.1788482666015625,1.15020751953125,-0.474395751953125
0.0917816162109375,0.865264892578125,-0.160064697265625
0.3828582763671875,0.6858367919921875,-0.048858642578125
0.5086822509765625,0.6715850830078125,-0.013946533203125
0.1568450927734375,0.8020477294921875,-0.013092041015625
-0.16546630859375,1.251800537109375,0.1441192626953125
-0.423126220703125,1.5809326171875,0.19439697265625
-0.677215576171875,1.85699462890625,-0.077728271484375
-0.8808746337890625,1.94390869140625,-0.1228485107421875
-1.0179901123046875,1.931488037109375,-0.0803680419921875
-1.1047821044921875,1.8065948486328125,-0.09869384765625
-1.1557464599609375,1.4825592041015625,-0.0174407958984375
-1.271392822265625,1.3258209228515625,-0.03692626953125
-1.1421661376953125,1.331939697265625,-0.054718017578125
-0.8703155517578125,1.288848876953125,-0.153472900390625
-0.732025146484375,1.037109375,-0.314239501953125
-0.90008544921875,0.920867919921875,-0.3858184814453125
-1.162872314453125,0.8077850341796875,-0.287994384765625
-1.3168182373046875,0.9295196533203124,-0.087371826171875
-1.2173919677734375,1.358123779296875,-0.09136962890625
-1.1369781494140625,1.847625732421875,-0.382659912109375
-1.122406005859375,2.207260131835937,-0.50909423828125
-0.9734344482421876,2.3778533935546875,-0.4144744873046875
-0.7069549560546875,2.368026733398437,-0.4283447265625
-0.4596710205078125,2.0910797119140625,-0.456817626953125
-0.27685546875,1.8003082275390625,-0.3665924072265625
-0.0969696044921875,1.428863525390625,-0.2660064697265625
0.144775390625,1.0102081298828125,-0.1159820556640625
0.402557373046875,0.65069580078125,-0.060760498046875
0.2862396240234375,0.5522308349609375,-0.1610870361328125
0.2898101806640625,0.6363525390625,0.064544677734375
0.1974639892578125,0.8068695068359375,0.0085601806640625
-0.1104278564453125,1.14251708984375,-0.0177764892578125
-0.5986328125,1.5422821044921875,0.2322540283203125
-0.8633270263671875,1.8521575927734373,0.1746063232421875
-0.9310302734375,1.9819488525390625,-0.1630706787109375
-1.1065521240234375,1.880126953125,-0.3080291748046875
-1.2787628173828125,1.5626373291015625,0.20989990234375
-1.3683319091796875,1.1500396728515625,0.2613677978515625
-1.25018310546875,0.93572998046875,-0.1942901611328125
-1.154144287109375,0.899749755859375,0.1243438720703125
-1.1507568359375,0.8905487060546875,0.318328857421875
-1.2050018310546875,0.699127197265625,0.264129638671875
-1.3152008056640625,0.44854736328125,0.223388671875
-1.1558380126953125,0.4504547119140625,0.3857879638671875
-1.0902557373046875,0.6837921142578125,0.1614227294921875
-1.427642822265625,0.99578857421875,0.0224761962890625
-1.6125640869140625,1.1842193603515625,-0.1163330078125
-1.5111846923828125,1.3364105224609375,-0.2468719482421875
-1.2821044921875,1.419769287109375,-0.333160400390625
-1.0157928466796875,1.3523712158203125,-0.45220947265625
-0.75140380859375,1.3263702392578125,-0.8692474365234375
-0.622406005859375,1.20068359375,-0.7491455078125
-0.840087890625,1.068267822265625,-0.8810577392578125
-0.9613494873046876,1.0802001953125,-1.3651580810546875
-0.9990692138671876,1.140167236328125,-1.4400787353515625
-1.0808868408203125,1.1480560302734375,-1.0985260009765625
-0.9889984130859376,1.1885528564453125,-0.7834625244140625
-0.8026580810546875,1.277130126953125,-0.638671875
-0.67864990234375,1.301177978515625,-0.648468017578125
-0.6534271240234375,1.3176422119140625,-0.696807861328125
-0.6311187744140625,1.3379058837890625,-0.666778564453125
-0.6397552490234375,1.3441162109375,-0.5634918212890625
-0.7109222412109375,1.3392333984375,-0.4350433349609375
-0.7629852294921875,1.3326873779296875,-0.240386962890625
-0.8245697021484375,1.307159423828125,-0.0410308837890625
-0.7361602783203125,1.182373046875,0.22174072265625
-0.6972808837890625,1.072113037109375,0.1978912353515625
-0.5981597900390625,1.2139434814453125,0.2922821044921875
-0.108367919921875,1.311859130859375,1.0362701416015625
-0.2999420166015625,1.3060150146484375,0.9756317138671876
-0.52044677734375,1.5616912841796875,0.58990478515625
-0.5572357177734375,1.8666534423828125,0.43707275390625
-0.83251953125,1.943328857421875,0.46270751953125
-1.073333740234375,1.7622528076171875,0.488433837890625
-1.0308074951171875,1.5896759033203125,0.2931060791015625
-0.8450927734375,1.4103240966796875,0.0589752197265625
-0.8444061279296875,1.243804931640625,-0.1618499755859375
-0.84197998046875,1.1000823974609375,-0.28076171875
-0.8020172119140625,0.967987060546875,-0.2202301025390625
-0.7813720703125,0.9367218017578124,-0.2291717529296875
-0.8688812255859375,0.829498291015625,-0.295989990234375
-0.9616546630859376,0.7345123291015625,-0.4221954345703125
-1.0462799072265625,0.716461181640625,-0.4130859375
-1.0676727294921875,0.9766082763671876,-0.3251495361328125
-0.95086669921875,1.2173309326171875,-0.3052520751953125
-0.9950408935546876,1.3965911865234375,-0.2179107666015625
-1.10821533203125,1.7529754638671875,-0.1771087646484375
-1.0433502197265625,1.986572265625,-0.1815185546875
-0.949798583984375,2.1053466796875,-0.3997802734375
-0.713653564453125,2.0863494873046875,-0.4540252685546875
-0.4833526611328125,1.8504180908203125,-0.3549041748046875
-0.3728485107421875,1.5508575439453125,-0.185882568359375
-0.2994384765625,1.2457427978515625,-0.1440887451171875
-0.2348480224609375,1.07562255859375,-0.0384063720703125
-0.015625,0.96209716796875,0.0368499755859375
0.119598388671875,0.7643890380859375,0.00732421875
0.01812744140625,0.6794281005859375,-0.074249267578125
0.009521484375,0.8125457763671875,0.021453857421875
-0.0595550537109375,1.041595458984375,0.008453369140625
-0.2114410400390625,1.3211517333984375,-0.0185699462890625
-0.4791412353515625,1.51470947265625,-0.1185150146484375
-0.636810302734375,1.56060791015625,-0.173370361328125
-0.82421875,1.5587005615234375,-0.0990753173828125
-0.93621826171875,1.6741790771484375,-0.105865478515625
-1.0711669921875,1.719085693359375,-0.1689300537109375
-1.200897216796875,1.481719970703125,-0.2169189453125
-1.3304290771484375,1.27911376953125,-0.3026275634765625
-1.3109283447265625,1.1422271728515625,-0.12548828125
-0.9766693115234376,0.9927520751953124,-0.0081634521484375
-0.7813720703125,0.848388671875,-0.06976318359375
-0.724609375,0.794921875,-0.183441162109375
-0.8293609619140625,0.7635345458984375,-0.2016143798828125
-1.070343017578125,0.92364501953125,-0.197540283203125
-1.2470703125,1.20806884765625,-0.090057373046875
-1.3504486083984375,1.5579071044921875,-0.0240936279296875
-1.352508544921875,2.1322021484375,-0.0393218994140625
-0.9504852294921876,2.45355224609375,-0.0686492919921875
-0.5239715576171875,2.1038970947265625,-0.24322509765625
-0.289581298828125,1.5875244140625,-0.265594482421875
-0.12451171875,1.136138916015625,0.0053863525390625
0.045257568359375,0.8702545166015625,0.26531982421875
0.30133056640625,0.7536163330078125,0.1782989501953125
0.3708343505859375,0.6356353759765625,0.0642242431640625
0.175933837890625,0.755584716796875,0.0933837890625
0.054168701171875,0.933807373046875,-0.0685882568359375
-0.3139801025390625,1.172760009765625,-0.2496185302734375
-0.6885223388671875,1.4214324951171875,-0.125274658203125
-0.8012542724609375,1.5317840576171875,0.12957763671875
-0.7585906982421875,1.6103057861328125,0.0066680908203125
-0.914276123046875,1.6259918212890625,-0.32891845703125
-1.0264129638671875,1.558319091796875,-0.6256561279296875
-1.13067626953125,1.4115142822265625,-0.6280975341796875
-1.2514495849609375,1.26507568359375,-0.3923187255859375
-1.27947998046875,1.2434539794921875,-0.2597198486328125
-1.2707977294921875,1.089935302734375,-0.21783447265625
-1.2379150390625,0.827362060546875,-0.12957763671875
-1.3255462646484375,0.8093414306640625,0.003631591796875
-1.2274169921875,0.834442138671875,-0.0274200439453125
-1.1562347412109375,1.1349029541015625,-0.1674041748046875
-1.0461883544921875,1.502593994140625,-0.306243896484375
-0.8641204833984375,1.6811065673828125,-0.5113525390625
-0.6802978515625,1.5604095458984375,-0.6497344970703125
-0.6393280029296875,1.488037109375,-0.57781982421875
-0.584381103515625,1.4393310546875,-0.337799072265625
-0.469573974609375,1.4235687255859375,-0.1762847900390625
-0.3462677001953125,1.3491058349609375,-0.1716461181640625
-0.199920654296875,1.2784271240234375,-0.290679931640625
-0.0464019775390625,1.1607513427734375,-0.2338104248046875
0.336944580078125,0.9385528564453124,0.1302337646484375
0.7444915771484375,0.9976654052734376,0.2499847412109375
0.7203521728515625,1.1026153564453125,0.2551727294921875
-0.0435028076171875,1.4171600341796875,-0.0622406005859375
-0.5013275146484375,2.05828857421875,-0.2249603271484375
-0.929229736328125,2.3557281494140625,-0.0899505615234375
-1.1583251953125,1.993621826171875,0.2018890380859375
-1.1675872802734375,1.5858306884765625,0.1973419189453125
-1.044097900390625,1.31231689453125,0.028656005859375
-1.0267333984375,1.0860748291015625,-0.1558380126953125
-1.127838134765625,1.0062713623046875,-0.1948699951171875
-0.9769287109375,1.169525146484375,-0.1036376953125
-0.8564910888671875,1.1701202392578125,-0.0874176025390625
-1.20098876953125,0.836029052734375,-0.3385467529296875
-1.56500244140625,0.783966064453125,-0.3352203369140625
-1.3726348876953125,1.1051177978515625,-0.2859649658203125
-1.257080078125,1.5149078369140625,-0.2281951904296875
-1.2847900390625,1.9911651611328125,-0.3744354248046875
-1.20855712890625,2.375961303710937,-0.4624481201171875
-1.0160369873046875,2.4672393798828125,-0.5129547119140625
-0.7436676025390625,2.4052734375,-0.4468231201171875
-0.3583984375,2.03204345703125,-0.342315673828125
-0.1987457275390625,1.5735626220703125,-0.3750152587890625
-0.0882568359375,1.221710205078125,-0.21826171875
0.1329193115234375,0.9930267333984376,-0.0060577392578125
0.4151153564453125,0.8665008544921875,0.0399169921875
0.5057830810546875,0.7118377685546875,-0.1089019775390625
0.2055206298828125,0.7554168701171875,-0.195220947265625
0.092315673828125,0.901885986328125,0.049224853515625
-0.1245269775390625,1.2398529052734375,0.1818695068359375
-0.3600006103515625,1.80242919921875,-0.001220703125
-0.685791015625,2.2071990966796875,-0.2177276611328125
-1.0076446533203125,2.147216796875,-0.266815185546875
-1.1719207763671875,1.9652252197265625,-0.1765594482421875
-1.206207275390625,1.671600341796875,-0.0739593505859375
-1.298736572265625,1.328033447265625,-0.21038818359375
-1.5165557861328125,1.142425537109375,-0.3123626708984375
-1.2751922607421875,1.185882568359375,-0.0258026123046875
-1.0211181640625,1.0387725830078125,-0.2879486083984375
-1.087127685546875,0.7706451416015625,-0.563720703125
-1.0695648193359375,0.8558197021484375,-0.607757568359375
-1.0355072021484375,1.008209228515625,-0.4326324462890625
-1.04901123046875,1.269744873046875,-0.3599853515625
-1.0471343994140625,1.6872711181640625,-0.433563232421875
-0.957672119140625,2.0481414794921875,-0.55810546875
-0.9324951171875,2.1728973388671875,-0.5146331787109375
-0.725616455078125,2.229476928710937,-0.2036895751953125
-0.4054718017578125,1.88623046875,0.28839111328125
-0.1028289794921875,1.3756561279296875,0.5573883056640625
0.19049072265625,1.1255340576171875,0.7443389892578125
0.296234130859375,1.11358642578125,0.468475341796875
0.09832763671875,1.0097503662109375,0.1909637451171875
-0.081207275390625,0.9516143798828124,0.1525421142578125
-0.1734771728515625,1.1268768310546875,0.0385589599609375
-0.14642333984375,1.162445068359375,-0.0413970947265625
-0.3150482177734375,1.326568603515625,-0.1160888671875
-0.42626953125,1.535491943359375,-0.3236541748046875
-0.518524169921875,1.5408172607421875,-0.46038818359375
-0.671661376953125,1.435577392578125,-0.5119171142578125
-0.8046875,1.34161376953125,-0.4957733154296875
-0.82135009765625,1.3177642822265625,-0.6332855224609375
-0.8438568115234375,1.270721435546875,-0.94732666015625
-0.87127685546875,1.318603515625,-0.88568115234375
-0.9634857177734376,1.2955322265625,-0.640869140625
-1.088531494140625,0.9913177490234376,-1.1051177978515625
-1.2894287109375,0.731231689453125,-1.30267333984375
-1.685302734375,0.6134796142578125,-0.8226776123046875
-1.575225830078125,0.7073974609375,-0.38140869140625
-1.4571685791015625,1.2737579345703125,-0.5468292236328125
-1.3216400146484375,1.8408050537109373,-0.592498779296875
-1.1944580078125,2.1237335205078125,-0.5015716552734375
-1.042633056640625,2.1948699951171875,-0.378265380859375
-0.7417755126953125,2.0903472900390625,-0.221588134765625
-0.4000396728515625,1.8005523681640625,-0.166229248046875
-0.2040252685546875,1.4618377685546875,-0.170257568359375
0.0438385009765625,1.125457763671875,-0.0302886962890625
0.6226348876953125,0.92987060546875,0.292022705078125
0.8171234130859375,0.832733154296875,0.119415283203125
0.4504547119140625,0.859161376953125,-0.143280029296875
0.07708740234375,1.029083251953125,0.0967559814453125
-0.1831817626953125,1.283538818359375,0.2102813720703125
-0.452911376953125,1.7852935791015625,0.1006011962890625
-0.758392333984375,2.172698974609375,-0.0819244384765625
-0.87139892578125,2.151840209960937,-0.31402587890625
-1.051300048828125,1.9373016357421875,-0.334197998046875
-1.136871337890625,1.67742919921875,-0.131805419921875
-1.13348388671875,1.362457275390625,-0.1977691650390625
-1.102142333984375,1.0945281982421875,-0.3545074462890625
-1.000213623046875,1.097412109375,-0.268646240234375
-0.9235687255859376,1.087921142578125,-0.0850677490234375
-1.0778350830078125,0.8631439208984375,-0.2385711669921875
-1.2828369140625,0.683258056640625,-0.351654052734375
-1.313323974609375,0.8350677490234375,-0.35247802734375
-1.11322021484375,0.985504150390625,-0.1610870361328125
-1.076812744140625,1.3410491943359375,-0.228271484375
-1.1116180419921875,1.866668701171875,-0.3234710693359375
-1.0679931640625,2.269989013671875,-0.4091644287109375
-0.9639129638671876,2.205429077148437,-0.4564208984375
-0.7782745361328125,2.1014404296875,-0.4177398681640625
-0.513824462890625,1.894439697265625,-0.371734619140625
-0.284515380859375,1.49371337890625,-0.2547149658203125
-0.269317626953125,1.13568115234375,-0.1462554931640625
-0.27459716796875,0.91497802734375,-0.06500244140625
-0.18365478515625,0.7643890380859375,-0.12310791015625
-0.043243408203125,0.695831298828125,-0.13934326171875
-0.0529937744140625,0.65020751953125,0.0053253173828125
0.0165863037109375,0.6436767578125,-0.1087493896484375
-0.038665771484375,0.666107177734375,-0.1336212158203125
-0.3076171875,0.8785400390625,0.0218353271484375
-0.537567138671875,1.2436065673828125,0.1575927734375
-0.781219482421875,1.64727783203125,0.1919403076171875
-1.02459716796875,1.7589874267578125,0.2841796875
-1.16876220703125,1.5511932373046875,0.438262939453125
-1.1801605224609375,1.3303985595703125,0.5087738037109375
-1.0828857421875,1.1876983642578125,0.532501220703125
-0.95208740234375,1.1000213623046875,0.6164093017578125
-0.8168182373046875,0.9880218505859376,0.58770751953125
-0.828521728515625,0.92156982421875,0.4198760986328125
-0.8082733154296875,0.88897705078125,0.2950439453125
-0.790618896484375,0.8370513916015625,0.220458984375
-0.9592742919921876,1.1040191650390625,0.060302734375
-1.0023651123046875,1.27838134765625,-0.124603271484375
-0.880615234375,1.1172637939453125,-0.3941802978515625
-0.7971954345703125,0.97235107421875,-0.6794586181640625
-0.846221923828125,1.012664794921875,-0.8297882080078125
-0.87103271484375,0.98602294921875,-0.8105926513671875
-0.9198150634765624,0.985321044921875,-0.8634033203125
-1.009307861328125,0.975982666015625,-0.8365631103515625
-1.065338134765625,1.072235107421875,-0.656219482421875
-0.9510040283203124,1.2171630859375,-0.56854248046875
-0.7910003662109375,1.3875732421875,-0.5413970947265625
-0.71044921875,1.4199981689453125,-0.430145263671875
-0.6773223876953125,1.491973876953125,-0.356201171875
-0.606353759765625,1.425811767578125,-0.388092041015625
-0.4375457763671875,1.35565185546875,-0.663299560546875
-0.306488037109375,1.1890716552734375,-0.3698883056640625
-0.1242218017578125,0.9428558349609376,0.07757568359375
0.069091796875,1.0037841796875,0.2463226318359375
-0.0249786376953125,1.003509521484375,0.1150970458984375
-0.1893463134765625,0.97064208984375,0.1205291748046875
-0.319793701171875,1.0323486328125,0.2097625732421875
-0.5025482177734375,1.10504150390625,0.297271728515625
-0.615997314453125,1.0914459228515625,0.483734130859375
-0.754669189453125,1.09796142578125,0.529296875
-0.841278076171875,1.1996917724609375,0.3278045654296875
-0.8487701416015625,1.321319580078125,0.054229736328125
-0.9014129638671876,1.2752227783203125,-0.005157470703125
-0.947540283203125,1.13104248046875,0.087158203125
-1.0467376708984375,0.94451904296875,0.038543701171875
-1.22308349609375,0.9464569091796876,-0.160308837890625
-1.1981964111328125,0.7489013671875,-0.2628326416015625
-1.1324615478515625,0.7382049560546875,-0.2735443115234375
-0.90924072265625,1.0042724609375,-0.3084564208984375
-0.779296875,1.1786956787109375,-0.41595458984375
-0.7586212158203125,1.1862945556640625,-0.4733123779296875
-0.7929534912109375,1.2378387451171875,-0.4449615478515625
-0.742401123046875,1.332672119140625,-0.382232666015625
-0.71832275390625,1.3996429443359375,-0.3463287353515625
-0.6776885986328125,1.3534393310546875,-0.3828125
-0.6547698974609375,1.3766021728515625,-0.424163818359375
-0.604888916015625,1.432891845703125,-0.439300537109375
-0.4626617431640625,1.3060302734375,-0.3838958740234375
-0.2959136962890625,1.0322418212890625,-0.3245849609375
-0.164703369140625,0.760009765625,-0.35650634765625
0.0030517578125,0.5756072998046875,-0.3344573974609375
0.1781768798828125,0.4893341064453125,-0.3855743408203125
-0.097381591796875,0.72979736328125,-0.149505615234375
-0.6763458251953125,1.2154998779296875,0.2213134765625
-1.355499267578125,1.3224945068359375,0.040740966796875
-1.9746551513671875,0.972198486328125,-0.7800140380859375
-2.525543212890625,0.2747802734375,0.215545654296875
-1.9454498291015625,0.7636871337890625,-0.60797119140625
-0.8724517822265625,0.6474761962890625,-0.87158203125
-0.8887176513671875,0.388397216796875,-1.3495635986328125
-1.269622802734375,0.7176055908203125,-1.518341064453125
-0.976226806640625,0.8942108154296875,-1.483306884765625
-0.7212677001953125,1.011932373046875,-1.5041351318359375
-0.5829315185546875,1.1376953125,-1.718719482421875
-0.4416351318359375,1.19677734375,-1.5517120361328125
-0.3746490478515625,1.098602294921875,-1.379486083984375
-0.4322509765625,0.83685302734375,-1.21185302734375
-0.2184295654296875,0.4255523681640625,-1.0372467041015625
-0.272918701171875,0.6365203857421875,-1.0575408935546875
-0.1926727294921875,0.4130859375,-0.7634735107421875
-0.1611480712890625,0.2263336181640625,-0.537200927734375
-0.3137054443359375,0.097412109375,-0.4915924072265625
-0.281585693359375,0.00469970703125,-0.5522613525390625
-0.1882171630859375,0.00848388671875,-0.4261627197265625
0.034393310546875,-0.1967620849609375,-0.301361083984375
-0.194732666015625,-0.4721221923828125,0.0007476806640625
-0.139190673828125,-0.671234130859375,-0.1375274658203125
0.067779541015625,-0.6366729736328125,-0.1931304931640625
-0.0912628173828125,-0.451080322265625,0.2356109619140625
-0.1449737548828125,-0.455474853515625,0.33795166015625
-0.1167144775390625,-0.348419189453125,0.3997650146484375
0.120391845703125,0.04638671875,0.46722412109375
0.3059844970703125,0.8239593505859375,0.5890350341796875
0.2210235595703125,1.303375244140625,0.9211578369140624
-0.23199462890625,2.2396240234375,0.8531646728515625
-0.3665618896484375,1.70941162109375,0.073516845703125
0.1021881103515625,0.0380859375,-0.0175628662109375
0.0870361328125,0.0337982177734375,-0.0326080322265625
0.0792083740234375,0.037322998046875,0.0067596435546875
-7.963653564453125,-5.22747802734375,-8.040191650390625
0.508819580078125,0.97137451171875,0.3271942138671875
0.0184783935546875,-0.0047760009765625,0.004913330078125
0.024993896484375,-0.0027313232421875,0.0057525634765625
0.0973358154296875,0.0509185791015625,-0.2702178955078125
0.8534088134765625,-0.047882080078125,-1.60760498046875
-0.8411407470703125,-0.229644775390625,-1.0606536865234375
-0.4001312255859375,-0.0393218994140625,-0.6834259033203125
-0.2216033935546875,-0.050994873046875,-1.2330322265625
-0.25994873046875,-0.0982818603515625,-0.9640655517578124
-0.2261962890625,-0.0828094482421875,-0.947418212890625
-0.2303314208984375,-0.11260986328125,-0.9460601806640624
-0.2386627197265625,-0.082977294921875,-0.9605255126953124
-0.2305145263671875,-0.091583251953125,-0.96563720703125
-0.2442169189453125,-0.08740234375,-0.957733154296875
-0.2369232177734375,-0.08599853515625,-0.9614715576171876
-0.235260009765625,-0.09039306640625,-0.9587554931640624
-0.2407989501953125,-0.0901336669921875,-0.9541168212890624
-0.231048583984375,-0.085205078125,-0.9623260498046876
-0.2430267333984375,-0.091644287109375,-0.958160400390625
-0.2339324951171875,-0.0843658447265625,-0.9690093994140624
-0.2401275634765625,-0.0888824462890625,-0.96783447265625
-0.2283782958984375,-0.0765228271484375,-0.9595794677734376
-0.241119384765625,-0.1045989990234375,-0.9521942138671876
-0.2225799560546875,-0.082061767578125,-0.979888916015625
-0.2412567138671875,-0.0970916748046875,-0.9567413330078124
-0.2359466552734375,-0.089630126953125,-0.9626617431640624
-0.23321533203125,-0.091522216796875,-0.96527099609375
-0.234771728515625,-0.0964202880859375,-0.9597625732421876
-0.2306976318359375,-0.09716796875,-0.966400146484375
-0.237579345703125,-0.0911102294921875,-0.960662841796875
-0.2337188720703125,-0.0960235595703125,-0.9652557373046876
-0.232452392578125,-0.0933380126953125,-0.96307373046875
-0.2322845458984375,-0.0989837646484375,-0.9610748291015624
-0.230224609375,-0.0945892333984375,-0.9649658203125
-0.2330780029296875,-0.1002960205078125,-0.9629974365234376
-0.2325897216796875,-0.09149169921875,-0.9621124267578124
-0.231597900390625,-0.09967041015625,-0.9638824462890624
-0.23297119140625,-0.106231689453125,-0.9829254150390624
-0.241729736328125,-0.10107421875,-0.970001220703125
