AccelerationX,AccelerationY,AccelerationZ
0.121337890625,-0.4174346923828125,-0.9142913818359376
0.138153076171875,-0.407623291015625,-0.9034271240234376
0.1325836181640625,-0.4090423583984375,-0.8933563232421875
0.118896484375,-0.4170379638671875,-0.8798370361328125
0.1036376953125,-0.401336669921875,-0.903656005859375
0.1079864501953125,-0.373443603515625,-0.9320526123046876
0.110687255859375,-0.341766357421875,-0.950958251953125
0.1059417724609375,-0.336212158203125,-0.93914794921875
0.0915069580078125,-0.3336334228515625,-0.92596435546875
0.09112548828125,-0.3404998779296875,-0.9139862060546876
0.0901641845703125,-0.344390869140625,-0.902252197265625
0.1060028076171875,-0.3541412353515625,-0.9140167236328124
0.10260009765625,-0.3624114990234375,-0.92620849609375
0.0959014892578125,-0.364532470703125,-0.95050048828125
0.085113525390625,-0.345489501953125,-0.9607391357421876
0.08587646484375,-0.3406982421875,-0.945953369140625
-0.0616607666015625,-0.3748931884765625,-0.95050048828125
0.0830078125,-0.372955322265625,-0.9185028076171876
0.1309967041015625,-0.3142547607421875,-0.8827667236328125
0.0972900390625,-0.37701416015625,-0.8005523681640625
0.0794219970703125,-0.280853271484375,-0.855926513671875
0.094970703125,-0.299713134765625,-0.8610382080078125
0.1354522705078125,-0.1919708251953125,-0.8006134033203125
-0.1204833984375,-0.3207244873046875,-0.9402313232421876
0.114410400390625,-0.35308837890625,-0.848541259765625
0.125823974609375,-0.516082763671875,-0.8652801513671875
0.2570953369140625,-0.5415802001953125,-0.8638458251953125
0.3775634765625,-0.478515625,-0.9118194580078124
0.3807220458984375,-0.3663177490234375,-0.949554443359375
0.3261260986328125,-0.3766937255859375,-0.918121337890625
0.351837158203125,-0.3746795654296875,-0.845062255859375
0.4253387451171875,-0.3097991943359375,-0.83966064453125
0.4989013671875,-0.3741607666015625,-0.688995361328125
0.585235595703125,-0.32666015625,-0.6427764892578125
0.476165771484375,-0.364898681640625,-0.8177337646484375
0.464202880859375,-0.3387908935546875,-0.7041168212890625
0.3938446044921875,-0.2575836181640625,-0.5250091552734375
0.1545257568359375,-0.0518341064453125,-0.623138427734375
0.243865966796875,-0.085052490234375,-0.64044189453125
0.249969482421875,-0.0065765380859375,-0.7079925537109375
0.379486083984375,0.023773193359375,-0.8028411865234375
0.4345245361328125,0.10626220703125,-0.90289306640625
0.5435028076171875,0.1913909912109375,-0.9773712158203124
0.6423492431640625,0.1629180908203125,-1.0891571044921875
0.5516204833984375,0.3638916015625,-1.2337646484375
0.48895263671875,0.3059234619140625,-1.1251068115234375
0.4102020263671875,0.3788299560546875,-1.101043701171875
0.30712890625,0.42803955078125,-1.1153717041015625
0.324249267578125,0.3932037353515625,-1.1414031982421875
0.3581085205078125,0.361846923828125,-1.2232666015625
0.3695220947265625,0.325225830078125,-1.2109832763671875
0.4049530029296875,0.3439788818359375,-1.1739044189453125
0.3968048095703125,0.3647003173828125,-1.098846435546875
0.39007568359375,0.4892578125,-1.0959320068359375
0.346160888671875,0.4545745849609375,-0.9763641357421876
0.3373260498046875,0.3689422607421875,-0.83795166015625
0.350433349609375,0.503173828125,-0.8780975341796875
0.377227783203125,0.6055755615234375,-0.812255859375
0.402130126953125,0.5496826171875,-0.6810760498046875
0.3955230712890625,0.598236083984375,-0.7821044921875
0.333343505859375,0.7250518798828125,-0.8789215087890625
0.333709716796875,0.7722930908203125,-0.8590850830078125
0.409027099609375,0.6846160888671875,-0.826080322265625
0.400421142578125,0.6218109130859375,-0.8189697265625
0.35992431640625,0.6832122802734375,-0.856292724609375
0.3875732421875,0.6973876953125,-0.8211822509765625
0.4048309326171875,0.626678466796875,-0.7598419189453125
0.3711090087890625,0.6165618896484375,-0.7713470458984375
0.2884063720703125,0.6022796630859375,-0.8316650390625
0.2735748291015625,0.571044921875,-0.8179931640625
0.2795867919921875,0.5179443359375,-0.745849609375
0.2386627197265625,0.5301971435546875,-0.7060394287109375
0.218994140625,0.50238037109375,-0.6674652099609375
0.1932830810546875,0.5442352294921875,-0.6907958984375
0.1683807373046875,0.5237579345703125,-0.6839141845703125
0.153076171875,0.4925994873046875,-0.7023773193359375
0.164794921875,0.5055389404296875,-0.7814483642578125
0.1625213623046875,0.57281494140625,-0.8749542236328125
0.161163330078125,0.58831787109375,-0.8948822021484375
0.1818695068359375,0.6409454345703125,-0.956695556640625
0.19879150390625,0.6354522705078125,-0.9380950927734376
0.1968841552734375,0.5983428955078125,-0.94293212890625
0.2192535400390625,0.57000732421875,-0.96966552734375
0.238800048828125,0.4030914306640625,-0.88238525390625
0.2235870361328125,0.29150390625,-0.828460693359375
0.24395751953125,0.4627532958984375,-0.9228515625
0.29962158203125,0.6621551513671875,-0.9456787109375
0.3356475830078125,0.595458984375,-0.8975982666015625
0.3237152099609375,0.4747161865234375,-0.8772125244140625
0.2977752685546875,0.4822845458984375,-0.8870391845703125
0.31298828125,0.5579376220703125,-0.8963470458984375
0.349151611328125,0.58038330078125,-0.856353759765625
0.37689208984375,0.5897064208984375,-0.8031158447265625
0.386505126953125,0.621978759765625,-0.7906036376953125
0.3940887451171875,0.6313934326171875,-0.789825439453125
0.3909454345703125,0.641387939453125,-0.7779083251953125
0.368560791015625,0.64276123046875,-0.7601776123046875
0.3403778076171875,0.6259765625,-0.712493896484375
0.319488525390625,0.6038055419921875,-0.668731689453125
0.2919158935546875,0.6342315673828125,-0.674652099609375
0.2685699462890625,0.684356689453125,-0.706024169921875
0.2607574462890625,0.7459564208984375,-0.80523681640625
0.2414398193359375,0.7444305419921875,-0.7710418701171875
0.25634765625,0.5477447509765625,-0.7041015625
0.229736328125,0.6206207275390625,-0.8477630615234375
0.16937255859375,0.722137451171875,-0.8538360595703125
0.1977081298828125,0.4911346435546875,-0.615325927734375
0.2076416015625,0.4322052001953125,-0.56298828125
0.1672821044921875,0.6514892578125,-0.708953857421875
0.2118072509765625,0.805908203125,-0.810638427734375
0.3143463134765625,0.6502685546875,-0.845458984375
0.360076904296875,0.526458740234375,-0.8641510009765625
0.3649139404296875,0.5195770263671875,-0.888092041015625
0.3867950439453125,0.5261383056640625,-0.8629150390625
0.39886474609375,0.5223236083984375,-0.8758697509765625
0.3709869384765625,0.53289794921875,-0.8572998046875
0.3314666748046875,0.5472412109375,-0.8372039794921875
0.32861328125,0.55377197265625,-0.823944091796875
0.3469696044921875,0.5799713134765625,-0.8296356201171875
0.3522796630859375,0.56549072265625,-0.81341552734375
0.33477783203125,0.589874267578125,-0.8071441650390625
0.3247222900390625,0.624267578125,-0.7740020751953125
0.2978973388671875,0.6024017333984375,-0.712982177734375
0.2698822021484375,0.6197662353515625,-0.717529296875
0.26806640625,0.700286865234375,-0.790679931640625
0.306365966796875,0.8744354248046875,-0.8778228759765625
0.29443359375,0.9210662841796876,-0.8502960205078125
0.2750701904296875,0.791839599609375,-0.8211822509765625
0.2053375244140625,0.5236358642578125,-0.7150726318359375
0.1410980224609375,0.2560577392578125,-0.68389892578125
0.10693359375,0.325927734375,-0.76995849609375
0.1538543701171875,0.6463470458984375,-0.8572998046875
0.2506866455078125,0.885345458984375,-0.7946929931640625
0.305419921875,0.7750091552734375,-0.5856475830078125
0.3342742919921875,0.56005859375,-0.516448974609375
0.3063812255859375,0.51904296875,-0.712158203125
0.2607574462890625,0.51654052734375,-0.825775146484375
0.2689666748046875,0.5652923583984375,-0.8001556396484375
0.27874755859375,0.6164703369140625,-0.76068115234375
0.27386474609375,0.5979156494140625,-0.78607177734375
0.2472991943359375,0.5222320556640625,-0.83270263671875
0.2256011962890625,0.456146240234375,-0.85784912109375
0.214019775390625,0.46923828125,-0.858123779296875
0.2170257568359375,0.5153045654296875,-0.819427490234375
0.2330322265625,0.5668182373046875,-0.7756500244140625
0.257965087890625,0.6261444091796875,-0.7679290771484375
0.285064697265625,0.66455078125,-0.7706451416015625
0.317718505859375,0.6223602294921875,-0.7639923095703125
0.3335723876953125,0.7999114990234375,-0.8707122802734375
0.3694610595703125,0.5446929931640625,-0.7644805908203125
0.4053955078125,0.5388031005859375,-0.8255615234375
0.37762451171875,0.599822998046875,-0.785247802734375
0.3607940673828125,0.5490570068359375,-0.6857147216796875
0.3601226806640625,0.6118621826171875,-0.69403076171875
0.3326568603515625,0.81353759765625,-0.750762939453125
0.3453369140625,0.7978973388671875,-0.7598876953125
0.42242431640625,0.6879425048828125,-0.7818756103515625
0.42266845703125,0.5935821533203125,-0.7240142822265625
0.3713226318359375,0.62933349609375,-0.6528778076171875
0.3502655029296875,0.704132080078125,-0.68060302734375
0.3432769775390625,0.746917724609375,-0.7078399658203125
0.3568115234375,0.722015380859375,-0.68157958984375
0.34228515625,0.6799468994140625,-0.6488037109375
0.31024169921875,0.647674560546875,-0.6496429443359375
0.2772369384765625,0.6190185546875,-0.6589508056640625
0.2586517333984375,0.6046600341796875,-0.66387939453125
0.24078369140625,0.5948333740234375,-0.6881561279296875
0.2153472900390625,0.611175537109375,-0.7087860107421875
0.195404052734375,0.6300048828125,-0.720733642578125
0.1768798828125,0.6286773681640625,-0.765716552734375
0.1582183837890625,0.6711273193359375,-0.7733612060546875
0.1175537109375,0.7767486572265625,-0.8824005126953125
0.1398162841796875,0.769744873046875,-0.8778533935546875
0.1440277099609375,0.7648773193359375,-0.8889007568359375
0.1389923095703125,0.624969482421875,-0.8596343994140625
0.1755523681640625,0.4174041748046875,-0.89190673828125
0.17950439453125,0.3104705810546875,-0.93597412109375
0.173736572265625,0.3563232421875,-0.8885955810546875
0.220306396484375,0.4949493408203125,-0.8485107421875
0.2861480712890625,0.5737457275390625,-0.824981689453125
0.327301025390625,0.589508056640625,-0.854705810546875
0.353668212890625,0.5661468505859375,-0.8343963623046875
0.361083984375,0.597076416015625,-0.760406494140625
0.3748016357421875,0.667938232421875,-0.7355499267578125
0.3951568603515625,0.7163848876953125,-0.729461669921875
0.4187469482421875,0.7293548583984375,-0.750213623046875
0.42523193359375,0.7070159912109375,-0.7615509033203125
0.4428253173828125,0.678466796875,-0.7454071044921875
0.4111175537109375,0.6678314208984375,-0.7242279052734375
0.3749542236328125,0.6872406005859375,-0.6881256103515625
0.346099853515625,0.65386962890625,-0.6468353271484375
0.280303955078125,0.6578521728515625,-0.671478271484375
0.21551513671875,0.6894378662109375,-0.665679931640625
0.212005615234375,0.699310302734375,-0.655487060546875
0.2519378662109375,0.9065704345703124,-0.79327392578125
0.267730712890625,0.7140350341796875,-0.6971435546875
0.3008880615234375,0.5756988525390625,-0.7664642333984375
0.2662353515625,0.5906524658203125,-0.8226470947265625
0.2460174560546875,0.518035888671875,-0.6957855224609375
0.26568603515625,0.5148162841796875,-0.6514434814453125
0.2590179443359375,0.7136077880859375,-0.751007080078125
0.3154296875,0.79266357421875,-0.8340301513671875
0.3863067626953125,0.6741943359375,-0.7900848388671875
0.4407806396484375,0.557281494140625,-0.7252349853515625
0.4371185302734375,0.5627899169921875,-0.697021484375
0.38482666015625,0.6590728759765625,-0.6878509521484375
0.408416748046875,0.65509033203125,-0.702178955078125
0.41070556640625,0.6145477294921875,-0.692840576171875
0.3654327392578125,0.609619140625,-0.7023162841796875
0.345947265625,0.650146484375,-0.738372802734375
0.3649444580078125,0.6725311279296875,-0.7427978515625
0.37518310546875,0.6822357177734375,-0.7273101806640625
0.3707122802734375,0.6705169677734375,-0.695343017578125
0.34307861328125,0.6393280029296875,-0.673248291015625
0.3126220703125,0.6994476318359375,-0.73236083984375
0.3329925537109375,0.838531494140625,-0.7969970703125
0.368377685546875,0.8095703125,-0.7055511474609375
0.3248748779296875,0.6037750244140625,-0.6201934814453125
0.2667388916015625,0.435882568359375,-0.6515350341796875
0.24151611328125,0.527862548828125,-0.7597198486328125
0.2636260986328125,0.8524627685546875,-0.832611083984375
0.2775115966796875,0.8953094482421875,-0.6714324951171875
0.280059814453125,0.57708740234375,-0.447967529296875
0.210693359375,0.467681884765625,-0.5823974609375
0.13134765625,0.552490234375,-0.7103271484375
0.1978607177734375,0.62762451171875,-0.7151947021484375
0.3063201904296875,0.6544952392578125,-0.6554412841796875
0.33935546875,0.62847900390625,-0.65582275390625
0.3266143798828125,0.6146087646484375,-0.744598388671875
0.2869873046875,0.5611114501953125,-0.7809600830078125
0.276702880859375,0.5065460205078125,-0.785369873046875
0.2794647216796875,0.545806884765625,-0.810943603515625
0.2955780029296875,0.58697509765625,-0.83642578125
0.328460693359375,0.6346588134765625,-0.8746337890625
0.3969879150390625,0.910797119140625,-1.090972900390625
0.415313720703125,0.7530517578125,-0.94647216796875
0.4423828125,0.646209716796875,-0.873931884765625
0.41851806640625,0.655364990234375,-0.82861328125
0.37744140625,0.4195098876953125,-0.5936737060546875
0.36322021484375,0.3816986083984375,-0.550262451171875
0.373046875,0.6845703125,-0.7012176513671875
0.4715728759765625,0.88018798828125,-0.798370361328125
0.558624267578125,0.8324737548828125,-0.8094635009765625
0.6393585205078125,0.6810760498046875,-0.68988037109375
0.5131378173828125,0.746917724609375,-0.5687103271484375
0.400299072265625,0.82513427734375,-0.6162109375
0.3804779052734375,0.8050079345703125,-0.6868896484375
0.3936614990234375,0.71551513671875,-0.6973876953125
0.396575927734375,0.67950439453125,-0.7125244140625
0.366485595703125,0.5873870849609375,-0.6496734619140625
0.256103515625,0.627227783203125,-0.7150726318359375
0.2537994384765625,0.567230224609375,-0.7534027099609375
0.2520904541015625,0.5553131103515625,-0.7920379638671875
0.2342529296875,0.5231475830078125,-0.7090606689453125
0.222869873046875,0.5391998291015625,-0.6625823974609375
0.1996612548828125,0.518402099609375,-0.6889801025390625
0.1782379150390625,0.5506134033203125,-0.7378082275390625
0.2019500732421875,0.5646209716796875,-0.7855987548828125
0.1876220703125,0.5532073974609375,-0.800048828125
0.148681640625,0.653289794921875,-0.890838623046875
0.1647186279296875,0.8319091796875,-0.9949798583984376
0.177459716796875,0.738616943359375,-0.871307373046875
0.1546173095703125,0.7378692626953125,-0.789764404296875
0.1729583740234375,0.5137939453125,-0.7023162841796875
0.23626708984375,0.3052520751953125,-0.71295166015625
0.3276214599609375,0.4282073974609375,-0.906219482421875
0.4084930419921875,0.665069580078125,-1.027984619140625
0.4333953857421875,0.6767425537109375,-0.8871002197265625
0.3765106201171875,0.59552001953125,-0.707244873046875
0.3212738037109375,0.5556793212890625,-0.6915740966796875
0.2848968505859375,0.5439300537109375,-0.7569427490234375
0.3287200927734375,0.52301025390625,-0.781494140625
0.3529510498046875,0.5419921875,-0.7695465087890625
0.334747314453125,0.601318359375,-0.7610321044921875
0.3297271728515625,0.6381683349609375,-0.7780609130859375
0.331298828125,0.6443328857421875,-0.7871856689453125
0.323272705078125,0.6478271484375,-0.746734619140625
0.3072662353515625,0.66046142578125,-0.683349609375
0.3012542724609375,0.654876708984375,-0.645416259765625
0.2856597900390625,0.62567138671875,-0.6450958251953125
0.266937255859375,0.6332550048828125,-0.6604766845703125
0.2403411865234375,0.6476593017578125,-0.6673583984375
0.241424560546875,0.666046142578125,-0.6683197021484375
0.275421142578125,0.6456756591796875,-0.676177978515625
0.2814788818359375,0.608856201171875,-0.666473388671875
0.280792236328125,0.60479736328125,-0.6968841552734375
0.28167724609375,0.8305511474609375,-0.8677825927734375
0.284454345703125,0.65985107421875,-0.813690185546875
0.3364410400390625,0.56488037109375,-0.8753509521484375
0.3277740478515625,0.536224365234375,-0.9257659912109376
0.281768798828125,0.59747314453125,-0.868499755859375
0.27813720703125,0.6163177490234375,-0.7812652587890625
0.271514892578125,0.60211181640625,-0.7255096435546875
0.262237548828125,0.7382354736328125,-0.795074462890625
0.2888031005859375,0.751190185546875,-0.81109619140625
0.3237152099609375,0.6542510986328125,-0.801300048828125
0.2755584716796875,0.60919189453125,-0.823028564453125
0.2041778564453125,0.605712890625,-0.8117828369140625
0.1724090576171875,0.639190673828125,-0.801239013671875
0.1555938720703125,0.669281005859375,-0.77703857421875
0.149200439453125,0.6989593505859375,-0.7539825439453125
0.1445770263671875,0.6991119384765625,-0.7171783447265625
0.1493988037109375,0.648529052734375,-0.68292236328125
0.1534423828125,0.6002960205078125,-0.6292724609375
0.1557464599609375,0.5907745361328125,-0.5879058837890625
0.17523193359375,0.61920166015625,-0.595794677734375
0.2249298095703125,0.6435394287109375,-0.667083740234375
0.2532196044921875,0.729461669921875,-0.7833251953125
0.296112060546875,0.810333251953125,-0.8434600830078125
0.34912109375,0.9015045166015624,-0.8216400146484375
0.3988800048828125,0.9335479736328124,-0.7385101318359375
0.4418182373046875,0.8030853271484375,-0.6276702880859375
0.4443206787109375,0.6585845947265625,-0.601654052734375
0.44976806640625,0.55987548828125,-0.6445159912109375
0.407470703125,0.5877227783203125,-0.71142578125
0.347900390625,0.6397857666015625,-0.754302978515625
0.3055572509765625,0.679443359375,-0.7634124755859375
0.2788238525390625,0.65960693359375,-0.724822998046875
0.2425994873046875,0.6627044677734375,-0.6993560791015625
0.207427978515625,0.6490631103515625,-0.6912994384765625
0.1555938720703125,0.6343841552734375,-0.729736328125
0.11505126953125,0.6728668212890625,-0.781036376953125
0.1514434814453125,0.6857757568359375,-0.7863616943359375
0.213043212890625,0.63763427734375,-0.855224609375
0.1929473876953125,0.539703369140625,-0.9394378662109376
0.059326171875,0.5419158935546875,-0.98980712890625
-0.0161590576171875,0.5814208984375,-0.9354095458984376
-0.0162811279296875,0.59014892578125,-0.850250244140625
0.0040435791015625,0.5749664306640625,-0.804107666015625
0.0371856689453125,0.5618743896484375,-0.8142242431640625
0.06463623046875,0.5797271728515625,-0.8202972412109375
0.1091461181640625,0.618438720703125,-0.8267822265625
0.129974365234375,0.68072509765625,-0.8685302734375
0.1299896240234375,0.6788177490234375,-0.8775177001953125
0.13873291015625,0.6325836181640625,-0.8289794921875
0.149078369140625,0.72479248046875,-0.857269287109375
0.178924560546875,0.807708740234375,-0.8628997802734375
0.2082061767578125,0.7622528076171875,-0.77716064453125
0.227203369140625,0.6905517578125,-0.6963043212890625
0.2171478271484375,0.679412841796875,-0.707183837890625
0.2064056396484375,0.7048797607421875,-0.7363128662109375
0.2097625732421875,0.744140625,-0.724029541015625
0.2151947021484375,0.7287445068359375,-0.66912841796875
0.2238311767578125,0.671539306640625,-0.6426239013671875
0.2280731201171875,0.6352691650390625,-0.640716552734375
0.2285919189453125,0.6190185546875,-0.6153564453125
0.23468017578125,0.6356964111328125,-0.5840911865234375
0.228485107421875,0.6557159423828125,-0.5794830322265625
0.227813720703125,0.664581298828125,-0.6166534423828125
0.2249755859375,0.6714630126953125,-0.6730499267578125
0.2300262451171875,0.65875244140625,-0.7069244384765625
0.182464599609375,0.614227294921875,-0.8038330078125
0.159576416015625,0.6980743408203125,-0.7937469482421875
0.2375640869140625,0.7043914794921875,-0.8680419921875
0.29241943359375,0.73223876953125,-0.9619140625
0.35943603515625,0.900054931640625,-1.1336822509765625
0.3715057373046875,0.7615966796875,-1.1097564697265625
0.3146514892578125,0.4932098388671875,-0.9750213623046876
0.2672271728515625,0.34686279296875,-0.82891845703125
0.2475433349609375,0.2542572021484375,-0.759033203125
0.23870849609375,0.2527008056640625,-0.7733306884765625
0.2336273193359375,0.41375732421875,-0.8522491455078125
0.2458038330078125,0.5792236328125,-0.928253173828125
0.2791748046875,0.555511474609375,-0.9266510009765624
0.290771484375,0.4503021240234375,-0.8505096435546875
0.2825164794921875,0.46453857421875,-0.79901123046875
0.271759033203125,0.5543975830078125,-0.784942626953125
0.2773895263671875,0.616943359375,-0.801239013671875
0.3173370361328125,0.6206817626953125,-0.7852020263671875
0.36944580078125,0.6312713623046875,-0.8075408935546875
0.377838134765625,0.659423828125,-0.85614013671875
0.360260009765625,0.6734161376953125,-0.819427490234375
0.3029022216796875,0.6871795654296875,-0.76348876953125
0.2635650634765625,0.6761627197265625,-0.7420501708984375
0.2735595703125,0.6783294677734375,-0.792938232421875
0.275421142578125,0.6951751708984375,-0.848724365234375
0.2722930908203125,0.6457061767578125,-0.8401031494140625
0.256195068359375,0.604522705078125,-0.824981689453125
0.2146453857421875,0.6147613525390625,-0.8238067626953125
0.1812286376953125,0.59466552734375,-0.798431396484375
0.1714019775390625,0.5735626220703125,-0.7601165771484375
0.1589202880859375,0.5678558349609375,-0.740081787109375
0.1292266845703125,0.5214385986328125,-0.700714111328125
0.1150665283203125,0.477264404296875,-0.6395111083984375
0.1124267578125,0.4995269775390625,-0.65191650390625
0.1020355224609375,0.5652008056640625,-0.763702392578125
0.1005859375,0.6066131591796875,-0.8715362548828125
0.1115570068359375,0.6038970947265625,-0.9372711181640624
0.0928497314453125,0.5307769775390625,-1.0608673095703125
0.0403594970703125,0.57635498046875,-1.054534912109375
0.065093994140625,0.559112548828125,-0.9595947265625
0.14111328125,0.4930267333984375,-0.8637237548828125
0.1900482177734375,0.38946533203125,-0.87884521484375
0.2928619384765625,0.3689422607421875,-0.9629364013671876
0.307525634765625,0.4158935546875,-1.087249755859375
0.2418212890625,0.42913818359375,-1.008819580078125
0.20147705078125,0.5236053466796875,-0.9094390869140624
0.1880340576171875,0.514404296875,-0.8420257568359375
0.1471405029296875,0.5467071533203125,-0.8563995361328125
0.1248931884765625,0.6033782958984375,-0.8522186279296875
0.117767333984375,0.613861083984375,-0.8198089599609375
0.096710205078125,0.6055450439453125,-0.787200927734375
0.118255615234375,0.612762451171875,-0.798248291015625
0.184051513671875,0.574920654296875,-0.8152313232421875
0.2382354736328125,0.5385284423828125,-0.8216400146484375
0.266876220703125,0.53350830078125,-0.8484344482421875
0.25836181640625,0.515594482421875,-0.8294525146484375
0.2620086669921875,0.48760986328125,-0.815521240234375
0.2766571044921875,0.498291015625,-0.797698974609375
0.279266357421875,0.5456695556640625,-0.8159942626953125
0.277984619140625,0.64691162109375,-0.887542724609375
0.2783966064453125,0.650787353515625,-0.888336181640625
0.3011016845703125,0.503631591796875,-0.8103790283203125
0.3093109130859375,0.4750518798828125,-0.8484039306640625
0.3035125732421875,0.5329742431640625,-0.884521484375
0.32086181640625,0.58258056640625,-0.8701629638671875
0.3225860595703125,0.571441650390625,-0.8214263916015625
0.2948150634765625,0.5801239013671875,-0.8365325927734375
0.2857513427734375,0.6174774169921875,-0.876190185546875
0.30712890625,0.6826019287109375,-0.896026611328125
0.331024169921875,0.7831573486328125,-0.88677978515625
0.3312530517578125,0.7710418701171875,-0.835968017578125
0.297760009765625,0.65985107421875,-0.772705078125
0.241180419921875,0.5818023681640625,-0.7257232666015625
0.184356689453125,0.61138916015625,-0.7060089111328125
0.1433258056640625,0.6353912353515625,-0.6973419189453125
0.1058502197265625,0.5817108154296875,-0.6464385986328125
0.0850677490234375,0.481597900390625,-0.6913299560546875
0.015411376953125,0.4929046630859375,-0.7586517333984375
0.0031585693359375,0.4908599853515625,-0.7642822265625
0.01336669921875,0.4985198974609375,-0.772796630859375
0.007171630859375,0.4816741943359375,-0.814605712890625
0.02728271484375,0.4941253662109375,-0.8402557373046875
0.0404052734375,0.52862548828125,-0.8511962890625
0.04852294921875,0.575714111328125,-0.9043426513671876
0.08660888671875,0.569671630859375,-0.9693145751953124
0.1932830810546875,0.7322998046875,-1.1405181884765625
0.2490692138671875,0.768951416015625,-1.117950439453125
0.288909912109375,0.5378570556640625,-0.994140625
0.2832183837890625,0.6041717529296875,-1.023529052734375
0.2703399658203125,0.5008544921875,-0.9134368896484376
0.252471923828125,0.3777008056640625,-0.787384033203125
0.22308349609375,0.347015380859375,-0.735137939453125
0.2328338623046875,0.4461517333984375,-0.8069000244140625
0.28173828125,0.6862335205078125,-0.9524078369140624
0.3683624267578125,0.6580657958984375,-0.9496307373046876
0.41876220703125,0.5145416259765625,-0.9012451171875
0.421905517578125,0.4615631103515625,-0.8312225341796875
0.3916015625,0.5859375,-0.785369873046875
0.4019317626953125,0.6864776611328125,-0.76898193359375
0.4217071533203125,0.720794677734375,-0.747344970703125
0.42498779296875,0.7313690185546875,-0.7205963134765625
0.3941497802734375,0.72467041015625,-0.7045135498046875
0.36602783203125,0.7135009765625,-0.696319580078125
0.3534698486328125,0.6661376953125,-0.655426025390625
0.3279571533203125,0.627532958984375,-0.6199798583984375
0.2824554443359375,0.582000732421875,-0.6175384521484375
0.235504150390625,0.556976318359375,-0.6379241943359375
0.1931304931640625,0.5831298828125,-0.6994781494140625
0.196380615234375,0.783782958984375,-0.8474273681640625
0.2144012451171875,0.8755035400390625,-0.887359619140625
0.2614593505859375,0.667877197265625,-0.800079345703125
0.238494873046875,0.4677734375,-0.8136749267578125
0.200927734375,0.2928619384765625,-0.8094482421875
0.1886444091796875,0.2411956787109375,-0.7999725341796875
0.2389678955078125,0.5107879638671875,-0.935577392578125
0.3553619384765625,0.8896636962890625,-1.0709228515625
0.4266510009765625,0.833465576171875,-0.9000396728515625
0.4114990234375,0.53863525390625,-0.698272705078125
0.2847900390625,0.475921630859375,-0.7290496826171875
0.21527099609375,0.5877685546875,-0.8333282470703125
0.2550811767578125,0.6826629638671875,-0.7901458740234375
0.29302978515625,0.661407470703125,-0.7254486083984375
0.26226806640625,0.5788116455078125,-0.7148590087890625
0.221923828125,0.53857421875,-0.75836181640625
0.1936798095703125,0.5609893798828125,-0.78082275390625
0.181427001953125,0.5809173583984375,-0.7500457763671875
0.1661529541015625,0.57598876953125,-0.6813201904296875
0.154052734375,0.5604400634765625,-0.6385650634765625
0.144989013671875,0.55340576171875,-0.633880615234375
0.1722412109375,0.5261077880859375,-0.657379150390625
0.189544677734375,0.5674591064453125,-0.71820068359375
0.2138519287109375,0.61077880859375,-0.7815399169921875
0.2613067626953125,0.5944061279296875,-0.8180389404296875
0.304229736328125,0.719451904296875,-0.895660400390625
0.3078155517578125,0.63916015625,-0.85784912109375
0.3057403564453125,0.5170440673828125,-0.8370819091796875
0.239654541015625,0.6314544677734375,-0.8895263671875
0.2448577880859375,0.6590576171875,-0.8446502685546875
0.288055419921875,0.604217529296875,-0.76190185546875
0.308990478515625,0.5289306640625,-0.668487548828125
0.3295135498046875,0.6194305419921875,-0.7092742919921875
0.3433074951171875,0.8109893798828125,-0.7823028564453125
0.4184112548828125,0.7616424560546875,-0.7555999755859375
0.4546661376953125,0.66571044921875,-0.7163238525390625
0.4501495361328125,0.6184844970703125,-0.6856842041015625
0.42205810546875,0.6746063232421875,-0.6649017333984375
0.426025390625,0.7095794677734375,-0.6358795166015625
0.4349212646484375,0.7248687744140625,-0.6322021484375
0.426300048828125,0.76458740234375,-0.64971923828125
0.4228973388671875,0.75787353515625,-0.6455841064453125
0.41973876953125,0.7054443359375,-0.6353302001953125
0.3845977783203125,0.6681365966796875,-0.6240997314453125
0.3315277099609375,0.6761932373046875,-0.6175537109375
0.2756805419921875,0.671661376953125,-0.59814453125
0.22802734375,0.6737060546875,-0.578826904296875
0.2116241455078125,0.6708526611328125,-0.5854644775390625
0.2195281982421875,0.6258697509765625,-0.6442718505859375
0.2610015869140625,0.5875396728515625,-0.7170562744140625
0.2940826416015625,0.5230865478515625,-0.7681732177734375
0.27069091796875,0.5152587890625,-0.8115234375
0.23114013671875,0.605804443359375,-0.7875213623046875
0.2520599365234375,0.663055419921875,-0.750335693359375
0.2992401123046875,0.6881561279296875,-0.7928314208984375
0.3260955810546875,0.8249969482421875,-0.8637847900390625
0.3641815185546875,0.6764678955078125,-0.756805419921875
0.347412109375,0.667755126953125,-0.79571533203125
0.3166351318359375,0.7682342529296875,-0.868011474609375
0.38531494140625,0.7174072265625,-0.8399505615234375
0.4116363525390625,0.573333740234375,-0.7686767578125
0.36334228515625,0.4294891357421875,-0.7204437255859375
0.3036346435546875,0.3633270263671875,-0.690826416015625
0.3021697998046875,0.5511016845703125,-0.7951202392578125
0.348785400390625,0.7911834716796875,-0.86688232421875
0.434967041015625,0.81884765625,-0.7601470947265625
0.458740234375,0.7038421630859375,-0.61297607421875
0.3971710205078125,0.6763916015625,-0.583587646484375
0.327362060546875,0.7042236328125,-0.63079833984375
0.314910888671875,0.7198333740234375,-0.638916015625
0.3313446044921875,0.70849609375,-0.6038818359375
0.32391357421875,0.6735076904296875,-0.63446044921875
0.301177978515625,0.6589508056640625,-0.6732177734375
0.3160552978515625,0.625762939453125,-0.6785125732421875
0.324981689453125,0.6032257080078125,-0.67340087890625
0.32269287109375,0.594024658203125,-0.66864013671875
0.3134307861328125,0.560028076171875,-0.642547607421875
0.3050537109375,0.58074951171875,-0.67083740234375
0.3139190673828125,0.636474609375,-0.7313995361328125
0.3401947021484375,0.6889190673828125,-0.7760009765625
0.3773345947265625,0.79083251953125,-0.857757568359375
0.373199462890625,0.6026611328125,-0.774566650390625
0.352935791015625,0.5673065185546875,-0.836273193359375
0.32000732421875,0.6323089599609375,-0.8883056640625
0.3124542236328125,0.6363677978515625,-0.7467193603515625
0.2777252197265625,0.5667266845703125,-0.5816192626953125
0.2587432861328125,0.5067291259765625,-0.5829620361328125
0.31341552734375,0.8031158447265625,-0.817596435546875
0.40692138671875,0.8679962158203125,-0.8284759521484375
0.4842071533203125,0.667572021484375,-0.7065582275390625
0.4569244384765625,0.5167236328125,-0.6803741455078125
0.3909912109375,0.4982757568359375,-0.787933349609375
0.371063232421875,0.56146240234375,-0.8431854248046875
0.3866729736328125,0.611602783203125,-0.79339599609375
0.3746795654296875,0.597320556640625,-0.7234649658203125
0.3680877685546875,0.5452880859375,-0.725555419921875
0.3466796875,0.522979736328125,-0.734832763671875
0.336334228515625,0.49591064453125,-0.7180938720703125
0.3051910400390625,0.542449951171875,-0.7152862548828125
0.284698486328125,0.5404205322265625,-0.6883392333984375
0.259429931640625,0.533233642578125,-0.688873291015625
0.2287139892578125,0.5510711669921875,-0.70452880859375
0.1985321044921875,0.5830230712890625,-0.718353271484375
0.18798828125,0.712158203125,-0.8346405029296875
0.2107086181640625,0.7557830810546875,-0.8298492431640625
0.2769317626953125,0.68853759765625,-0.79742431640625
0.231201171875,0.692108154296875,-0.8108367919921875
0.2111053466796875,0.64801025390625,-0.81781005859375
0.2202606201171875,0.529083251953125,-0.7888031005859375
0.2096405029296875,0.423919677734375,-0.790283203125
0.2039642333984375,0.52337646484375,-0.8643951416015625
0.250518798828125,0.7339935302734375,-0.8779296875
0.342376708984375,0.72088623046875,-0.79254150390625
0.370025634765625,0.5686798095703125,-0.7299346923828125
0.30816650390625,0.5323028564453125,-0.732757568359375
0.23321533203125,0.5623931884765625,-0.75201416015625
0.208709716796875,0.5910186767578125,-0.72119140625
0.2343292236328125,0.5676116943359375,-0.7215576171875
0.2320556640625,0.5590057373046875,-0.7746734619140625
0.2399139404296875,0.5521697998046875,-0.8043365478515625
0.2603302001953125,0.53985595703125,-0.797760009765625
0.283935546875,0.5271148681640625,-0.761016845703125
0.3060455322265625,0.5837554931640625,-0.79180908203125
0.3346405029296875,0.6572113037109375,-0.83392333984375
0.38238525390625,0.8567962646484375,-0.9363250732421876
0.4258880615234375,0.675048828125,-0.8034820556640625
0.4414825439453125,0.6125640869140625,-0.7878875732421875
0.4181365966796875,0.649688720703125,-0.72613525390625
0.4236297607421875,0.60101318359375,-0.6004791259765625
0.4394073486328125,0.6114654541015625,-0.5469207763671875
0.4142303466796875,0.8354034423828125,-0.657501220703125
0.4042205810546875,0.9015655517578124,-0.688568115234375
0.4727325439453125,0.7754058837890625,-0.62591552734375
0.4942474365234375,0.6608123779296875,-0.5760345458984375
0.4131317138671875,0.6781158447265625,-0.6045379638671875
0.33544921875,0.693328857421875,-0.6544189453125
0.2912750244140625,0.705047607421875,-0.69659423828125
0.35223388671875,0.611358642578125,-0.7084503173828125
0.316131591796875,0.5825042724609375,-0.7029266357421875
0.2690887451171875,0.58782958984375,-0.689239501953125
0.2555389404296875,0.5765533447265625,-0.68670654296875
0.2220001220703125,0.578125,-0.6897430419921875
0.1811676025390625,0.578369140625,-0.6833038330078125
0.15350341796875,0.6698455810546875,-0.77880859375
0.180450439453125,0.8419342041015625,-0.862579345703125
0.2714996337890625,0.767364501953125,-0.835174560546875
0.3063201904296875,0.6985931396484375,-0.8542938232421875
0.2902069091796875,0.6259918212890625,-0.8526763916015625
0.287567138671875,0.4256744384765625,-0.7692413330078125
0.2953033447265625,0.33721923828125,-0.7639617919921875
0.26812744140625,0.5912933349609375,-0.8730010986328125
0.2914581298828125,0.8490142822265625,-0.82354736328125
0.380889892578125,0.6850738525390625,-0.6565704345703125
0.400482177734375,0.5222930908203125,-0.6746826171875
0.3242034912109375,0.595245361328125,-0.7746429443359375
0.336517333984375,0.641082763671875,-0.76397705078125
0.4078369140625,0.62615966796875,-0.719085693359375
0.4228973388671875,0.608489990234375,-0.7225494384765625
0.373016357421875,0.60650634765625,-0.7646942138671875
0.3543701171875,0.624237060546875,-0.76611328125
0.367431640625,0.638427734375,-0.72723388671875
0.3724517822265625,0.6674652099609375,-0.69451904296875
0.3709564208984375,0.665191650390625,-0.6633758544921875
0.358551025390625,0.6654510498046875,-0.6340484619140625
0.3559722900390625,0.661376953125,-0.609375
0.3530731201171875,0.6619720458984375,-0.5892333984375
0.33709716796875,0.68896484375,-0.60382080078125
0.3162689208984375,0.6994781494140625,-0.671417236328125
0.28485107421875,0.8264312744140625,-0.745697021484375
0.244964599609375,0.7275390625,-0.65875244140625
0.2472991943359375,0.63848876953125,-0.688812255859375
0.21197509765625,0.666015625,-0.671630859375
0.231170654296875,0.5821990966796875,-0.5499725341796875
0.2584381103515625,0.619049072265625,-0.5963134765625
0.2678680419921875,0.8207244873046875,-0.7344207763671875
0.3101959228515625,0.854400634765625,-0.81494140625
0.39605712890625,0.6979217529296875,-0.794464111328125
0.441802978515625,0.5907745361328125,-0.7140350341796875
0.379669189453125,0.652313232421875,-0.6689910888671875
0.3274078369140625,0.7032012939453125,-0.6599884033203125
0.3281707763671875,0.679351806640625,-0.6572265625
0.3231964111328125,0.651397705078125,-0.64556884765625
0.3171539306640625,0.6431884765625,-0.6632843017578125
0.3354949951171875,0.6579437255859375,-0.69329833984375
0.347991943359375,0.6256256103515625,-0.69647216796875
0.34564208984375,0.620574951171875,-0.6945343017578125
0.33526611328125,0.647003173828125,-0.705963134765625
0.346343994140625,0.657135009765625,-0.70294189453125
0.375457763671875,0.66058349609375,-0.6897125244140625
0.3813629150390625,0.67218017578125,-0.702423095703125
0.3825225830078125,0.635406494140625,-0.6869964599609375
0.3354644775390625,0.623016357421875,-0.6820526123046875
0.29119873046875,0.6187896728515625,-0.6617584228515625
0.281768798828125,0.6252593994140625,-0.683197021484375
0.2924957275390625,0.6515655517578125,-0.7048492431640625
0.3463897705078125,0.6755828857421875,-0.7115325927734375
0.382720947265625,0.67926025390625,-0.71539306640625
0.3464508056640625,0.654388427734375,-0.7103729248046875
0.30816650390625,0.849517822265625,-0.8208160400390625
0.312713623046875,0.734100341796875,-0.7061309814453125
0.3227386474609375,0.652496337890625,-0.6806488037109375
0.3061676025390625,0.6891632080078125,-0.80120849609375
0.314971923828125,0.6121063232421875,-0.916473388671875
0.357818603515625,0.413909912109375,-0.8531494140625
0.374176025390625,0.3203582763671875,-0.7958831787109375
0.386627197265625,0.5459747314453125,-0.8643798828125
0.50384521484375,0.875091552734375,-0.9580230712890624
0.5986785888671875,0.972320556640625,-0.8742523193359375
0.562347412109375,0.9198455810546876,-0.7159423828125
0.398284912109375,0.8389892578125,-0.6626739501953125
0.2727203369140625,0.82916259765625,-0.752410888671875
0.2183380126953125,0.7675018310546875,-0.6725616455078125
0.2285308837890625,0.6789093017578125,-0.5024566650390625
0.2292022705078125,0.6170501708984375,-0.443572998046875
0.211517333984375,0.5849456787109375,-0.52685546875
0.19268798828125,0.5697021484375,-0.6071624755859375
0.1895294189453125,0.582427978515625,-0.6763763427734375
0.1941680908203125,0.5608062744140625,-0.703887939453125
0.1858367919921875,0.552734375,-0.7220916748046875
0.181060791015625,0.5882415771484375,-0.777496337890625
0.215362548828125,0.5993804931640625,-0.808380126953125
0.251953125,0.608245849609375,-0.8159332275390625
0.25616455078125,0.6192626953125,-0.8193817138671875
0.2493133544921875,0.6178131103515625,-0.853424072265625
0.2588958740234375,0.654510498046875,-0.8712615966796875
0.302642822265625,0.65850830078125,-0.879669189453125
0.338714599609375,0.7912139892578125,-0.9525299072265624
0.35491943359375,0.5776214599609375,-0.8331451416015625
0.3464813232421875,0.541656494140625,-0.88970947265625
0.3045196533203125,0.61199951171875,-0.9225921630859376
0.332611083984375,0.5645904541015625,-0.8692169189453125
0.352325439453125,0.5307769775390625,-0.8441619873046875
0.3400115966796875,0.5371856689453125,-0.8124542236328125
0.3515625,0.5336456298828125,-0.8075714111328125
0.3665771484375,0.5590667724609375,-0.7857208251953125
0.35107421875,0.557098388671875,-0.720123291015625
0.3530120849609375,0.609466552734375,-0.7083892822265625
0.4181671142578125,0.7712249755859375,-0.8253326416015625
0.523223876953125,0.7930450439453125,-0.815216064453125
0.5355682373046875,0.716064453125,-0.733642578125
0.466522216796875,0.688446044921875,-0.701690673828125
0.3738250732421875,0.6678619384765625,-0.702239990234375
0.3679046630859375,0.6703033447265625,-0.749267578125
0.3868408203125,0.6854400634765625,-0.788726806640625
0.3983612060546875,0.687957763671875,-0.7354888916015625
0.38873291015625,0.67578125,-0.6985626220703125
0.350067138671875,0.6462860107421875,-0.6650390625
0.2944183349609375,0.6388092041015625,-0.6207733154296875
0.23052978515625,0.617645263671875,-0.60784912109375
0.1727142333984375,0.5946502685546875,-0.6295318603515625
0.13140869140625,0.604095458984375,-0.6988677978515625
0.12652587890625,0.6049346923828125,-0.7679290771484375
0.1187591552734375,0.6632537841796875,-0.8449249267578125
0.13629150390625,0.7921142578125,-0.9456634521484376
0.181671142578125,0.772369384765625,-0.8928375244140625
0.1976318359375,0.6353912353515625,-0.8124237060546875
0.1795806884765625,0.627960205078125,-0.8336334228515625
0.193115234375,0.5086517333984375,-0.81182861328125
0.2001190185546875,0.4078521728515625,-0.769561767578125
0.17254638671875,0.4424285888671875,-0.759246826171875
0.1917877197265625,0.64471435546875,-0.818328857421875
0.302947998046875,0.787384033203125,-0.8386077880859375
0.3954620361328125,0.6697845458984375,-0.7515411376953125
0.428436279296875,0.4990081787109375,-0.7353057861328125
0.36639404296875,0.5103302001953125,-0.804962158203125
0.349334716796875,0.627410888671875,-0.8225555419921875
0.3984527587890625,0.65478515625,-0.7641143798828125
0.3604736328125,0.6168212890625,-0.7762603759765625
0.3015289306640625,0.579620361328125,-0.80767822265625
0.2635498046875,0.6154022216796875,-0.799560546875
0.2770538330078125,0.6695709228515625,-0.750335693359375
0.3092041015625,0.68701171875,-0.698883056640625
0.314300537109375,0.682952880859375,-0.69921875
0.29241943359375,0.651275634765625,-0.7341156005859375
0.272796630859375,0.6424407958984375,-0.718597412109375
0.2501678466796875,0.666595458984375,-0.6793975830078125
0.2321014404296875,0.677825927734375,-0.65045166015625
0.210479736328125,0.6653594970703125,-0.63623046875
0.2054901123046875,0.66326904296875,-0.6473846435546875
0.21002197265625,0.7975616455078125,-0.758514404296875
0.2247467041015625,0.66876220703125,-0.7237396240234375
0.251007080078125,0.6013031005859375,-0.7960052490234375
0.2252349853515625,0.624176025390625,-0.837982177734375
0.22369384765625,0.6253509521484375,-0.7933349609375
0.269744873046875,0.6218719482421875,-0.7576904296875
0.2702789306640625,0.571685791015625,-0.70440673828125
0.25701904296875,0.4920806884765625,-0.7158966064453125
0.254608154296875,0.63848876953125,-0.8512725830078125
0.2786407470703125,0.7147216796875,-0.889129638671875
0.337646484375,0.6302032470703125,-0.9182891845703124
0.3631134033203125,0.5031585693359375,-0.8937225341796875
0.3470306396484375,0.492095947265625,-0.8390655517578125
0.34637451171875,0.61700439453125,-0.7274169921875
0.38037109375,0.6840057373046875,-0.65625
0.395751953125,0.69171142578125,-0.63946533203125
0.4197845458984375,0.6503143310546875,-0.6757354736328125
0.419677734375,0.6299591064453125,-0.7060394287109375
0.4200439453125,0.6425018310546875,-0.7333526611328125
0.425140380859375,0.64532470703125,-0.74029541015625
0.417510986328125,0.6674346923828125,-0.71588134765625
0.38275146484375,0.692535400390625,-0.6725006103515625
0.3469390869140625,0.6960906982421875,-0.656890869140625
0.30419921875,0.68756103515625,-0.6402740478515625
0.27313232421875,0.8084564208984375,-0.714630126953125
0.242279052734375,0.839813232421875,-0.6953125
0.2840118408203125,0.6817169189453125,-0.642791748046875
0.2777862548828125,0.5739593505859375,-0.6883087158203125
0.228759765625,0.4549560546875,-0.7276153564453125
0.2022857666015625,0.4091644287109375,-0.787628173828125
0.215972900390625,0.644561767578125,-0.8681793212890625
0.31829833984375,0.8090057373046875,-0.8376312255859375
0.3806915283203125,0.708709716796875,-0.718109130859375
0.3733978271484375,0.5750885009765625,-0.6499176025390625
0.29144287109375,0.5845489501953125,-0.686065673828125
0.24847412109375,0.6461181640625,-0.702117919921875
0.2976226806640625,0.6435089111328125,-0.6662139892578125
0.3205718994140625,0.6246490478515625,-0.6767730712890625
0.292816162109375,0.6068878173828125,-0.7661895751953125
0.281036376953125,0.581329345703125,-0.85296630859375
0.272674560546875,0.5743560791015625,-0.8597869873046875
0.275665283203125,0.5799560546875,-0.843170166015625
0.272003173828125,0.577362060546875,-0.8296661376953125
0.2786102294921875,0.56268310546875,-0.789581298828125
0.277313232421875,0.5694122314453125,-0.7512969970703125
0.281402587890625,0.58416748046875,-0.732147216796875
0.30035400390625,0.599700927734375,-0.718505859375
0.3019866943359375,0.5827789306640625,-0.691558837890625
0.28948974609375,0.58074951171875,-0.7083740234375
0.28802490234375,0.6726531982421875,-0.8006134033203125
0.2952880859375,0.722900390625,-0.8235015869140625
0.33355712890625,0.66387939453125,-0.7972564697265625
0.3335113525390625,0.6570587158203125,-0.783966064453125
0.321533203125,0.5215606689453125,-0.692657470703125
0.3183441162109375,0.4661407470703125,-0.62567138671875
0.3082427978515625,0.6515045166015625,-0.6920623779296875
0.339569091796875,0.717529296875,-0.784393310546875
0.399383544921875,0.695953369140625,-0.7926177978515625
0.44635009765625,0.651824951171875,-0.70416259765625
0.504150390625,0.5802459716796875,-0.7139129638671875
0.516815185546875,0.5886993408203125,-0.79840087890625
0.5467376708984375,0.5834808349609375,-0.8387298583984375
0.558746337890625,0.587921142578125,-0.867919921875
0.5517120361328125,0.6035919189453125,-0.880615234375
0.5470428466796875,0.617767333984375,-0.879058837890625
0.5545196533203125,0.653045654296875,-0.8614654541015625
0.48809814453125,0.6357421875,-0.80859375
0.4169769287109375,0.593780517578125,-0.75115966796875
0.3601226806640625,0.5523681640625,-0.7101287841796875
0.305023193359375,0.5331878662109375,-0.6602935791015625
0.3554840087890625,0.3897552490234375,-0.706268310546875
0.459716796875,0.222259521484375,-0.8417816162109375
0.5883636474609375,0.146331787109375,-0.946258544921875
0.7917938232421875,0.09326171875,-0.926025390625
0.7630157470703125,0.0180816650390625,-1.0184326171875
0.8995361328125,-0.0307464599609375,-1.0189208984375
0.7100372314453125,0.05511474609375,-0.9294586181640624
0.5224609375,0.0002288818359375,-0.891082763671875
0.3423919677734375,-0.0587005615234375,-0.607330322265625
0.818206787109375,-0.574127197265625,0.410400390625
0.2701568603515625,-0.1076812744140625,-0.6325225830078125
0.255035400390625,-0.0140533447265625,-0.83563232421875
0.224853515625,0.018951416015625,-0.81231689453125
0.2013702392578125,0.081573486328125,-0.8447418212890625
-0.03131103515625,0.0642852783203125,-0.92047119140625
0.003753662109375,0.0846405029296875,-1.1165924072265625
-0.031707763671875,0.042266845703125,-1.072021484375
-0.104766845703125,-0.0140228271484375,-1.1151275634765625
-0.018585205078125,-0.0358428955078125,-1.043121337890625
0.0648193359375,-0.0960235595703125,-1.00830078125
0.0648651123046875,-0.09619140625,-1.0052337646484375
0.0736541748046875,-0.0998687744140625,-1.04107666015625
0.0758056640625,-0.14849853515625,-1.040618896484375
0.033233642578125,-0.178955078125,-1.0550384521484375
-0.0502471923828125,-0.1451568603515625,-1.0103912353515625
-0.0997161865234375,-0.177337646484375,-0.8961181640625
-0.12445068359375,-0.2459716796875,-0.8513641357421875
-0.1032257080078125,-0.29522705078125,-0.850189208984375
-0.125030517578125,-0.3056793212890625,-0.8658599853515625
-0.1350555419921875,-0.2805938720703125,-0.8551788330078125
-0.09564208984375,-0.274993896484375,-0.8816986083984375
-0.0933074951171875,-0.2890167236328125,-0.959991455078125
-0.069122314453125,-0.2943267822265625,-1.0280303955078125
-0.0301971435546875,-0.3280487060546875,-1.016845703125
-0.0233917236328125,-0.3406219482421875,-1.006988525390625
-0.053009033203125,-0.2574615478515625,-1.0509185791015625
-0.07049560546875,-0.2561187744140625,-1.016693115234375
0.011016845703125,-0.2241363525390625,-0.956695556640625
0.0659942626953125,-0.2177734375,-0.8694000244140625
0.10137939453125,-0.18218994140625,-0.9437255859375
0.1408843994140625,-0.19573974609375,-0.947418212890625
0.15570068359375,-0.073028564453125,-1.00439453125
0.1737213134765625,-0.1057586669921875,-1.037689208984375
0.1530303955078125,-0.0480804443359375,-1.0528717041015625
0.07086181640625,-0.096893310546875,-1.082611083984375
-0.040740966796875,0.0545806884765625,-1.1096038818359375
0.3378753662109375,-0.114990234375,-1.206146240234375
0.0984039306640625,-0.212799072265625,-0.7758026123046875
0.1057586669921875,-0.2222137451171875,-0.9771270751953124
0.17559814453125,-0.134521484375,-1.041351318359375
0.2178497314453125,-0.2842864990234375,-0.98236083984375
0.24530029296875,-0.1796417236328125,-0.9016265869140624
0.3120574951171875,-0.1683197021484375,-1.03466796875
0.2711944580078125,-0.1431884765625,-1.163970947265625
0.165435791015625,-0.15380859375,-0.94598388671875
0.1548614501953125,-0.3567962646484375,-0.8537750244140625
0.29168701171875,-0.4705963134765625,-0.8240966796875
0.33050537109375,-0.3030853271484375,-0.6634368896484375
0.4002532958984375,-0.06390380859375,-0.9117431640625
0.308624267578125,-0.0210418701171875,-0.96844482421875
0.340240478515625,-0.0100250244140625,-0.8953094482421875
0.362091064453125,-0.109588623046875,-0.8790283203125
0.5774688720703125,-0.067352294921875,-0.8531036376953125
0.5753021240234375,-0.05908203125,-0.779541015625
0.6733856201171875,0.030303955078125,-0.8991546630859375
0.5708465576171875,0.0413970947265625,-0.82757568359375
0.5142669677734375,0.0754241943359375,-0.8513641357421875
0.3587646484375,0.1466522216796875,-0.88568115234375
0.2885284423828125,0.1902618408203125,-0.914581298828125
0.17132568359375,0.32568359375,-0.8346405029296875
0.159027099609375,0.3224639892578125,-0.83819580078125
0.1405487060546875,0.233642578125,-0.877716064453125
0.224273681640625,0.2135162353515625,-0.9078826904296876
0.217315673828125,0.3201751708984375,-0.9739837646484376
0.2532958984375,0.3782196044921875,-1.135650634765625
0.3184356689453125,0.381103515625,-1.224609375
0.334930419921875,0.1847381591796875,-0.9824981689453124
0.20965576171875,0.13031005859375,-0.9664306640625
0.1287078857421875,0.126861572265625,-1.041290283203125
0.17437744140625,0.1566619873046875,-1.199127197265625
0.2511749267578125,0.0675201416015625,-1.067047119140625
0.224822998046875,0.001800537109375,-1.0314483642578125
0.1562042236328125,-0.01165771484375,-1.0652923583984375
0.1240081787109375,-0.02301025390625,-1.052490234375
0.1576995849609375,-0.0510406494140625,-1.0343017578125
0.1334991455078125,0.00067138671875,-1.011688232421875
0.1360931396484375,0.031005859375,-0.9898529052734376
0.155120849609375,0.0703582763671875,-0.9839019775390624
0.161346435546875,0.0888671875,-1.000823974609375
0.1873931884765625,0.1593170166015625,-1.048675537109375
0.2631378173828125,0.2862701416015625,-1.23028564453125
0.2591400146484375,0.1638031005859375,-1.0257568359375
0.267242431640625,0.171905517578125,-1.1115875244140625
0.2722930908203125,0.22503662109375,-1.08624267578125
0.305999755859375,0.179595947265625,-0.901275634765625
0.3049163818359375,0.1784515380859375,-0.804046630859375
0.266448974609375,0.33258056640625,-0.962371826171875
0.26068115234375,0.40753173828125,-1.05499267578125
0.3541259765625,0.3281402587890625,-1.020477294921875
0.37200927734375,0.267303466796875,-0.9234619140625
0.332366943359375,0.2169342041015625,-0.9040985107421876
0.274200439453125,0.244781494140625,-0.9526824951171876
0.249267578125,0.266357421875,-0.9863128662109376
0.262542724609375,0.27587890625,-0.9553375244140624
0.2316741943359375,0.2686920166015625,-0.91217041015625
0.16473388671875,0.2273406982421875,-0.877593994140625
0.1130828857421875,0.1938323974609375,-0.88568115234375
0.072174072265625,0.17010498046875,-0.9113616943359376
-0.0150299072265625,0.175323486328125,-0.9666900634765624
0.0572357177734375,0.1324005126953125,-0.917388916015625
0.02581787109375,0.206024169921875,-0.9344482421875
0.00543212890625,0.1724395751953125,-0.9519805908203124
0.0137939453125,0.239532470703125,-1.160888671875
0.0627593994140625,0.2623748779296875,-1.2021942138671875
0.1273193359375,0.2123260498046875,-1.069244384765625
0.1066741943359375,0.1327667236328125,-0.9016265869140624
0.0727996826171875,0.0735321044921875,-0.7837066650390625
0.0821990966796875,0.078521728515625,-0.8195037841796875
0.150299072265625,0.2611083984375,-1.0166168212890625
0.2305755615234375,0.3614959716796875,-1.0467681884765625
0.2546234130859375,0.3287200927734375,-0.9841766357421876
0.197601318359375,0.2775421142578125,-0.9555206298828124
0.14984130859375,0.2256317138671875,-0.981170654296875
0.13201904296875,0.2607574462890625,-1.0358123779296875
0.1221160888671875,0.267059326171875,-0.9996337890625
0.08087158203125,0.24237060546875,-0.9421234130859376
0.0378875732421875,0.2393951416015625,-0.9113616943359376
-0.10491943359375,0.2662353515625,-1.0514373779296875
-0.06671142578125,0.1890869140625,-1.135009765625
0.02545166015625,0.1975555419921875,-1.0768280029296875
0.0264892578125,0.2600860595703125,-1.0333251953125
0.025054931640625,0.248443603515625,-0.97625732421875
0.032501220703125,0.2947998046875,-0.9972381591796876
0.0135345458984375,0.4232940673828125,-1.064788818359375
0.0524139404296875,0.2876739501953125,-0.979766845703125
0.1291656494140625,0.27618408203125,-0.957183837890625
0.1851959228515625,0.383270263671875,-0.986175537109375
0.2440338134765625,0.4797821044921875,-1.0211334228515625
0.3010101318359375,0.44000244140625,-0.9061126708984376
0.2860870361328125,0.39361572265625,-0.899658203125
0.257110595703125,0.381500244140625,-0.9670562744140624
0.2255096435546875,0.3468475341796875,-0.9751434326171876
0.223541259765625,0.2742767333984375,-0.94061279296875
0.179412841796875,0.3033447265625,-1.007049560546875
0.1256561279296875,0.31243896484375,-0.98553466796875
0.1131134033203125,0.245361328125,-0.9560394287109376
0.0302276611328125,0.302947998046875,-0.9947967529296876
-0.0022125244140625,0.292022705078125,-0.9373016357421876
0.0099334716796875,0.28936767578125,-0.977081298828125
-0.0182647705078125,0.4274749755859375,-1.137054443359375
0.0335540771484375,0.2664947509765625,-0.88250732421875
0.0626373291015625,0.1518096923828125,-0.8017578125
-0.0215606689453125,0.233123779296875,-0.95501708984375
0.0091400146484375,0.2414398193359375,-0.9767303466796876
0.093353271484375,0.2518768310546875,-0.9008941650390624
0.1248779296875,0.2929840087890625,-0.852020263671875
0.1141510009765625,0.2604217529296875,-0.907470703125
0.1491851806640625,0.1841888427734375,-0.992156982421875
0.1532440185546875,0.2023773193359375,-1.056854248046875
0.1680145263671875,0.1652069091796875,-1.034210205078125
0.17315673828125,0.1151580810546875,-1.0059661865234375
0.1285858154296875,0.1240386962890625,-1.0023956298828125
0.1024627685546875,0.12860107421875,-0.98663330078125
0.114288330078125,0.1411285400390625,-0.9613037109375
0.109405517578125,0.168121337890625,-0.9528961181640624
0.083740234375,0.1620941162109375,-0.9353485107421876
0.0803375244140625,0.159393310546875,-0.9664306640625
0.094390869140625,0.186065673828125,-1.0244903564453125
0.1390380859375,0.169158935546875,-1.0596466064453125
0.18536376953125,0.2474212646484375,-1.24688720703125
0.214874267578125,0.17205810546875,-1.2279205322265625
0.286651611328125,0.0994110107421875,-1.20257568359375
0.3161468505859375,0.2066497802734375,-1.2027587890625
0.3380126953125,0.1266937255859375,-0.8924713134765625
0.3486175537109375,0.2306671142578125,-0.94195556640625
0.30877685546875,0.395172119140625,-1.105377197265625
0.3615570068359375,0.3784332275390625,-1.1959686279296875
0.446136474609375,0.31610107421875,-1.1320037841796875
0.4721832275390625,0.3302459716796875,-0.9873504638671876
0.404632568359375,0.3824615478515625,-0.9246826171875
0.33721923828125,0.3685150146484375,-0.8945465087890625
0.313018798828125,0.3283843994140625,-0.8404388427734375
0.2672271728515625,0.325592041015625,-0.77899169921875
0.20880126953125,0.3265228271484375,-0.768157958984375
0.154754638671875,0.2986602783203125,-0.7836456298828125
0.1071624755859375,0.2617340087890625,-0.8327178955078125
0.0670318603515625,0.2314453125,-0.8982696533203125
-0.0144195556640625,0.1849212646484375,-0.9616546630859376
-0.083343505859375,0.1505889892578125,-0.999298095703125
-0.0987396240234375,0.1462860107421875,-1.0563201904296875
0.028472900390625,0.254547119140625,-1.3453216552734375
0.1941680908203125,0.3773651123046875,-1.49969482421875
0.2347412109375,0.220062255859375,-1.2111968994140625
0.118255615234375,0.0435791015625,-1.048095703125
0.016632080078125,-0.2379150390625,-0.8715972900390625
0.0338287353515625,-0.1751556396484375,-0.871002197265625
0.16204833984375,0.1486663818359375,-1.041656494140625
0.3067474365234375,0.3862152099609375,-1.190887451171875
0.3535614013671875,0.341888427734375,-1.060943603515625
0.3018798828125,0.2034759521484375,-0.9340667724609376
0.221038818359375,0.147705078125,-0.9128875732421876
0.200531005859375,0.2313232421875,-0.9537506103515624
0.2602996826171875,0.3360595703125,-0.9711151123046876
0.3000030517578125,0.3358917236328125,-0.9920806884765624
0.2793121337890625,0.307373046875,-1.0228271484375
0.247894287109375,0.2649078369140625,-1.04296875
0.2400970458984375,0.260498046875,-1.0163116455078125
0.2369384765625,0.283477783203125,-0.9704742431640624
0.2084197998046875,0.2687530517578125,-0.9035797119140624
0.1695556640625,0.2546844482421875,-0.8489532470703125
0.128204345703125,0.2796173095703125,-0.8359375
0.1164093017578125,0.3038787841796875,-0.8421478271484375
0.101226806640625,0.307891845703125,-0.843994140625
0.0938720703125,0.26336669921875,-0.8819122314453125
0.07196044921875,0.225341796875,-0.915435791015625
0.058837890625,0.198516845703125,-0.9507293701171876
0.0411834716796875,0.134765625,-0.978668212890625
0.029052734375,0.1100006103515625,-1.0430908203125
0.142791748046875,0.290374755859375,-1.38623046875
0.1997222900390625,0.131591796875,-1.1804656982421875
0.206329345703125,-0.0528564453125,-1.07757568359375
0.1956939697265625,0.1048583984375,-1.1934967041015625
0.2890167236328125,0.1531524658203125,-1.0794830322265625
0.36834716796875,0.1904449462890625,-1.035980224609375
0.3766937255859375,0.2574920654296875,-1.0348052978515625
0.3911895751953125,0.2925262451171875,-1.046173095703125
0.40350341796875,0.3033294677734375,-1.0481109619140625
0.402923583984375,0.2939910888671875,-1.0302734375
0.4164581298828125,0.2918548583984375,-1.062957763671875
0.4603424072265625,0.276275634765625,-1.11676025390625
0.558074951171875,0.2681732177734375,-1.116607666015625
0.80084228515625,0.1049652099609375,-1.07000732421875
0.781494140625,0.1835479736328125,-0.984619140625
0.6383056640625,0.222076416015625,-0.9421539306640624
0.6256866455078125,0.1703643798828125,-0.920928955078125
0.5843353271484375,0.136505126953125,-0.9195404052734376
0.5060882568359375,0.1087188720703125,-0.959503173828125
0.4926300048828125,0.071685791015625,-0.9462432861328124
0.445831298828125,0.0733184814453125,-0.8797149658203125
0.3982696533203125,0.124755859375,-1.002288818359375
0.33746337890625,0.15924072265625,-1.12286376953125
0.359588623046875,0.1849517822265625,-1.1307220458984375
0.2974395751953125,0.1971893310546875,-1.140350341796875
0.247100830078125,0.1984100341796875,-1.184356689453125
0.16094970703125,0.264190673828125,-1.20550537109375
0.0529632568359375,0.3001556396484375,-1.30975341796875
-0.0660858154296875,0.3862762451171875,-1.3379058837890625
-0.0266265869140625,0.285400390625,-1.272857666015625
-0.0016632080078125,0.255584716796875,-1.244415283203125
-0.037750244140625,0.2042236328125,-1.139434814453125
-0.0665435791015625,0.2033233642578125,-1.0321502685546875
-0.0826263427734375,0.2164154052734375,-0.9114532470703124
-0.0983734130859375,0.2286224365234375,-0.8216705322265625
-0.08453369140625,0.2172393798828125,-0.7753753662109375
-0.04205322265625,0.1591949462890625,-0.824371337890625
-0.0054473876953125,0.0939788818359375,-0.8699493408203125
0.085693359375,-0.0597686767578125,-0.96942138671875
0.157073974609375,-0.1231842041015625,-0.983551025390625
0.1471710205078125,-0.0938873291015625,-0.97259521484375
0.236114501953125,-0.092498779296875,-0.939483642578125
0.267242431640625,-0.0936431884765625,-0.9186248779296876
0.2966461181640625,-0.064239501953125,-0.918914794921875
0.3423309326171875,-0.084716796875,-0.99853515625
0.39886474609375,0.0761260986328125,-1.161407470703125
0.45068359375,0.0273284912109375,-1.0277099609375
0.4285430908203125,0.01373291015625,-0.9795989990234376
0.3973236083984375,0.014373779296875,-0.901397705078125
0.3629608154296875,-0.0269775390625,-0.8589630126953125
0.3274383544921875,0.02752685546875,-0.875030517578125
0.3355560302734375,0.1951751708984375,-1.0561676025390625
0.404876708984375,0.33880615234375,-1.154754638671875
0.4483795166015625,0.2785797119140625,-1.034515380859375
0.3725738525390625,0.21795654296875,-0.9373779296875
0.3296356201171875,0.1710662841796875,-0.862091064453125
0.32159423828125,0.201995849609375,-0.919097900390625
0.3217010498046875,0.2001953125,-0.9647674560546876
0.3669891357421875,0.20391845703125,-0.964080810546875
0.3909454345703125,0.212005615234375,-0.9668731689453124
0.4134368896484375,0.2125701904296875,-0.96649169921875
0.4250640869140625,0.2250823974609375,-1.0523223876953125
0.4550628662109375,0.21588134765625,-1.045166015625
0.4722747802734375,0.20074462890625,-0.993408203125
0.48712158203125,0.1908721923828125,-0.9574127197265624
0.492034912109375,0.18170166015625,-0.937713623046875
0.4758758544921875,0.148345947265625,-0.8467559814453125
0.47027587890625,0.128692626953125,-0.903167724609375
0.4329681396484375,-0.020843505859375,-1.0167999267578125
0.3379974365234375,-0.069671630859375,-1.1687164306640625
0.2822113037109375,-0.024139404296875,-1.136322021484375
0.2247314453125,-0.029388427734375,-0.999176025390625
0.10797119140625,-0.048919677734375,-1.0287322998046875
0.0808868408203125,-0.0783843994140625,-1.0942535400390625
0.178375244140625,-0.153228759765625,-1.088348388671875
0.205841064453125,-0.2046966552734375,-1.1464691162109375
0.1981658935546875,-0.244354248046875,-1.218994140625
0.267822265625,-0.264068603515625,-1.191375732421875
0.252166748046875,-0.3162994384765625,-1.014617919921875
0.23876953125,-0.2628326416015625,-1.1446075439453125
0.31072998046875,-0.1772308349609375,-1.198333740234375
0.3230438232421875,-0.118377685546875,-1.230316162109375
0.313995361328125,-0.0841064453125,-1.2852325439453125
0.30023193359375,-0.0425262451171875,-1.269134521484375
0.211029052734375,0.14947509765625,-1.0403900146484375
0.012359619140625,-0.0030059814453125,-0.014251708984375
0.0040130615234375,-0.00286865234375,-0.01007080078125
0.004119873046875,-0.0030670166015625,-0.016082763671875
0.0048828125,-0.0046234130859375,-0.0255126953125
0.0049285888671875,-0.0049285888671875,-0.036041259765625
0.0056915283203125,-0.006317138671875,-0.04376220703125
0.0048370361328125,-0.0064239501953125,-0.049591064453125
0.0063323974609375,-0.0032196044921875,-0.05029296875
0.0082244873046875,-0.00421142578125,-0.066680908203125
2.8757781982421875,-2.783187866210937,-8.023956298828125
-0.1379547119140625,-0.063018798828125,-2.708404541015625
0.110137939453125,-0.00128173828125,-0.546417236328125
0.0123748779296875,-0.3022918701171875,-0.25872802734375
-0.0247039794921875,-0.524566650390625,-0.5631561279296875
0.0292816162109375,-0.6811676025390625,-1.043548583984375
0.093963623046875,-0.3669586181640625,-0.9529876708984376
0.0499267578125,-0.31866455078125,-0.9191131591796876
0.0552520751953125,-0.426727294921875,-0.919342041015625
0.04815673828125,-0.3608245849609375,-0.9279022216796876
0.0587310791015625,-0.4051971435546875,-0.924652099609375
0.0517120361328125,-0.372406005859375,-0.927642822265625
0.0572967529296875,-0.395263671875,-0.9252777099609376
0.054290771484375,-0.378204345703125,-0.928192138671875
0.05621337890625,-0.3906402587890625,-0.9263916015625
0.0548095703125,-0.38287353515625,-0.925628662109375
0.0558624267578125,-0.3859100341796875,-0.9267425537109376
0.0565185546875,-0.385650634765625,-0.9266357421875
0.0545654296875,-0.3870391845703125,-0.9244232177734376
0.0589141845703125,-0.3920135498046875,-0.9252471923828124
0.0512847900390625,-0.3800506591796875,-0.925262451171875
0.054290771484375,-0.3875885009765625,-0.9217376708984376
0.054656982421875,-0.38140869140625,-0.9257965087890624
0.054046630859375,-0.3891143798828125,-0.925201416015625
0.0544586181640625,-0.3830718994140625,-0.9262847900390624
0.0546722412109375,-0.38812255859375,-0.92645263671875
0.05511474609375,-0.3849945068359375,-0.926239013671875
0.053375244140625,-0.3817596435546875,-0.9256439208984376
0.0605010986328125,-0.382049560546875,-0.92889404296875
0.0586395263671875,-0.3827667236328125,-0.8918914794921875
0.0677642822265625,-0.3792877197265625,-0.9200897216796876
0.0740814208984375,-0.3846893310546875,-0.9390106201171876
0.1101531982421875,-0.3949432373046875,-0.9500732421875
0.0883941650390625,-0.4268646240234375,-0.9193878173828124
0.0815887451171875,-0.375213623046875,-0.92291259765625
0.0822296142578125,-0.402862548828125,-0.916290283203125
0.083770751953125,-0.386688232421875,-0.9163665771484376
0.085540771484375,-0.398406982421875,-0.921661376953125
0.086395263671875,-0.3935394287109375,-0.91656494140625
0.0883026123046875,-0.39373779296875,-0.92230224609375
0.09063720703125,-0.3962554931640625,-0.9215087890625
0.086517333984375,-0.3834075927734375,-0.9077606201171876
0.087310791015625,-0.3937530517578125,-0.9129638671875
0.10107421875,-0.4132843017578125,-0.9271392822265624
0.11041259765625,-0.404815673828125,-0.9113616943359376
0.1015625,-0.3953857421875,-0.9143524169921876
0.1096343994140625,-0.392547607421875,-0.9158477783203124
0.1085662841796875,-0.3993682861328125,-0.9124908447265624
0.1166839599609375,-0.4081573486328125,-0.91790771484375
0.1072235107421875,-0.4028472900390625,-0.91070556640625
0.1172943115234375,-0.4042816162109375,-0.91717529296875
0.1202850341796875,-0.41156005859375,-0.9180908203125
0.11712646484375,-0.3971405029296875,-0.910186767578125
0.1195526123046875,-0.403076171875,-0.9116363525390624
0.12359619140625,-0.4085235595703125,-0.9174652099609376
0.124114990234375,-0.408050537109375,-0.9066162109375
0.1250152587890625,-0.407470703125,-0.9121551513671876
0.124969482421875,-0.400421142578125,-0.899505615234375
0.1295166015625,-0.410980224609375,-0.904022216796875
