AccelerationX,AccelerationY,AccelerationZ
-0.0572967529296875,-0.3002166748046875,-0.869964599609375
0.1042022705078125,-0.3767242431640625,-1.0720062255859375
0.1997528076171875,-0.5099029541015625,-0.977325439453125
0.249755859375,-0.381866455078125,-0.927825927734375
0.219757080078125,-0.3694915771484375,-0.9561614990234376
0.1951446533203125,-0.322479248046875,-0.7852630615234375
0.1697998046875,-0.3558807373046875,-0.98944091796875
0.05255126953125,-0.4009552001953125,-0.8079986572265625
0.0598297119140625,-0.280120849609375,-1.0289154052734375
-0.039337158203125,-0.35894775390625,-0.799896240234375
-0.2367706298828125,-0.1608123779296875,-0.87713623046875
-0.11810302734375,-0.20404052734375,-0.7461700439453125
-0.1952667236328125,-0.441436767578125,-0.530792236328125
-0.346466064453125,-0.1398773193359375,-0.56884765625
-0.479278564453125,-0.31036376953125,-0.4835205078125
-0.556671142578125,-0.22882080078125,-0.397125244140625
-0.6800384521484375,-0.253326416015625,-0.3448028564453125
-0.75860595703125,-0.4228363037109375,-0.3438873291015625
-0.8268890380859375,-0.42657470703125,-0.61993408203125
-1.056976318359375,-0.249755859375,-0.8536376953125
-1.518707275390625,0.2844390869140625,-0.714508056640625
-1.4452667236328125,0.00787353515625,-0.9058074951171876
-1.4332733154296875,-0.164154052734375,-0.8423614501953125
-1.634246826171875,-0.6913604736328125,-0.8215179443359375
-1.646636962890625,-1.137298583984375,-0.9447021484375
-0.895721435546875,-1.349853515625,-0.4083251953125
-0.304443359375,-1.199310302734375,-0.2066497802734375
0.15594482421875,-1.0221405029296875,0.166412353515625
-0.0277099609375,-0.7038116455078125,-0.1078033447265625
-0.2463226318359375,-0.6239471435546875,-0.21624755859375
-1.060211181640625,-0.9150543212890624,-0.29229736328125
-1.988739013671875,-1.111785888671875,0.2396087646484375
-2.6247100830078125,-1.54351806640625,0.1044769287109375
-3.2314453125,-1.23193359375,0.396148681640625
-2.319976806640625,-0.875396728515625,0.2588348388671875
-1.0463714599609375,-0.021087646484375,0.1464996337890625
-0.4309844970703125,0.1838531494140625,-0.3854217529296875
-0.3640594482421875,0.2931365966796875,-0.134063720703125
-0.16925048828125,0.441986083984375,0.0565338134765625
0.05596923828125,0.309539794921875,0.1499786376953125
0.11138916015625,0.30548095703125,0.4345703125
0.2478179931640625,0.1079559326171875,0.220855712890625
-0.40228271484375,0.136016845703125,0.047027587890625
-1.47344970703125,-0.0543670654296875,-0.4992218017578125
-2.361236572265625,-0.539703369140625,-1.5190887451171875
-2.469833374023437,-0.72674560546875,-1.0330810546875
-1.526031494140625,-0.86328125,-0.44927978515625
-0.8597259521484375,-0.874267578125,-0.8636474609375
-0.641937255859375,-0.959747314453125,-1.244415283203125
-0.2160797119140625,-1.1879730224609375,-1.089447021484375
-0.1408233642578125,-1.1623382568359375,-0.783294677734375
-0.2178802490234375,-0.8620452880859375,-0.9145965576171876
-0.5779571533203125,-0.6178741455078125,-0.9082183837890624
-0.79364013671875,-0.4809417724609375,-0.998016357421875
-0.7056884765625,-0.6446533203125,-1.1703033447265625
-0.84930419921875,-0.784149169921875,-1.6936492919921875
-1.269378662109375,-0.732177734375,-1.83984375
-0.75274658203125,-0.2866058349609375,-1.10723876953125
-0.1233673095703125,0.20611572265625,-0.637786865234375
0.207672119140625,0.85662841796875,0.035064697265625
0.250244140625,1.0538330078125,0.226531982421875
-0.123809814453125,1.2053375244140625,0.235595703125
-0.40509033203125,1.1674346923828125,0.2675323486328125
-0.8119049072265625,0.8284454345703125,0.7110595703125
-1.4495391845703125,0.54290771484375,0.9637298583984376
-2.611572265625,-0.28680419921875,0.5723724365234375
-4.1406097412109375,-1.202056884765625,0.36181640625
-4.1210784912109375,-1.882904052734375,0.3305816650390625
-2.1588897705078125,-1.7889556884765625,-0.5040435791015625
-1.073455810546875,-1.3709564208984375,-0.183929443359375
-0.4326934814453125,-1.05694580078125,-0.1304931640625
-0.3299560546875,-0.7108917236328125,-0.1906890869140625
-0.1524505615234375,-0.5391845703125,-0.0599365234375
-0.0710906982421875,-0.530670166015625,-0.0821380615234375
-0.481597900390625,-0.7093048095703125,-0.172882080078125
-0.593109130859375,-0.76153564453125,-0.4434967041015625
-1.4767303466796875,-1.1793365478515625,-1.3616485595703125
-3.6409759521484375,-1.8721771240234373,-1.193084716796875
-3.782440185546875,-1.3175506591796875,-0.259063720703125
-1.853363037109375,-0.2108306884765625,-0.00933837890625
-0.41253662109375,0.38421630859375,0.035400390625
0.0103912353515625,0.7063751220703125,0.214935302734375
0.174957275390625,0.5828704833984375,0.3044891357421875
0.0530853271484375,0.489105224609375,0.126312255859375
0.03265380859375,0.3878326416015625,0.0410614013671875
-0.0552520751953125,0.268798828125,0.04461669921875
-0.453887939453125,0.233062744140625,0.1466217041015625
-1.620361328125,0.174713134765625,0.5108184814453125
-3.9650726318359375,-0.259002685546875,1.0828857421875
-3.358673095703125,-0.943267822265625,0.597076416015625
-1.9535064697265625,-1.2774505615234375,0.043060302734375
-1.013458251953125,-1.2886505126953125,-0.181396484375
-0.2903594970703125,-1.3248291015625,-0.44976806640625
0.0135650634765625,-1.175872802734375,-0.575408935546875
0.076019287109375,-0.9719696044921876,-0.494415283203125
0.06756591796875,-0.9600067138671876,-0.361297607421875
-0.3545684814453125,-0.8839874267578125,-0.245880126953125
-1.0360565185546875,-1.0122833251953125,-0.0764007568359375
-2.5667877197265625,-1.3619384765625,0.096893310546875
-3.4718170166015625,-1.451385498046875,0.009490966796875
-2.4978790283203125,-1.0683135986328125,0.6571044921875
-1.2356414794921875,0.036346435546875,0.8352203369140625
-0.0226287841796875,0.8079681396484375,0.23223876953125
0.30596923828125,0.711273193359375,0.3489227294921875
0.214447021484375,0.710968017578125,0.4721527099609375
0.0016937255859375,0.6144561767578125,0.3486175537109375
-0.3644866943359375,0.5135955810546875,0.248992919921875
-1.14129638671875,-0.02288818359375,0.2755126953125
-2.8681182861328125,-0.9467926025390624,0.533477783203125
-2.94073486328125,-1.34991455078125,0.4518585205078125
-1.9605712890625,-1.21600341796875,-0.0135040283203125
-1.621551513671875,-1.382232666015625,0.1450042724609375
-1.003204345703125,-1.2419281005859375,0.081146240234375
-0.4823455810546875,-1.1104736328125,-0.16986083984375
-0.57537841796875,-1.232269287109375,-0.098663330078125
0.262939453125,-1.2078094482421875,-0.080596923828125
0.060302734375,-1.0268402099609375,-0.278076171875
-1.0179290771484375,-0.844482421875,-0.4405059814453125
-2.1875152587890625,-1.119476318359375,-0.5368804931640625
-2.6439971923828125,-1.159637451171875,0.13641357421875
-2.4239959716796875,-0.692413330078125,0.2876434326171875
-1.669158935546875,-0.3639984130859375,0.8298492431640625
-1.0255279541015625,-0.2455291748046875,0.8428802490234375
-0.58111572265625,0.2780609130859375,0.0923614501953125
-0.2544097900390625,0.4492950439453125,-0.0391082763671875
-0.0702362060546875,0.3650360107421875,0.0073394775390625
0.101165771484375,0.4508209228515625,0.030853271484375
0.048980712890625,0.4586334228515625,0.005126953125
-0.1633453369140625,0.2995758056640625,0.16534423828125
-0.82720947265625,-0.111297607421875,0.3547821044921875
-2.1147613525390625,-0.7870941162109375,0.2729949951171875
-3.1191558837890625,-1.01300048828125,0.2446136474609375
-1.89312744140625,-1.2429351806640625,0.253570556640625
-1.7123870849609375,-1.177764892578125,0.380645751953125
-1.001312255859375,-1.141143798828125,0.107086181640625
-0.960662841796875,-1.245361328125,-0.1713714599609375
-0.3099212646484375,-1.2929840087890625,-0.2265167236328125
0.0282135009765625,-1.2121124267578125,-0.38983154296875
-0.1856842041015625,-0.96990966796875,-0.1213836669921875
-0.450103759765625,-0.7823638916015625,-0.1833648681640625
-1.0438079833984375,-0.90972900390625,-0.2505035400390625
-2.060897827148437,-1.431671142578125,-0.2856597900390625
-2.60406494140625,-2.1085205078125,-0.332763671875
-3.0697174072265625,-1.2911834716796875,-0.2122344970703125
-1.173248291015625,-0.3012542724609375,-0.18328857421875
-0.5688629150390625,0.3870697021484375,-0.0349578857421875
-0.1929779052734375,0.5863037109375,0.162322998046875
0.075775146484375,0.814483642578125,0.103729248046875
0.08087158203125,0.7917327880859375,0.0118560791015625
0.0410003662109375,0.57586669921875,0.1208953857421875
-0.1383514404296875,0.251129150390625,0.255279541015625
-1.1831817626953125,-0.1947479248046875,0.4257354736328125
-2.073333740234375,-0.8128204345703125,0.6804351806640625
-2.771102905273437,-1.3605499267578125,0.9255218505859376
-2.1707763671875,-1.40582275390625,0.6647186279296875
-1.2042083740234375,-1.28753662109375,0.3680267333984375
-0.568450927734375,-1.1285552978515625,0.0024261474609375
-0.5803070068359375,-0.996337890625,-0.0651092529296875
-0.3611297607421875,-1.0361785888671875,0.1292724609375
-0.1126708984375,-0.88348388671875,0.0438690185546875
-0.5085906982421875,-0.6411285400390625,-0.1222686767578125
-0.822265625,-0.920318603515625,-0.1642303466796875
-2.032577514648437,-1.7041015625,0.1732177734375
-2.8299713134765625,-1.5121917724609375,0.2337188720703125
-2.885498046875,-1.6437225341796875,0.631439208984375
-2.51983642578125,-0.544830322265625,0.9156036376953124
-0.9795379638671876,0.1472625732421875,0.3515777587890625
-0.320556640625,0.58685302734375,-0.172882080078125
-0.084716796875,0.6391448974609375,-0.1245269775390625
-0.1234893798828125,0.694000244140625,-0.0560760498046875
-0.0457763671875,0.5556640625,-0.05804443359375
-0.04144287109375,0.4045867919921875,0.0522003173828125
-0.1678466796875,0.2569122314453125,0.2044219970703125
-0.7738189697265625,-0.11553955078125,0.5489654541015625
-1.855438232421875,-0.88836669921875,0.702362060546875
-2.1243133544921875,-1.099517822265625,0.8271636962890625
-2.007476806640625,-1.2630767822265625,0.8798828125
-1.6623687744140625,-1.24609375,0.974151611328125
-1.179168701171875,-1.118499755859375,0.70733642578125
-0.6173248291015625,-0.9425811767578124,0.2874298095703125
-0.302459716796875,-0.826080322265625,-0.05133056640625
0.041900634765625,-0.7428436279296875,-0.248321533203125
0.092437744140625,-0.6810302734375,-0.259185791015625
-0.280181884765625,-0.8811798095703125,0.0738525390625
-1.3423004150390625,-1.35992431640625,0.204833984375
-2.503753662109375,-1.295196533203125,0.522186279296875
-2.7826385498046875,-1.27239990234375,0.696197509765625
-2.3142242431640625,-0.81097412109375,0.7626495361328125
-1.5386199951171875,-0.371063232421875,0.5382232666015625
-0.6876983642578125,0.028350830078125,0.221893310546875
-0.206451416015625,0.208282470703125,0.0531005859375
0.076385498046875,0.28289794921875,-0.01141357421875
-0.005157470703125,0.2888946533203125,0.0004425048828125
-0.0363616943359375,0.2206573486328125,0.112274169921875
0.0676422119140625,0.20062255859375,0.1185150146484375
-0.0433197021484375,0.1822662353515625,0.060791015625
-0.3192291259765625,0.1246795654296875,0.0608062744140625
-1.331024169921875,0.0486602783203125,0.289581298828125
-2.3160858154296875,-0.2828216552734375,1.0321502685546875
-2.28948974609375,-0.7141265869140625,1.3634796142578125
-2.1185302734375,-0.82708740234375,1.0975494384765625
-1.716552734375,-0.942108154296875,0.65350341796875
-1.302398681640625,-0.9781494140625,0.46514892578125
-0.8219757080078125,-0.9223175048828124,0.2591705322265625
-0.5162353515625,-0.8692169189453125,0.032012939453125
-0.2918701171875,-0.763519287109375,-0.0415191650390625
-0.1440887451171875,-0.6370849609375,-0.059967041015625
-0.11407470703125,-0.51129150390625,0.02142333984375
-0.2469635009765625,-0.6084442138671875,0.1827850341796875
-0.8874664306640625,-0.9584808349609376,0.4191436767578125
-1.6795654296875,-1.125152587890625,0.4664306640625
-2.3663482666015625,-1.5244293212890625,0.5130767822265625
-2.4517974853515625,-1.173095703125,0.5126190185546875
-1.6791229248046875,-0.862030029296875,0.456207275390625
-1.113006591796875,-0.4445953369140625,0.2590179443359375
-0.600677490234375,-0.0160369873046875,0.0688323974609375
-0.28717041015625,0.2572174072265625,-0.02252197265625
-0.1300048828125,0.42779541015625,0.02398681640625
-0.12054443359375,0.4676513671875,0.0760955810546875
-0.06097412109375,0.439239501953125,0.0926666259765625
-0.17230224609375,0.4580535888671875,0.2282562255859375
-0.2602691650390625,0.1611328125,0.1802978515625
-1.0807037353515625,-0.04498291015625,0.384613037109375
-1.7949981689453125,-0.446014404296875,0.3844451904296875
-2.6820068359375,-1.1154632568359375,0.5810546875
-2.57159423828125,-1.222320556640625,0.8287200927734375
-2.040496826171875,-1.0192108154296875,0.6616973876953125
-1.5632171630859375,-1.1381988525390625,0.3956298828125
-1.217620849609375,-1.3731689453125,0.195526123046875
-0.7697296142578125,-1.297943115234375,-0.178466796875
-0.122467041015625,-0.9721527099609376,-0.28875732421875
0.191192626953125,-0.6620025634765625,-0.131561279296875
0.0993804931640625,-0.596923828125,-0.0015411376953125
-0.2817840576171875,-0.7080535888671875,-0.0380096435546875
-1.3730926513671875,-0.91217041015625,-0.2602081298828125
-1.954742431640625,-1.465850830078125,-0.423736572265625
-3.397857666015625,-1.7479095458984375,-0.384979248046875
-2.890609741210937,-1.174102783203125,-0.5067901611328125
-1.9808349609375,-0.5668487548828125,-0.207977294921875
-1.128448486328125,-0.2095947265625,0.0081634521484375
-0.65283203125,0.2669219970703125,-0.0168914794921875
-0.2921905517578125,0.460113525390625,-0.1650848388671875
-0.1782684326171875,0.65118408203125,-0.22503662109375
-0.0499725341796875,0.6761627197265625,0.016326904296875
0.0181427001953125,0.4717559814453125,0.0589141845703125
-0.1395721435546875,0.3868408203125,-0.1959075927734375
-0.55804443359375,0.2777099609375,-0.068878173828125
-0.899139404296875,0.0555572509765625,0.124725341796875
-1.611358642578125,-0.361297607421875,0.3661041259765625
-3.23406982421875,-0.529327392578125,0.9030609130859376
-2.347396850585937,-0.5465087890625,0.6240081787109375
-1.865142822265625,-0.82806396484375,0.048065185546875
-1.6893768310546875,-0.92742919921875,0.11663818359375
-1.393218994140625,-1.157440185546875,0.0902862548828125
-0.8092803955078125,-1.266510009765625,0.071075439453125
-0.515167236328125,-1.3372955322265625,0.0391693115234375
-0.92059326171875,-1.4030609130859375,-0.0027313232421875
-1.8235626220703125,-1.1161346435546875,0.4986114501953125
-2.20751953125,-0.84478759765625,0.05621337890625
-2.648590087890625,-0.5151519775390625,-0.0049285888671875
-2.633697509765625,-0.44110107421875,-0.121307373046875
-2.2666168212890625,-0.2049407958984375,0.096221923828125
-1.364837646484375,-0.2246551513671875,0.0857391357421875
-0.793701171875,-0.0077056884765625,0.003265380859375
-0.4543914794921875,0.12799072265625,-0.2294769287109375
-0.2099761962890625,0.1786346435546875,-0.3264617919921875
-0.169097900390625,0.1979827880859375,-0.262176513671875
-0.22698974609375,0.103179931640625,-0.1937103271484375
-0.326629638671875,0.127777099609375,-0.1702423095703125
-0.2844390869140625,0.2193145751953125,-0.0226287841796875
-0.4600372314453125,0.310943603515625,0.1235809326171875
-0.871673583984375,0.2199859619140625,0.1375885009765625
-1.625213623046875,0.0599365234375,0.2789764404296875
-2.421493530273437,-0.423858642578125,0.5099945068359375
-2.2234649658203125,-0.443267822265625,0.7355499267578125
-2.064559936523437,-0.5248260498046875,0.6099853515625
-1.7925262451171875,-0.780181884765625,0.4564666748046875
-1.2843170166015625,-0.8508453369140625,0.568328857421875
-1.1405792236328125,-0.884185791015625,0.4101409912109375
-0.8712310791015625,-0.8263092041015625,0.3075408935546875
-0.6002960205078125,-0.7361602783203125,0.25830078125
-0.6553802490234375,-0.68731689453125,0.297821044921875
-1.061279296875,-0.821624755859375,0.069915771484375
-1.448272705078125,-1.0260772705078125,-0.11688232421875
-1.92376708984375,-1.02569580078125,-0.14739990234375
-1.819000244140625,-0.6895751953125,-0.1721038818359375
-2.142852783203125,-0.581573486328125,-0.302459716796875
-2.119232177734375,-0.19189453125,-0.0453338623046875
-1.71868896484375,-0.22802734375,-0.149688720703125
-1.498077392578125,0.0097808837890625,-0.027679443359375
-0.969451904296875,0.047637939453125,-0.02996826171875
-0.8057403564453125,0.1450958251953125,-0.0751800537109375
-0.5457916259765625,0.2494659423828125,-0.0580596923828125
-0.3389129638671875,0.3555145263671875,-0.0532989501953125
-0.191253662109375,0.1796875,-0.0668487548828125
-0.14422607421875,0.09918212890625,-0.037353515625
-0.2293243408203125,-0.0152130126953125,-0.0419464111328125
-0.576171875,-0.02191162109375,0.01629638671875
-1.004241943359375,0.1430511474609375,0.1918487548828125
-1.821868896484375,0.054473876953125,0.472808837890625
-2.2743377685546875,-0.206512451171875,0.504791259765625
-2.543319702148437,-0.6600341796875,0.295074462890625
-2.186920166015625,-1.0785980224609375,-0.0891876220703125
-1.7051239013671875,-1.0951080322265625,-0.029388427734375
-1.1397247314453125,-0.967987060546875,-0.027496337890625
-0.80084228515625,-0.819793701171875,0.0144805908203125
-0.65325927734375,-0.701812744140625,-0.0012664794921875
-0.6931304931640625,-0.5868988037109375,-0.1180572509765625
-0.6742706298828125,-0.495819091796875,-0.194427490234375
-0.86749267578125,-0.6150360107421875,-0.1279144287109375
-1.2271881103515625,-0.7500152587890625,-0.07781982421875
-1.235443115234375,-0.855438232421875,-0.163299560546875
-1.3089599609375,-0.941009521484375,-0.277984619140625
-1.502166748046875,-0.8527374267578125,-0.1977386474609375
-2.0431671142578125,-0.8472137451171875,-0.24603271484375
-2.472930908203125,-0.4760589599609375,0.041534423828125
-1.742279052734375,-0.439361572265625,-0.0754241943359375
-1.5480499267578125,-0.33599853515625,0.079986572265625
-1.13922119140625,-0.05609130859375,0.0829315185546875
-0.620452880859375,0.2663421630859375,-0.0876922607421875
-0.294952392578125,0.4008026123046875,-0.178192138671875
-0.1708221435546875,0.4333038330078125,-0.1511383056640625
-0.0423126220703125,0.2686920166015625,-0.044281005859375
-0.1183624267578125,0.1448211669921875,0.0292510986328125
-0.4159088134765625,-0.107147216796875,0.148681640625
-0.7575836181640625,-0.2555999755859375,0.1617584228515625
-1.1453399658203125,-0.366180419921875,0.0240325927734375
-1.4276275634765625,-0.4373016357421875,0.1007232666015625
-1.5732269287109375,-0.3757171630859375,0.4731597900390625
-1.97821044921875,-0.48712158203125,0.4378509521484375
-1.9119110107421875,-0.37139892578125,0.2082366943359375
-1.615142822265625,-0.7032318115234375,0.241180419921875
-1.3206634521484375,-0.690765380859375,0.2419891357421875
-1.0006103515625,-0.777099609375,0.042877197265625
-0.81683349609375,-0.6882476806640625,-0.04803466796875
-0.7148284912109375,-0.6983184814453125,-0.103729248046875
-0.76055908203125,-0.7012939453125,-0.0325775146484375
-0.8417816162109375,-0.7968597412109375,0.019012451171875
-1.018280029296875,-0.78192138671875,-0.029388427734375
-1.1573333740234375,-0.737579345703125,-0.0909881591796875
-1.2191925048828125,-0.7909698486328125,-0.2042236328125
-1.3350982666015625,-0.915802001953125,-0.3375091552734375
-1.48504638671875,-0.9903106689453124,-0.475616455078125
-1.58868408203125,-0.8808746337890625,-0.609832763671875
-1.758453369140625,-1.1522216796875,-0.2897491455078125
-1.6848602294921875,-0.8971405029296875,0.0165557861328125
-0.99639892578125,-0.476898193359375,-0.055694580078125
-0.8637237548828125,-0.229400634765625,-0.0280303955078125
-0.6898956298828125,-0.027191162109375,-0.1031341552734375
-0.5140838623046875,0.0693359375,-0.2072906494140625
-0.4168243408203125,0.173370361328125,-0.0279693603515625
-0.388031005859375,0.1763153076171875,0.0572509765625
-0.423309326171875,0.2006988525390625,0.0593719482421875
-0.50115966796875,0.0830078125,0.029937744140625
-0.77813720703125,0.0145263671875,-0.08221435546875
-0.893646240234375,-0.5383453369140625,-0.0761566162109375
-1.317535400390625,-0.5879364013671875,0.422698974609375
-1.857086181640625,-0.9403839111328124,0.333984375
-1.72894287109375,-0.7716064453125,-0.0017547607421875
-1.5440673828125,-0.904144287109375,0.1997222900390625
-1.17205810546875,-0.94659423828125,0.0987396240234375
-1.1557464599609375,-0.89593505859375,-0.0516357421875
-0.754547119140625,-0.8162841796875,-0.2042388916015625
-0.627655029296875,-0.780670166015625,-0.28765869140625
-0.7543792724609375,-0.930419921875,-0.1115875244140625
-0.766693115234375,-0.952789306640625,-0.0521240234375
-1.054168701171875,-1.019866943359375,-0.1473388671875
-1.4670257568359375,-1.0174560546875,-0.1513671875
-1.4696044921875,-1.0201263427734375,-0.49554443359375
-2.18609619140625,-1.1425323486328125,-0.5252685546875
-1.5108184814453125,-0.5559844970703125,-0.4044952392578125
-1.3646697998046875,-0.5743560791015625,-0.501220703125
-1.1973114013671875,-0.4361114501953125,-0.387664794921875
-0.7689971923828125,-0.3146209716796875,-0.2866973876953125
-0.6461334228515625,-0.3022613525390625,-0.2584075927734375
-0.490264892578125,-0.1700897216796875,-0.22967529296875
-0.3079833984375,-0.0585784912109375,-0.2555084228515625
-0.3122100830078125,-0.063995361328125,-0.24456787109375
-0.30096435546875,-0.0693511962890625,-0.2067413330078125
-0.47308349609375,-0.11895751953125,-0.2123260498046875
-0.565765380859375,-0.0695648193359375,-0.119720458984375
-0.77093505859375,-0.1320037841796875,0.1067352294921875
-1.0403900146484375,-0.0046844482421875,0.229736328125
-1.9535675048828125,-0.5655059814453125,0.205780029296875
-1.757354736328125,-0.8724822998046875,0.1986846923828125
-1.6214141845703125,-0.97344970703125,0.1877899169921875
-1.412017822265625,-1.0792236328125,-0.01409912109375
-1.076385498046875,-0.9881591796875,-0.1698760986328125
-0.8675079345703125,-0.916290283203125,-0.194427490234375
-0.7742767333984375,-0.882171630859375,-0.3040008544921875
-0.728302001953125,-0.768890380859375,-0.392425537109375
-0.8453216552734375,-0.7263031005859375,-0.3785247802734375
-1.14569091796875,-0.7974090576171875,-0.4033355712890625
-1.51568603515625,-0.7827606201171875,-0.3085174560546875
-1.7559967041015625,-0.8781280517578125,-0.21917724609375
-1.7907562255859375,-0.846771240234375,-0.2353057861328125
-1.820556640625,-0.6798553466796875,-0.279541015625
-1.3552093505859375,-0.4750823974609375,-0.3717803955078125
-1.326385498046875,-0.43060302734375,-0.439422607421875
-1.114990234375,-0.392822265625,-0.308502197265625
-0.7808837890625,-0.1986846923828125,-0.2046661376953125
-0.426483154296875,-0.0284881591796875,-0.13671875
-0.2541351318359375,0.016998291015625,-0.197540283203125
-0.159515380859375,0.0869293212890625,-0.2196197509765625
-0.11981201171875,0.0791473388671875,-0.20648193359375
-0.240936279296875,0.0995635986328125,-0.1927947998046875
-0.4716033935546875,0.1812896728515625,-0.0522003173828125
-0.79974365234375,0.119232177734375,-0.022125244140625
-1.3555450439453125,-0.336181640625,0.0252532958984375
-1.7392730712890625,-0.2705841064453125,-0.029754638671875
-1.835845947265625,-0.428070068359375,-0.0187835693359375
-1.6717529296875,-0.42864990234375,0.252288818359375
-1.5527801513671875,-0.491851806640625,0.1868438720703125
-1.6251678466796875,-0.7394561767578125,0.01324462890625
-1.2408599853515625,-0.816680908203125,-0.007659912109375
-0.9778594970703124,-0.77215576171875,-0.010528564453125
-0.859466552734375,-0.7248077392578125,-0.0593719482421875
-0.8964996337890625,-0.719207763671875,-0.1080169677734375
-0.94122314453125,-0.709320068359375,-0.081634521484375
-1.091796875,-0.7148895263671875,-0.0474090576171875
-1.2722320556640625,-0.7519683837890625,-0.0414886474609375
-1.1799468994140625,-0.7294464111328125,-0.0998077392578125
-1.3716278076171875,-0.7288818359375,-0.16986083984375
-1.4801788330078125,-0.66552734375,-0.220367431640625
-1.469635009765625,-0.6796722412109375,-0.290740966796875
-1.70111083984375,-0.6700286865234375,-0.37615966796875
-1.5762786865234375,-0.5554351806640625,-0.291534423828125
-1.31134033203125,-0.38629150390625,-0.1519622802734375
-0.9037933349609376,-0.174560546875,-0.0823211669921875
-0.608734130859375,-0.0525665283203125,-0.078857421875
-0.5087127685546875,-0.0679168701171875,-0.056365966796875
-0.406524658203125,0.054351806640625,-0.02947998046875
-0.3032379150390625,0.058868408203125,-0.0486602783203125
-0.2968292236328125,0.0636749267578125,-0.0299224853515625
-0.43206787109375,0.01898193359375,0.0119171142578125
-0.6111602783203125,0.07965087890625,0.1566619873046875
-0.9811553955078124,-0.090728759765625,0.1095428466796875
-1.56451416015625,-0.4048614501953125,0.048797607421875
-1.9292144775390625,-0.651031494140625,-0.01226806640625
-1.7425079345703125,-0.8497467041015625,0.1269989013671875
-1.3134613037109375,-0.794830322265625,0.1965789794921875
-1.1646270751953125,-0.78204345703125,0.00177001953125
-0.997283935546875,-0.791778564453125,-0.0315704345703125
-0.9500732421875,-0.7834320068359375,0.0167999267578125
-0.8570404052734375,-0.7729949951171875,0.0639190673828125
-0.8641815185546875,-0.82244873046875,0.120635986328125
-0.90643310546875,-0.9265594482421876,0.190277099609375
-0.9077606201171876,-1.028717041015625,0.1136474609375
-1.135406494140625,-0.893310546875,-0.1234283447265625
-1.627410888671875,-0.703125,-0.3632354736328125
-2.2063446044921875,-0.5514373779296875,-0.3713836669921875
-1.850616455078125,-0.3592681884765625,-0.2761688232421875
-1.68023681640625,-0.5013580322265625,-0.128173828125
-1.472076416015625,-0.394927978515625,-0.0474395751953125
-0.9850311279296876,-0.2390289306640625,-0.0864410400390625
-0.6134490966796875,-0.0356292724609375,-0.0972747802734375
-0.341583251953125,0.008056640625,-0.0913543701171875
-0.2076263427734375,0.0343170166015625,-0.1017303466796875
-0.2176513671875,0.0678558349609375,-0.0864410400390625
-0.210723876953125,0.0846405029296875,-0.0419921875
-0.3009490966796875,0.066253662109375,-0.022216796875
-0.49871826171875,0.0209503173828125,0.002288818359375
-0.854522705078125,0.083251953125,0.1766510009765625
-1.083831787109375,-0.1811676025390625,0.1613006591796875
-1.504913330078125,-0.23724365234375,0.171051025390625
-1.771697998046875,-0.3593597412109375,0.0828857421875
-1.8957672119140625,-0.59912109375,0.2765045166015625
-1.63623046875,-0.916015625,0.2621612548828125
-1.34515380859375,-0.9056243896484376,0.20074462890625
-1.1035919189453125,-0.86285400390625,0.14886474609375
-1.066741943359375,-0.8812103271484375,0.0795440673828125
-0.837371826171875,-0.8441314697265625,0.0401458740234375
-0.85699462890625,-0.8300323486328125,0.05145263671875
-1.0159454345703125,-0.8677215576171875,0.08843994140625
-1.2858123779296875,-0.9198455810546876,-0.0947418212890625
-1.4194488525390625,-0.9557952880859376,-0.1624755859375
-1.663909912109375,-0.9277496337890624,-0.2209930419921875
-1.8804168701171875,-0.9283294677734376,-0.07501220703125
-1.6540679931640625,-0.698577880859375,0.10137939453125
-1.23480224609375,-0.43212890625,-0.037322998046875
-0.99407958984375,-0.2043914794921875,-0.1094207763671875
-0.62213134765625,0.004425048828125,-0.1471405029296875
-0.3396759033203125,0.04742431640625,-0.1411895751953125
-0.105072021484375,0.0370941162109375,-0.1168670654296875
-0.03472900390625,0.068572998046875,-0.0673065185546875
-0.0355224609375,0.0251007080078125,-0.0202178955078125
-0.178955078125,0.0231781005859375,0.0228424072265625
-0.4752349853515625,0.0465087890625,0.0899658203125
-0.9349517822265624,-0.2569732666015625,0.038726806640625
-1.0124053955078125,-0.604095458984375,0.292449951171875
-1.561370849609375,-0.3655853271484375,0.440887451171875
-2.0401763916015625,-0.5800933837890625,0.8066558837890625
-1.5926971435546875,-0.8499755859375,0.610198974609375
-1.3072357177734375,-0.95709228515625,0.474822998046875
-1.0613250732421875,-0.8489532470703125,0.34088134765625
-0.86962890625,-1.0470428466796875,0.16357421875
-0.7193450927734375,-1.0724945068359375,0.280792236328125
-0.6910552978515625,-1.0649261474609375,0.25848388671875
-0.70623779296875,-0.909759521484375,0.147857666015625
-0.775146484375,-0.842254638671875,0.109283447265625
-0.971954345703125,-0.8581695556640625,0.0734100341796875
-1.295867919921875,-0.9068603515625,-0.0018768310546875
-1.52996826171875,-0.900787353515625,-0.105865478515625
-1.7580108642578125,-1.0290679931640625,-0.0769195556640625
-1.630645751953125,-0.7692108154296875,-0.004119873046875
-1.5874481201171875,-0.78387451171875,-0.1607818603515625
-1.579193115234375,-0.65643310546875,0.0034332275390625
-1.113677978515625,-0.427520751953125,-0.03192138671875
-0.7794342041015625,-0.1768798828125,-0.0888214111328125
-0.7076263427734375,-0.0272216796875,-0.100799560546875
-0.5440826416015625,0.1304168701171875,-0.028472900390625
-0.3878173828125,0.0736541748046875,-0.066436767578125
-0.3275909423828125,0.0257568359375,-0.09893798828125
-0.3499603271484375,-0.001556396484375,-0.0808868408203125
-0.4738616943359375,-0.0273284912109375,-0.071563720703125
-0.741241455078125,-0.088623046875,-0.0535430908203125
-1.0962982177734375,-0.0711517333984375,0.30645751953125
-1.51983642578125,-0.423309326171875,0.311553955078125
-1.731170654296875,-0.48394775390625,0.5385894775390625
-1.6491851806640625,-0.5785369873046875,0.3963623046875
-1.4937591552734375,-0.7396087646484375,0.448333740234375
-1.1187896728515625,-0.7500762939453125,0.3205108642578125
-1.074188232421875,-0.8345489501953125,0.152130126953125
-0.828460693359375,-0.8868865966796875,0.0928497314453125
-0.8123016357421875,-0.9102935791015624,0.0406341552734375
-0.8582305908203125,-0.8502655029296875,-0.043609619140625
-1.13720703125,-0.831024169921875,-0.0562591552734375
-1.414581298828125,-0.7734375,-0.05645751953125
-1.6337127685546875,-0.885101318359375,0.0015869140625
-2.2054595947265625,-0.880950927734375,0.030364990234375
-1.9080352783203125,-0.67144775390625,-0.1608428955078125
-1.8336639404296875,-0.4979095458984375,-0.2437286376953125
-1.649932861328125,-0.3505401611328125,-0.105377197265625
-1.16888427734375,-0.2114410400390625,-0.0065765380859375
-0.7561798095703125,-0.035491943359375,-0.029998779296875
-0.4963836669921875,0.077545166015625,-0.1646881103515625
-0.3938751220703125,0.146575927734375,-0.240875244140625
-0.4107513427734375,0.14361572265625,-0.156463623046875
-0.292633056640625,0.0734100341796875,-0.115081787109375
-0.451507568359375,-0.1020050048828125,-0.1066436767578125
-0.5639190673828125,-0.1219635009765625,0.009002685546875
-0.7590484619140625,-0.228240966796875,0.1173858642578125
-1.036376953125,-0.2016754150390625,0.0987091064453125
-1.332763671875,-0.260101318359375,0.0432586669921875
-1.8009033203125,-0.4003753662109375,0.185943603515625
-1.829376220703125,-0.7376251220703125,0.283905029296875
-1.6727294921875,-0.8144378662109375,0.285980224609375
-1.1915435791015625,-0.7176971435546875,0.103729248046875
-0.9671630859375,-0.747467041015625,0.0877838134765625
-0.7753448486328125,-0.7553558349609375,0.148223876953125
-0.748321533203125,-0.819091796875,0.15753173828125
-0.8493804931640625,-0.8273468017578125,0.0995941162109375
-1.2665863037109375,-0.7800750732421875,-0.0209503173828125
-1.4055938720703125,-0.646453857421875,-0.1353759765625
-1.6924285888671875,-0.696624755859375,-0.07415771484375
-1.8395538330078125,-0.54913330078125,-0.0908203125
-1.557830810546875,-0.3458709716796875,-0.113067626953125
-1.6619110107421875,-0.4331207275390625,-0.1432952880859375
-1.5823822021484375,-0.3860931396484375,-0.0745391845703125
-1.1451416015625,-0.2512054443359375,-0.1198577880859375
-0.8533477783203125,-0.1381378173828125,-0.078460693359375
-0.6347808837890625,-0.0765380859375,-0.098358154296875
-0.4514007568359375,-0.0615997314453125,-0.07122802734375
-0.334869384765625,-0.1097564697265625,-0.0573883056640625
-0.3079071044921875,-0.0131683349609375,-0.19525146484375
-0.2228851318359375,0.0416107177734375,-0.249786376953125
-0.2851715087890625,-0.0098419189453125,-0.232757568359375
-0.3725433349609375,-0.1034088134765625,-0.0860443115234375
-0.7187347412109375,-0.043243408203125,0.1602020263671875
-1.5572357177734375,-0.27532958984375,0.131927490234375
-1.7872772216796875,-0.19622802734375,-0.024139404296875
-1.8951568603515625,-0.5425567626953125,-0.039398193359375
-1.6581878662109375,-0.75390625,0.1017303466796875
-1.532379150390625,-0.8974609375,0.02294921875
-1.168853759765625,-0.8446807861328125,-0.1035919189453125
-0.9790496826171876,-0.797210693359375,-0.2704010009765625
-0.831787109375,-0.6772613525390625,-0.2377166748046875
-0.8189697265625,-0.60260009765625,-0.205810546875
-0.862518310546875,-0.548431396484375,-0.167236328125
-1.0047760009765625,-0.6040496826171875,-0.1580352783203125
-1.1600494384765625,-0.6762237548828125,-0.2648773193359375
-1.2963714599609375,-0.669036865234375,-0.5417327880859375
-1.402862548828125,-0.5981597900390625,-0.7634735107421875
-2.006591796875,-0.3578033447265625,-0.6730194091796875
-1.2635955810546875,-0.4320220947265625,-0.5815582275390625
-1.3572998046875,-0.3475799560546875,-0.5126800537109375
-1.229583740234375,-0.4500885009765625,-0.4909515380859375
-0.869598388671875,-0.15972900390625,-0.439300537109375
-0.54412841796875,0.0145721435546875,-0.3044586181640625
-0.39862060546875,0.0867462158203125,-0.248260498046875
-0.274749755859375,0.1045684814453125,-0.061248779296875
-0.253265380859375,0.0120391845703125,-0.016021728515625
-0.34490966796875,-0.027130126953125,-0.049468994140625
-0.5303955078125,-0.0572357177734375,-0.125579833984375
-0.7196044921875,-0.0742034912109375,-0.1640625
-1.03607177734375,-0.1810760498046875,0.0272674560546875
-1.2690582275390625,-0.517852783203125,0.3202362060546875
-1.6029510498046875,-0.710205078125,0.28656005859375
-1.6437835693359375,-0.7961578369140625,0.0841827392578125
-1.7418212890625,-0.94268798828125,0.04345703125
-1.497283935546875,-0.95074462890625,-0.0588531494140625
-1.1674041748046875,-0.9298858642578124,-0.1211090087890625
-0.854705810546875,-0.8592529296875,-0.04510498046875
-0.64508056640625,-0.771820068359375,-0.1025543212890625
-0.63482666015625,-0.708343505859375,-0.1616363525390625
-0.7705535888671875,-0.697906494140625,-0.2606201171875
-1.0531463623046875,-0.73968505859375,-0.2904205322265625
-1.410308837890625,-0.77398681640625,-0.4123687744140625
-1.7331390380859375,-0.838958740234375,-0.307861328125
-1.813934326171875,-0.702972412109375,-0.1592559814453125
-1.8711700439453125,-0.8015289306640625,-0.1438751220703125
-1.8487091064453125,-0.5668792724609375,-0.1977386474609375
-1.3024444580078125,-0.3209381103515625,-0.1354827880859375
-0.8655242919921875,-0.121826171875,-0.174468994140625
-0.6078033447265625,0.06707763671875,-0.1688232421875
-0.469451904296875,0.075653076171875,-0.1194915771484375
-0.40155029296875,0.0850372314453125,-0.1284637451171875
-0.2985382080078125,0.076019287109375,-0.122955322265625
-0.2438201904296875,0.132415771484375,-0.12939453125
-0.214263916015625,0.1017303466796875,-0.1051025390625
-0.4013824462890625,0.05682373046875,0.0259552001953125
-0.9846954345703124,-0.2295989990234375,0.483856201171875
-1.4559326171875,-0.2376861572265625,0.6512451171875
-1.638092041015625,-0.55859375,0.639190673828125
-1.9570770263671875,-0.6290435791015625,0.549163818359375
-1.6483001708984375,-0.78387451171875,0.4855499267578125
-1.50677490234375,-0.7218475341796875,0.3950653076171875
-1.1556549072265625,-0.69952392578125,0.230682373046875
-0.9216156005859376,-0.6947784423828125,0.210693359375
-0.72088623046875,-0.679229736328125,0.1021728515625
-0.81304931640625,-0.63995361328125,0.016326904296875
-0.8134765625,-0.6377410888671875,-0.0143890380859375
-0.93084716796875,-0.6336669921875,0.0029296875
-1.0819549560546875,-0.6529388427734375,0.019989013671875
-1.3348388671875,-0.700408935546875,-0.0236663818359375
-1.5296478271484375,-0.710693359375,-0.12579345703125
-1.795379638671875,-0.769256591796875,-0.1249847412109375
-2.075424194335937,-0.7108306884765625,-0.1630096435546875
-1.638427734375,-0.4636993408203125,-0.114044189453125
-1.2745819091796875,-0.366546630859375,-0.1619110107421875
-1.0993804931640625,-0.4351806640625,-0.09893798828125
-0.81842041015625,-0.3258209228515625,-0.030609130859375
-0.52691650390625,-0.180267333984375,-0.116912841796875
-0.4091033935546875,-0.0374603271484375,-0.1563720703125
-0.3888092041015625,-0.0230712890625,-0.1439056396484375
-0.30218505859375,0.0191192626953125,-0.1092987060546875
-0.397369384765625,-0.139068603515625,-0.071380615234375
-0.609100341796875,-0.1668243408203125,0.0095672607421875
-0.6374969482421875,-0.0611724853515625,0.03607177734375
-0.879852294921875,-0.21490478515625,0.1314849853515625
-1.3827972412109375,-0.4264068603515625,0.56829833984375
-1.388427734375,-0.6786956787109375,0.4358367919921875
-1.4805145263671875,-0.6988525390625,0.4795379638671875
-1.5830230712890625,-0.8458251953125,0.289947509765625
-1.630096435546875,-0.926849365234375,0.2536163330078125
-1.22491455078125,-0.974334716796875,0.2144775390625
-0.761260986328125,-0.8117218017578125,0.1495361328125
-0.5515899658203125,-0.710540771484375,0.007476806640625
-0.58697509765625,-0.7114105224609375,-0.0809326171875
-0.7457427978515625,-0.6963653564453125,-0.1060028076171875
-0.8008575439453125,-0.6874542236328125,-0.1282806396484375
-1.0285491943359375,-0.6089324951171875,-0.08978271484375
-1.1828155517578125,-0.6551055908203125,0.005889892578125
-1.395965576171875,-0.8341522216796875,0.0745086669921875
-1.797332763671875,-1.0211639404296875,0.0171356201171875
-1.4785003662109375,-0.781524658203125,-0.0446319580078125
-1.3942718505859375,-0.6681976318359375,-0.1845855712890625
-1.54119873046875,-0.724365234375,-0.066650390625
-1.24346923828125,-0.555633544921875,-0.038604736328125
-0.9077606201171876,-0.262176513671875,-0.0628662109375
-0.603668212890625,-0.08990478515625,-0.0746307373046875
-0.4962615966796875,-0.0489349365234375,-0.1008453369140625
-0.367828369140625,0.047119140625,-0.0760650634765625
-0.19891357421875,0.0888214111328125,-0.0596923828125
-0.3134002685546875,0.0457000732421875,0.0157623291015625
-0.4974822998046875,0.107330322265625,0.15545654296875
-0.5570831298828125,0.03790283203125,0.158660888671875
-1.118408203125,-0.0027618408203125,0.455780029296875
-1.478851318359375,-0.4542694091796875,0.497955322265625
-1.8278656005859373,-0.5774383544921875,0.5438995361328125
-1.5373382568359375,-0.5258941650390625,0.5148773193359375
-1.40045166015625,-0.73748779296875,0.480621337890625
-1.1441192626953125,-0.704986572265625,0.2674713134765625
-1.2545318603515625,-0.9311676025390624,0.1799163818359375
-0.9959259033203124,-0.9363555908203124,0.1764373779296875
-0.794921875,-0.8304901123046875,0.09979248046875
-0.6937713623046875,-0.687408447265625,0.1338653564453125
-0.7409515380859375,-0.660736083984375,0.1083984375
-1.091888427734375,-0.7103271484375,0.2867889404296875
-1.0021820068359375,-0.7891082763671875,0.386444091796875
-1.011383056640625,-0.6474151611328125,0.2264862060546875
-0.9955596923828124,-0.5327606201171875,-0.0599365234375
-1.5888671875,-0.813720703125,0.10687255859375
-1.4001617431640625,-0.5853729248046875,0.07476806640625
-1.4432525634765625,-0.5946044921875,0.08538818359375
-1.627197265625,-0.5308990478515625,0.1289520263671875
-1.5104827880859375,-0.41363525390625,0.133148193359375
-1.08221435546875,-0.1875152587890625,0.062408447265625
-0.787689208984375,0.0224456787109375,0.0483551025390625
-0.5237884521484375,0.0712738037109375,0.0093994140625
-0.3958282470703125,0.102630615234375,-0.0001373291015625
-0.280792236328125,0.13177490234375,0.0147552490234375
-0.3422088623046875,0.0730743408203125,0.0267486572265625
-0.5542144775390625,-0.042938232421875,0.0985565185546875
-0.6627960205078125,-0.0010986328125,0.1722564697265625
-1.2269744873046875,-0.0876617431640625,0.291259765625
-1.5152130126953125,-0.457916259765625,0.3185882568359375
-1.8542327880859373,-0.640838623046875,0.344207763671875
-1.631622314453125,-0.60504150390625,0.3140716552734375
-1.319091796875,-0.6087188720703125,0.3431396484375
-1.127716064453125,-0.708221435546875,0.3215789794921875
-0.9843597412109376,-0.68487548828125,0.2619781494140625
-0.7459869384765625,-0.6574249267578125,0.1977081298828125
-0.7446746826171875,-0.622406005859375,0.13519287109375
-0.72784423828125,-0.6756591796875,0.08514404296875
-0.72760009765625,-0.729400634765625,0.1846160888671875
-0.7789459228515625,-0.84112548828125,0.229461669921875
-0.9059295654296876,-0.91796875,0.225860595703125
-1.072021484375,-0.9641876220703124,0.064361572265625
-1.259796142578125,-0.7958526611328125,-0.0908203125
-1.8624420166015625,-0.836517333984375,0.0198211669921875
-1.78472900390625,-0.66741943359375,0.086273193359375
-1.4799346923828125,-0.632965087890625,-0.160919189453125
-1.623931884765625,-0.5621795654296875,-0.1582794189453125
-1.3043975830078125,-0.403411865234375,-0.06402587890625
-0.927581787109375,-0.312469482421875,-0.100860595703125
-0.728912353515625,-0.190673828125,-0.0855255126953125
-0.52252197265625,-0.01373291015625,-0.1713409423828125
-0.457275390625,0.0323028564453125,-0.12945556640625
-0.3854217529296875,0.0623626708984375,-0.0294647216796875
-0.3283843994140625,0.159027099609375,-0.068328857421875
-0.435546875,0.1764678955078125,-0.0777130126953125
-0.649383544921875,0.1241302490234375,0.057525634765625
-1.037750244140625,0.0174102783203125,0.3272247314453125
-1.3809356689453125,-0.3652801513671875,0.40118408203125
-1.62762451171875,-0.5379791259765625,0.56976318359375
-1.5695343017578125,-0.6224822998046875,0.4459228515625
-1.514892578125,-0.845001220703125,0.48480224609375
-1.385833740234375,-0.892578125,0.340484619140625
-1.14935302734375,-0.873382568359375,0.1480255126953125
-0.924102783203125,-0.794921875,0.0694732666015625
-0.810699462890625,-0.8424835205078125,0.029449462890625
-1.0021209716796875,-0.845550537109375,-0.05047607421875
-1.1591033935546875,-0.8768310546875,-0.213958740234375
-1.4410400390625,-0.8346099853515625,-0.2052459716796875
-1.6409454345703125,-0.726715087890625,-0.31732177734375
-1.7666473388671875,-0.6016693115234375,-0.2400665283203125
-1.39093017578125,-0.4528961181640625,-0.2546234130859375
-1.4681854248046875,-0.32183837890625,-0.35504150390625
-1.1827850341796875,-0.266998291015625,-0.2540283203125
-0.91339111328125,-0.176544189453125,-0.2561187744140625
-0.753448486328125,-0.108123779296875,-0.19970703125
-0.60614013671875,-0.0771026611328125,-0.151885986328125
-0.4683837890625,-0.0341339111328125,-0.1373748779296875
-0.3683319091796875,-0.0714569091796875,-0.096527099609375
-0.330596923828125,-0.167083740234375,-0.0953521728515625
-0.2586212158203125,-0.094085693359375,-0.1551666259765625
-0.32855224609375,-0.0795135498046875,-0.132904052734375
-0.57171630859375,-0.07232666015625,-0.0502471923828125
-0.9086151123046876,0.0234375,0.05328369140625
-1.518341064453125,-0.066070556640625,-0.0825653076171875
-1.9375152587890625,-0.5491943359375,-0.046173095703125
-2.1808319091796875,-0.92535400390625,0.04791259765625
-1.569427490234375,-0.8188629150390625,0.051300048828125
-1.1300506591796875,-0.62518310546875,0.0916290283203125
-0.94970703125,-0.680572509765625,0.0681915283203125
-0.9366912841796876,-0.7086029052734375,0.0132598876953125
-0.8812713623046875,-0.7059478759765625,-0.056182861328125
-1.0160675048828125,-0.73504638671875,-0.0494232177734375
-1.056549072265625,-0.7317962646484375,-0.06134033203125
-0.9920654296875,-0.636962890625,-0.1613922119140625
-1.19158935546875,-0.6830902099609375,-0.2657012939453125
-1.2581787109375,-0.69403076171875,-0.2864227294921875
-1.636688232421875,-0.82708740234375,-0.3377532958984375
-1.882049560546875,-0.7217254638671875,-0.366455078125
-2.031402587890625,-0.6877899169921875,-0.28192138671875
-1.5795745849609375,-0.3575439453125,-0.18463134765625
-0.915985107421875,-0.0057373046875,-0.3142242431640625
-0.5503387451171875,-0.009613037109375,-0.289947509765625
-0.4008331298828125,-0.1021881103515625,-0.2145538330078125
-0.382232666015625,-0.0345306396484375,-0.1479034423828125
-0.2856292724609375,-0.04962158203125,-0.1667327880859375
-0.27593994140625,-0.00238037109375,-0.190399169921875
-0.296539306640625,-0.025604248046875,-0.2081756591796875
-0.386383056640625,-0.1502532958984375,-0.16607666015625
-0.5635528564453125,-0.2217864990234375,-0.2089996337890625
-0.666290283203125,-0.283660888671875,-0.257110595703125
-0.9751434326171876,-0.180999755859375,-0.3924560546875
-1.0416259765625,-0.2514801025390625,-0.42230224609375
-1.482208251953125,-0.20172119140625,-0.6823883056640625
-1.639404296875,-0.3724517822265625,-0.4746246337890625
-1.3159332275390625,-0.5143280029296875,-0.6528167724609375
-1.497650146484375,-0.4972991943359375,-0.6919097900390625
-1.289581298828125,-0.6763458251953125,-0.713104248046875
-1.129364013671875,-0.7381744384765625,-0.7469024658203125
-0.94580078125,-0.7834930419921875,-0.6517486572265625
-0.9372711181640624,-0.7996978759765625,-0.66839599609375
-0.9426422119140624,-0.6845703125,-0.669158935546875
-1.0277099609375,-0.5324554443359375,-0.6263275146484375
-0.8856048583984375,-0.391571044921875,-0.5719451904296875
-0.868011474609375,-0.2915802001953125,-0.659637451171875
-0.8100433349609375,-0.2884368896484375,-0.7571868896484375
-0.9483795166015624,-0.340606689453125,-0.9256439208984376
-1.0703277587890625,-0.292205810546875,-0.9207000732421876
-0.8372955322265625,-0.2430267333984375,-0.692047119140625
-0.644775390625,-0.228057861328125,-0.7179412841796875
-0.677490234375,-0.24163818359375,-0.591766357421875
-0.5634613037109375,-0.2014617919921875,-0.507537841796875
-0.42303466796875,-0.13397216796875,-0.44879150390625
-0.3275909423828125,-0.09588623046875,-0.3704681396484375
-0.2550506591796875,-0.0449981689453125,-0.24981689453125
-0.286102294921875,-0.06036376953125,-0.1220703125
-0.3726043701171875,-0.1187896728515625,-0.1541290283203125
-0.5670928955078125,-0.0719451904296875,-0.1863555908203125
-0.7393341064453125,-0.0035858154296875,-0.0745849609375
-1.0610504150390625,-0.1707611083984375,-0.167236328125
-1.5236663818359375,-0.10723876953125,-0.08013916015625
-1.6886138916015625,-0.4119415283203125,-0.1184844970703125
-1.5931243896484375,-0.3091278076171875,-0.00286865234375
-1.57720947265625,-0.5932769775390625,0.0433502197265625
-1.3885650634765625,-0.6815032958984375,0.11187744140625
-1.206207275390625,-0.7531890869140625,-0.0291748046875
-1.10626220703125,-0.7560272216796875,-0.064208984375
-0.9722900390625,-0.764923095703125,-0.0124359130859375
-0.9117584228515624,-0.6533966064453125,-0.088623046875
-0.8592529296875,-0.553741455078125,-0.12225341796875
-0.9525604248046876,-0.5312347412109375,-0.1089935302734375
-1.122222900390625,-0.5666351318359375,-0.07275390625
-1.3745269775390625,-0.6687469482421875,-0.13555908203125
-1.8559722900390625,-0.7772979736328125,-0.1300506591796875
-1.4758453369140625,-0.6696624755859375,-0.093475341796875
-1.42926025390625,-0.5487518310546875,-0.2042083740234375
-1.3746490478515625,-0.55322265625,-0.1568756103515625
-1.3372344970703125,-0.493804931640625,0.0309600830078125
-1.00201416015625,-0.2599029541015625,-0.014678955078125
-0.7025604248046875,-0.04583740234375,-0.0682525634765625
-0.4626922607421875,0.06884765625,-0.0758819580078125
-0.2975616455078125,0.043670654296875,-0.085418701171875
-0.2168121337890625,0.040985107421875,-0.08782958984375
-0.2163238525390625,0.0181427001953125,-0.140716552734375
-0.3250885009765625,0.0753173828125,-0.098236083984375
-0.5684356689453125,-0.04248046875,-0.042816162109375
-1.1187591552734375,-0.1564788818359375,0.0448455810546875
-1.272430419921875,-0.08709716796875,0.0615997314453125
-1.5738067626953125,-0.185546875,0.30377197265625
-1.61322021484375,-0.2264862060546875,0.4107666015625
-1.60675048828125,-0.4020538330078125,0.2635955810546875
-1.43756103515625,-0.4208221435546875,0.147430419921875
-1.22119140625,-0.5171051025390625,0.04010009765625
-1.0857696533203125,-0.5888671875,0.074371337890625
-0.957611083984375,-0.6861572265625,0.0106964111328125
-0.9413604736328124,-0.6955718994140625,-0.060638427734375
-0.920440673828125,-0.670867919921875,-0.1022491455078125
-0.973052978515625,-0.646697998046875,-0.0824127197265625
-1.2199554443359375,-0.657073974609375,0.0746917724609375
-1.4936676025390625,-0.626922607421875,0.0101318359375
-1.747314453125,-0.64056396484375,-0.0480194091796875
-1.5286102294921875,-0.455047607421875,-0.03173828125
-1.437408447265625,-0.432647705078125,-0.1606597900390625
-1.6383209228515625,-0.40228271484375,-0.2046661376953125
-1.4409332275390625,-0.26708984375,-0.0952911376953125
-1.0926361083984375,-0.1430511474609375,-0.0897674560546875
-0.883819580078125,-0.03851318359375,-0.050994873046875
-0.667449951171875,-0.0386810302734375,-0.0852203369140625
-0.594146728515625,-0.0574798583984375,-0.1041717529296875
-0.4343414306640625,-0.0421600341796875,-0.0952911376953125
-0.2592010498046875,-0.08831787109375,-0.1006927490234375
-0.1657867431640625,-0.1752777099609375,-0.1412200927734375
-0.32025146484375,-0.2260894775390625,-0.0691986083984375
-0.4553680419921875,-0.259918212890625,0.0283966064453125
-0.586517333984375,-0.191314697265625,0.0850677490234375
-0.9528656005859376,-0.1220855712890625,0.224212646484375
-1.0662689208984375,-0.2301788330078125,-0.0088043212890625
-2.142486572265625,-0.5818634033203125,0.176971435546875
-1.7314605712890625,-0.5856170654296875,0.1697845458984375
-1.5951995849609375,-0.5593414306640625,0.202880859375
-1.379730224609375,-0.611053466796875,0.1375274658203125
-1.0169830322265625,-0.577056884765625,0.0756378173828125
-0.6837615966796875,-0.5491485595703125,0.0557098388671875
-0.5568084716796875,-0.551971435546875,-0.0674896240234375
-0.59375,-0.647796630859375,-0.0947723388671875
-0.8098907470703125,-0.7386474609375,-0.077362060546875
-0.963897705078125,-0.885284423828125,-0.0405426025390625
-1.0733184814453125,-0.933502197265625,0.061187744140625
-1.1859130859375,-0.9058990478515624,0.0539093017578125
-1.59088134765625,-0.86859130859375,0.0826873779296875
-1.8212127685546875,-0.7236175537109375,-0.09661865234375
-1.72186279296875,-0.5142669677734375,0.0525360107421875
-1.4503936767578125,-0.4613189697265625,0.0261077880859375
-1.258270263671875,-0.462646484375,0.0084381103515625
-0.9400787353515624,-0.3618621826171875,-0.006317138671875
-0.62762451171875,-0.2204437255859375,-0.0269775390625
-0.5642242431640625,-0.14093017578125,-0.1221923828125
-0.5308380126953125,0.0478363037109375,-0.0225372314453125
-0.3882293701171875,0.1407318115234375,0.0488433837890625
-0.3794403076171875,0.136993408203125,0.00244140625
-0.4722137451171875,-0.01690673828125,0.0859375
-0.6823577880859375,-0.10491943359375,0.031341552734375
-1.222015380859375,-0.16143798828125,0.13665771484375
-1.5345458984375,-0.1043701171875,0.268524169921875
-1.7400970458984375,-0.17254638671875,0.477783203125
-1.6244049072265625,-0.42950439453125,0.449676513671875
-1.42864990234375,-0.628204345703125,0.3149261474609375
-0.99444580078125,-0.7156829833984375,0.244384765625
-0.834228515625,-0.848968505859375,0.096221923828125
-0.7638702392578125,-1.164947509765625,-0.0491485595703125
-0.8403778076171875,-1.38348388671875,-0.1111602783203125
-1.078582763671875,-1.56561279296875,-0.1300048828125
-1.3818511962890625,-1.2453765869140625,-0.1214141845703125
-1.506500244140625,-1.0500640869140625,0.001434326171875
-1.9522552490234373,-0.655670166015625,0.453033447265625
-1.5977020263671875,-0.2353515625,0.44964599609375
-1.2660675048828125,-0.2074127197265625,0.36383056640625
-1.1667022705078125,-0.2425384521484375,0.389495849609375
-0.89459228515625,-0.1532440185546875,0.31939697265625
-0.6390838623046875,-0.0500946044921875,0.205078125
-0.3972930908203125,0.07220458984375,0.0033111572265625
-0.33050537109375,0.1602020263671875,0.022857666015625
-0.21044921875,0.1954498291015625,0.021820068359375
-0.15118408203125,0.1858367919921875,0.058197021484375
-0.3453521728515625,0.0894012451171875,0.0340728759765625
-0.8759002685546875,0.00469970703125,0.3368072509765625
-1.331024169921875,-0.381195068359375,0.2509002685546875
-1.8231353759765625,-0.6894989013671875,0.5804443359375
-1.4114990234375,-0.311737060546875,0.5877532958984375
-1.437774658203125,-0.390869140625,0.4587860107421875
-1.2156982421875,-0.375885009765625,0.28564453125
-1.0729217529296875,-0.4271240234375,0.1314544677734375
-0.9403228759765624,-0.479827880859375,0.106201171875
-0.983734130859375,-0.7705535888671875,0.0801239013671875
-0.9328460693359376,-1.00714111328125,-0.047393798828125
-1.050689697265625,-1.1837921142578125,-0.1914825439453125
-1.0979156494140625,-1.2063446044921875,-0.1689453125
-1.30712890625,-1.19805908203125,0.080657958984375
-1.716400146484375,-1.140167236328125,0.44244384765625
-2.1588134765625,-0.962738037109375,1.028533935546875
-1.8450469970703125,-0.41357421875,0.9941253662109376
-1.5491485595703125,0.0162811279296875,0.9107818603515624
-1.1236114501953125,0.223785400390625,0.6691131591796875
-0.7424163818359375,0.2120513916015625,0.4237213134765625
-0.5236663818359375,0.2016754150390625,0.2721710205078125
-0.33099365234375,0.1777801513671875,0.1398162841796875
-0.2202301025390625,0.159759521484375,0.0748291015625
-0.0716552734375,0.1212615966796875,0.06365966796875
-0.0597991943359375,0.0175933837890625,0.080810546875
-0.3497467041015625,-0.0387420654296875,0.1283721923828125
-0.678466796875,-0.0421600341796875,0.183074951171875
-1.3572540283203125,0.21258544921875,0.6313934326171875
-2.006011962890625,-0.2725067138671875,0.7874603271484375
-2.1427001953125,-0.2964324951171875,0.8498382568359375
-1.8174285888671875,-0.351318359375,0.6502838134765625
-1.4535064697265625,-0.437896728515625,0.493896484375
-1.0641326904296875,-0.4735870361328125,0.3757171630859375
-0.92962646484375,-0.4694671630859375,0.262420654296875
-0.9303436279296876,-0.55853271484375,0.130950927734375
-0.8870697021484375,-0.7457427978515625,0.094207763671875
-0.846771240234375,-0.85382080078125,0.0402374267578125
-0.6100006103515625,-1.011962890625,0.1405029296875
-0.8196258544921875,-1.07196044921875,0.1787872314453125
-1.61529541015625,-1.17401123046875,0.4799652099609375
-2.01910400390625,-0.97259521484375,0.6446990966796875
-2.1367340087890625,-0.5573883056640625,0.799163818359375
-1.907684326171875,-0.2050018310546875,0.81488037109375
-1.485565185546875,0.046661376953125,0.5613861083984375
-0.97381591796875,0.1776275634765625,0.203643798828125
-0.7502288818359375,0.06982421875,0.12274169921875
-0.5106964111328125,0.1464691162109375,0.0892181396484375
-0.2647247314453125,0.1905517578125,0.0707244873046875
-0.0871734619140625,0.23114013671875,0.0978546142578125
0.0097808837890625,0.2048492431640625,0.1078643798828125
-0.1821441650390625,0.196990966796875,0.1588287353515625
-0.5740203857421875,0.161224365234375,0.196929931640625
-1.1717071533203125,0.1040496826171875,0.212982177734375
-1.6246490478515625,-0.180389404296875,0.4756927490234375
-2.0842437744140625,-0.2421722412109375,0.4075164794921875
-1.941253662109375,-0.5874481201171875,0.5529327392578125
-1.575164794921875,-0.792266845703125,0.5730133056640625
-1.352294921875,-0.8266143798828125,0.410552978515625
-1.4019775390625,-1.065093994140625,0.359649658203125
-1.0772857666015625,-1.1789703369140625,0.199615478515625
-0.760498046875,-1.185882568359375,0.2128143310546875
-0.764129638671875,-1.055877685546875,0.24615478515625
-0.7621917724609375,-0.872589111328125,0.119110107421875
-1.016998291015625,-0.7894439697265625,0.1369476318359375
-1.4677734375,-0.808258056640625,0.4380950927734375
-1.4034423828125,-0.66162109375,0.4771881103515625
-1.579681396484375,-0.661651611328125,0.5167083740234375
-1.717010498046875,-0.5366668701171875,0.486053466796875
-1.581695556640625,-0.4793701171875,0.4642333984375
-0.966217041015625,-0.2375640869140625,0.3094940185546875
-0.44281005859375,-0.0365142822265625,0.09197998046875
-0.1474609375,0.0668792724609375,-0.0124053955078125
0.0250244140625,0.0809173583984375,-0.0326385498046875
0.1157073974609375,0.07666015625,-0.042724609375
0.1090545654296875,0.053558349609375,-0.0475006103515625
0.0183563232421875,0.0561981201171875,-0.020965576171875
-0.2863006591796875,0.1045989990234375,0.078460693359375
-1.001953125,0.00286865234375,0.233306884765625
-1.9153900146484373,-0.1181488037109375,0.3204498291015625
-2.284515380859375,-1.1506500244140625,0.76629638671875
-2.0362091064453125,-0.7637939453125,0.8168182373046875
-1.68109130859375,-0.7412261962890625,0.4563140869140625
-1.10491943359375,-0.79229736328125,0.292144775390625
-0.9752197265625,-0.9337615966796876,0.1792144775390625
-0.740814208984375,-0.8952484130859375,0.004486083984375
-0.5598907470703125,-0.892974853515625,-0.2091217041015625
-0.601165771484375,-0.969482421875,-0.0169219970703125
-0.6198883056640625,-0.9988250732421876,0.0426177978515625
-0.9672088623046876,-1.0206298828125,-0.170318603515625
-1.4924163818359375,-0.96484375,-0.3180999755859375
-1.97674560546875,-0.922637939453125,-0.39300537109375
-2.21728515625,-0.9067535400390624,-0.1923065185546875
-1.8537750244140625,-0.6316680908203125,-0.2967376708984375
-1.7105712890625,-0.4601593017578125,-0.2414398193359375
-1.1301727294921875,-0.286285400390625,-0.018585205078125
-0.5744171142578125,-0.088134765625,0.0291290283203125
-0.3731689453125,0.0878143310546875,-0.0308685302734375
-0.254302978515625,0.155792236328125,-0.096038818359375
-0.1988983154296875,0.12847900390625,-0.0894622802734375
-0.2790069580078125,0.0279388427734375,-0.0477142333984375
-0.40216064453125,0.0714569091796875,0.0582733154296875
-0.5431671142578125,0.1161651611328125,0.1761932373046875
-0.790740966796875,-0.0604248046875,0.1151580810546875
-1.388031005859375,-0.1374664306640625,0.3018798828125
-1.7197265625,-0.447540283203125,0.283111572265625
-1.9534759521484373,-0.65985107421875,0.4090423583984375
-1.940399169921875,-0.8524627685546875,0.51190185546875
-1.4064788818359375,-0.7948760986328125,0.3904876708984375
-0.9982757568359376,-0.6739654541015625,0.2259368896484375
-0.810699462890625,-0.643707275390625,0.10430908203125
-0.6718292236328125,-0.7636260986328125,-0.01702880859375
-0.66754150390625,-0.853851318359375,-0.0768890380859375
-0.5819244384765625,-0.953643798828125,-0.1076812744140625
-0.7153778076171875,-1.045013427734375,-0.0256500244140625
-0.9741668701171876,-0.9843902587890624,0.0830078125
-1.2348785400390625,-0.872467041015625,0.164276123046875
-2.0386505126953125,-0.9930877685546876,0.36053466796875
-2.591171264648437,-0.569488525390625,0.805511474609375
-1.9782867431640625,-0.23455810546875,0.6178436279296875
-1.7305908203125,-0.2238616943359375,0.679473876953125
-1.0652618408203125,-0.1597137451171875,0.531768798828125
-0.6153717041015625,-0.0500030517578125,0.425140380859375
-0.334442138671875,0.0023040771484375,0.359710693359375
-0.20867919921875,0.01239013671875,0.2584381103515625
-0.1420135498046875,0.04864501953125,0.1579437255859375
-0.163604736328125,0.07379150390625,0.0570068359375
-0.2412872314453125,0.1195220947265625,0.0325775146484375
-0.4706878662109375,0.0776824951171875,0.0823974609375
-0.8388519287109375,0.0159454345703125,0.17816162109375
-1.42852783203125,-0.0496826171875,0.1666412353515625
-1.846588134765625,-0.2625732421875,0.450958251953125
-1.6837310791015625,-0.2842254638671875,0.3664703369140625
-1.6471099853515625,-0.338470458984375,0.3197021484375
-1.2397918701171875,-0.3253936767578125,0.1391143798828125
-1.0508880615234375,-0.331787109375,-0.023101806640625
-1.0399169921875,-0.351226806640625,-0.0561065673828125
-0.99609375,-0.382232666015625,0.012725830078125
-1.278900146484375,-0.4833221435546875,0.153533935546875
-1.403228759765625,-0.5797119140625,0.0937347412109375
-1.1912078857421875,-0.631195068359375,0.1419830322265625
-1.2249603271484375,-0.7404632568359375,0.0780181884765625
-1.5004730224609375,-0.845184326171875,0.1219635009765625
-1.277130126953125,-0.698974609375,0.06787109375
-1.2294921875,-0.5304412841796875,0.198822021484375
-1.2717132568359375,-0.4636993408203125,0.212066650390625
-1.1555633544921875,-0.22882080078125,0.100189208984375
-0.842041015625,-0.227203369140625,0.0820159912109375
-0.669464111328125,-0.1552276611328125,-0.0656280517578125
-0.1705322265625,-0.0415802001953125,-0.07470703125
0.05535888671875,0.026458740234375,-0.0624237060546875
0.019561767578125,0.0243682861328125,-0.134735107421875
0.0218963623046875,0.0268096923828125,-0.004058837890625
0.0266265869140625,0.026763916015625,-0.00775146484375
0.03338623046875,0.023895263671875,-0.018707275390625
0.0396270751953125,0.0192413330078125,-0.0355224609375
0.043212890625,0.01416015625,-0.0448150634765625
0.05047607421875,0.009063720703125,-0.0560150146484375
0.0517730712890625,0.0020751953125,-0.0661773681640625
0.050750732421875,-0.0017852783203125,-0.0830535888671875
3.12042236328125,-1.17547607421875,-7.711181640625
-2.660797119140625,-0.3592071533203125,-2.1828765869140625
-0.5253448486328125,-0.1624603271484375,-0.2317047119140625
-0.2692718505859375,-0.123199462890625,0.0098419189453125
-0.2336578369140625,-0.22161865234375,-0.291259765625
0.27117919921875,-0.3307342529296875,-1.27593994140625
0.5919036865234375,-0.428314208984375,-1.393768310546875
-0.0890960693359375,-0.3421783447265625,-0.8796844482421875
-0.28717041015625,-0.325775146484375,-0.812774658203125
-0.1234588623046875,-0.2679443359375,-0.9375762939453124
-0.069580078125,-0.33831787109375,-0.9808502197265624
-0.14093017578125,-0.326171875,-0.9379119873046876
-0.099090576171875,-0.305145263671875,-0.96075439453125
-0.11968994140625,-0.3298187255859375,-0.9453887939453124
-0.11376953125,-0.312957763671875,-0.9466094970703124
-0.113311767578125,-0.319000244140625,-0.9464874267578124
-0.117340087890625,-0.3230438232421875,-0.945465087890625
-0.1115264892578125,-0.313690185546875,-0.945220947265625
-0.1218414306640625,-0.3232269287109375,-0.9422149658203124
-0.1117706298828125,-0.3260040283203125,-0.9600372314453124
-0.1124420166015625,-0.3156280517578125,-0.95361328125
-0.111358642578125,-0.318084716796875,-0.94781494140625
-0.1187591552734375,-0.3202972412109375,-0.944854736328125
-0.1131134033203125,-0.3197174072265625,-0.9476318359375
-0.113433837890625,-0.3207855224609375,-0.9473876953125
-0.112640380859375,-0.318267822265625,-0.946502685546875
-0.11529541015625,-0.32037353515625,-0.9451751708984376
-0.11444091796875,-0.31256103515625,-0.9398193359375
-0.1128082275390625,-0.3180694580078125,-0.9425048828125
-0.1067047119140625,-0.339935302734375,-0.9562530517578124
-0.11480712890625,-0.32904052734375,-0.95428466796875
-0.10870361328125,-0.3079986572265625,-0.9410552978515624
-0.1098480224609375,-0.3255615234375,-0.9470672607421876
-0.1114044189453125,-0.3175201416015625,-0.941925048828125
-0.1123809814453125,-0.3220672607421875,-0.9467010498046876
-0.13555908203125,-0.3093109130859375,-0.8876953125
-0.0657806396484375,-0.3399658203125,-1.0001678466796875
-0.123504638671875,-0.3793182373046875,-0.9285736083984376
-0.1495819091796875,-0.3307037353515625,-0.91229248046875
-0.0750579833984375,-0.3281707763671875,-0.982452392578125
-0.1299285888671875,-0.32855224609375,-0.923675537109375
-0.107330322265625,-0.3637237548828125,-0.9276123046875
-0.108428955078125,-0.3478546142578125,-0.967010498046875
-0.128753662109375,-0.3191375732421875,-0.94000244140625
-0.112823486328125,-0.345367431640625,-0.937957763671875
-0.1121673583984375,-0.3276824951171875,-0.939727783203125
-0.118316650390625,-0.3339080810546875,-0.9427642822265624
-0.1155853271484375,-0.3392486572265625,-0.940887451171875
-0.119476318359375,-0.327117919921875,-0.941680908203125
-0.11444091796875,-0.3372802734375,-0.9424285888671876
-0.1176605224609375,-0.330718994140625,-0.941253662109375
-0.115875244140625,-0.3339080810546875,-0.9409942626953124
-0.116790771484375,-0.33526611328125,-0.9415435791015624
-0.1156463623046875,-0.331939697265625,-0.9426116943359376
-0.1173248291015625,-0.335540771484375,-0.941192626953125
-0.11663818359375,-0.331451416015625,-0.9426727294921876
-0.1161956787109375,-0.3334808349609375,-0.9409332275390624
-0.1164398193359375,-0.33343505859375,-0.9415283203125
-0.1173553466796875,-0.332611083984375,-0.9421234130859376
-0.1167449951171875,-0.334228515625,-0.94232177734375
-0.11749267578125,-0.332550048828125,-0.94146728515625
-0.1158599853515625,-0.3343658447265625,-0.9417724609375
-0.116058349609375,-0.3329925537109375,-0.941192626953125
-0.1162261962890625,-0.333251953125,-0.9414215087890624
-0.1168365478515625,-0.334197998046875,-0.941986083984375
-0.116668701171875,-0.3326568603515625,-0.9412841796875
-0.1164398193359375,-0.3338775634765625,-0.941375732421875
-0.1169891357421875,-0.3329925537109375,-0.9421844482421876
-0.11651611328125,-0.3334808349609375,-0.9416046142578124
-0.1168212890625,-0.3338623046875,-0.9418182373046876
-0.1167144775390625,-0.333282470703125,-0.940673828125
-0.11700439453125,-0.332855224609375,-0.94158935546875
-0.1167449951171875,-0.333526611328125,-0.94122314453125
-0.1171417236328125,-0.3336944580078125,-0.941314697265625
-0.11651611328125,-0.3326263427734375,-0.9416961669921876
-0.1168975830078125,-0.33404541015625,-0.941558837890625
-0.11688232421875,-0.3331451416015625,-0.941864013671875
-0.1163482666015625,-0.3332672119140625,-0.941741943359375
-0.1163482666015625,-0.333740234375,-0.94146728515625
-0.116607666015625,-0.333587646484375,-0.94122314453125
-0.11712646484375,-0.332916259765625,-0.941314697265625
-0.116485595703125,-0.333740234375,-0.943023681640625
-0.115814208984375,-0.3331756591796875,-0.9408111572265624
-0.1174468994140625,-0.3334503173828125,-0.941802978515625
-0.1165618896484375,-0.333343505859375,-0.941009521484375
-0.116607666015625,-0.3343353271484375,-0.9414825439453124
-0.1168670654296875,-0.3333892822265625,-0.94036865234375
-0.1157684326171875,-0.3327484130859375,-0.942779541015625
-0.1171722412109375,-0.3330078125,-0.9417266845703124
-0.11627197265625,-0.3330841064453125,-0.942230224609375
-0.1163482666015625,-0.333465576171875,-0.942047119140625
-0.11663818359375,-0.3331756591796875,-0.941558837890625
-0.1162872314453125,-0.3331298828125,-0.94158935546875
-0.1172332763671875,-0.3337860107421875,-0.94091796875
-0.116180419921875,-0.3333587646484375,-0.941253662109375
-0.06640625,-0.324554443359375,-1.226165771484375
-0.121612548828125,-0.330718994140625,-0.82781982421875
-0.105072021484375,-0.3391571044921875,-0.9824371337890624
-0.10205078125,-0.3280487060546875,-0.9403076171875
-0.1332550048828125,-0.3341217041015625,-0.9394989013671876
-0.1011199951171875,-0.3272705078125,-0.951934814453125
-0.1151123046875,-0.325653076171875,-0.94171142578125
-0.1096343994140625,-0.3326873779296875,-0.94610595703125
-0.116241455078125,-0.3300628662109375,-0.94085693359375
-0.1338043212890625,-0.3406219482421875,-0.73101806640625
-0.0697784423828125,-0.327972412109375,-1.1702880859375
-0.14324951171875,-0.3236846923828125,-0.7750091552734375
-0.1038665771484375,-0.33984375,-0.9886474609375
-0.107391357421875,-0.3203277587890625,-0.94476318359375
-0.119049072265625,-0.338165283203125,-0.939208984375
-0.1089935302734375,-0.3269500732421875,-0.9506072998046876
-0.1472930908203125,-0.2915496826171875,-1.216278076171875
-0.075775146484375,-0.3297882080078125,-0.8617706298828125
-0.139129638671875,-0.3480682373046875,-0.9477386474609376
-0.10076904296875,-0.309906005859375,-0.9357452392578124
-0.1216583251953125,-0.32598876953125,-0.9488677978515624
-0.0790557861328125,-0.320465087890625,-0.9109039306640624
-0.0756683349609375,-0.32183837890625,-0.916015625
-0.1409759521484375,-0.3473052978515625,-0.94659423828125
-0.1173095703125,-0.3082122802734375,-0.9344482421875
-0.1067047119140625,-0.3197784423828125,-0.954254150390625
-0.110809326171875,-0.3321990966796875,-0.9435882568359376
-0.119659423828125,-0.326629638671875,-0.938873291015625
-0.114013671875,-0.3366546630859375,-0.9430389404296876
-0.1142120361328125,-0.3232879638671875,-0.9445953369140624
-0.110809326171875,-0.327606201171875,-0.9460601806640624
-0.1156463623046875,-0.327056884765625,-0.945770263671875
-0.1144866943359375,-0.3257904052734375,-0.9441986083984376
-0.1148681640625,-0.3304443359375,-0.943359375
-0.1138916015625,-0.3262176513671875,-0.944000244140625
-0.1136016845703125,-0.329559326171875,-0.9430999755859376
-0.1134033203125,-0.3272247314453125,-0.9434051513671876
-0.1147308349609375,-0.3278045654296875,-0.9442596435546876
-0.113983154296875,-0.328125,-0.9433746337890624
-0.113861083984375,-0.3267364501953125,-0.943603515625
-0.113800048828125,-0.328369140625,-0.9438934326171876
-0.1138153076171875,-0.32757568359375,-0.943572998046875
-0.1147003173828125,-0.3285980224609375,-0.9431304931640624
-0.1120147705078125,-0.3251800537109375,-0.9429168701171876
-0.100738525390625,-0.3400421142578125,-0.959930419921875
