AccelerationX,AccelerationY,AccelerationZ
0.194427490234375,-0.433990478515625,-0.804168701171875
0.204559326171875,-0.42034912109375,-0.6962890625
0.2297821044921875,-0.2513427734375,-0.7927398681640625
0.138153076171875,-0.1557159423828125,-0.724639892578125
0.394256591796875,-0.39459228515625,-0.8411865234375
0.278778076171875,-0.2523193359375,-0.78741455078125
0.2392120361328125,-0.1951904296875,-0.756103515625
0.250152587890625,-0.2012939453125,-0.8418426513671875
0.36572265625,-0.2668914794921875,-1.14398193359375
0.321136474609375,-0.1609039306640625,-0.8653106689453125
0.3911590576171875,-0.2665252685546875,-0.9552001953125
0.409149169921875,-0.1191864013671875,-0.86376953125
0.3184661865234375,-0.10174560546875,-0.8558349609375
0.336151123046875,-0.1047210693359375,-0.9236907958984376
0.3719482421875,-0.0809326171875,-0.9232330322265624
0.3379669189453125,-0.0963897705078125,-0.874725341796875
0.43255615234375,-0.1400909423828125,-0.9278411865234376
0.54705810546875,-0.2459564208984375,-1.049224853515625
0.586822509765625,-0.1689910888671875,-0.9113311767578124
0.6644287109375,-0.1707611083984375,-0.914764404296875
0.6293182373046875,-0.128082275390625,-0.9413299560546876
0.71038818359375,-0.147674560546875,-0.9291839599609376
0.6380615234375,-0.075286865234375,-0.864715576171875
0.59722900390625,-0.0776214599609375,-0.8508453369140625
0.53863525390625,-0.0373077392578125,-0.8641510009765625
0.5579833984375,-0.01666259765625,-0.8723907470703125
0.5231170654296875,0.02471923828125,-0.920013427734375
0.62646484375,0.063812255859375,-0.9395904541015624
0.6235198974609375,0.1004486083984375,-0.8994903564453125
0.6666259765625,0.0450439453125,-0.8958282470703125
0.6067657470703125,0.0860137939453125,-0.84423828125
0.6424713134765625,0.0827484130859375,-0.8063201904296875
0.6410675048828125,0.1163177490234375,-0.752899169921875
0.6180419921875,0.1334991455078125,-0.7459564208984375
0.6577301025390625,0.148284912109375,-0.78948974609375
0.6578369140625,0.100433349609375,-0.8042449951171875
0.5880279541015625,0.043853759765625,-0.7607879638671875
0.53436279296875,-0.0105438232421875,-0.7107696533203125
0.5183258056640625,-0.0114288330078125,-0.71478271484375
0.47369384765625,-0.027740478515625,-0.7392730712890625
0.46380615234375,-0.0725250244140625,-0.759307861328125
0.4557952880859375,-0.0181427001953125,-0.71697998046875
0.4345550537109375,-0.0333099365234375,-0.6951904296875
0.493804931640625,-0.096954345703125,-0.742706298828125
0.533203125,-0.1400604248046875,-0.8260955810546875
0.4789886474609375,-0.153167724609375,-0.7168731689453125
0.5870819091796875,-0.253631591796875,-0.7889862060546875
0.24603271484375,0.009429931640625,-0.876068115234375
0.2260894775390625,-0.005767822265625,-0.935699462890625
0.1501007080078125,0.1259307861328125,-0.8848114013671875
0.2453155517578125,0.07904052734375,-0.9005889892578125
0.341461181640625,0.0565185546875,-1.1927032470703125
0.403076171875,-0.059844970703125,-1.17474365234375
0.3510894775390625,0.091278076171875,-1.0855712890625
0.2876434326171875,0.1110076904296875,-1.0815887451171875
0.17926025390625,0.098724365234375,-1.17901611328125
0.159881591796875,-0.037994384765625,-1.2149200439453125
0.1222686767578125,-0.03094482421875,-1.116790771484375
0.0273590087890625,-0.013214111328125,-1.21063232421875
0.08734130859375,-0.0071258544921875,-1.119293212890625
0.0596923828125,0.0552215576171875,-1.1158294677734375
0.0599365234375,-0.0044097900390625,-1.0688934326171875
0.0585479736328125,-0.0717315673828125,-1.024932861328125
0.0655059814453125,-0.037445068359375,-1.0362548828125
0.0689239501953125,-0.0388641357421875,-1.0442352294921875
0.08734130859375,-0.037384033203125,-1.0054931640625
0.10284423828125,0.03155517578125,-0.96417236328125
0.145965576171875,0.0700531005859375,-0.934967041015625
0.1662750244140625,0.12603759765625,-0.9998779296875
0.164276123046875,0.14361572265625,-1.06671142578125
0.24432373046875,0.2069091796875,-1.2277679443359375
0.264739990234375,0.1446075439453125,-1.058197021484375
0.3162841796875,0.045135498046875,-0.96624755859375
0.3677978515625,0.1044464111328125,-1.0303497314453125
0.3959503173828125,0.14227294921875,-1.00677490234375
0.399169921875,0.09637451171875,-0.8782196044921875
0.4333953857421875,0.111358642578125,-0.9138641357421876
0.49298095703125,0.212890625,-1.10888671875
0.5427703857421875,0.265289306640625,-1.246612548828125
0.5636444091796875,0.1533050537109375,-1.0420989990234375
0.5472564697265625,0.062164306640625,-0.8385162353515625
0.477294921875,0.11846923828125,-0.851654052734375
0.439239501953125,0.1883087158203125,-0.9752960205078124
0.360321044921875,0.2093658447265625,-0.9902801513671876
0.3281707763671875,0.117401123046875,-0.98272705078125
0.26507568359375,0.0518798828125,-0.9415435791015624
0.249725341796875,0.0584564208984375,-0.921844482421875
0.2024688720703125,0.0593719482421875,-0.8806915283203125
0.15380859375,0.114715576171875,-0.91534423828125
0.1266021728515625,0.131988525390625,-0.8629608154296875
0.11444091796875,0.128753662109375,-0.86053466796875
0.090362548828125,0.1397247314453125,-0.8581390380859375
0.089508056640625,0.1263885498046875,-0.882476806640625
0.0703582763671875,0.1034698486328125,-0.962066650390625
0.1037445068359375,0.1212005615234375,-1.0888519287109375
0.2542266845703125,0.197113037109375,-1.2537078857421875
0.3099365234375,0.1515045166015625,-1.1544342041015625
0.297332763671875,0.0563812255859375,-1.054229736328125
0.2913055419921875,0.0716552734375,-1.14337158203125
0.305419921875,0.072601318359375,-1.1258392333984375
0.3324737548828125,-0.026824951171875,-0.987640380859375
0.28857421875,-0.0630035400390625,-0.831329345703125
0.2505950927734375,-0.019500732421875,-0.858245849609375
0.317474365234375,0.064483642578125,-1.066314697265625
0.393280029296875,0.122283935546875,-1.1241302490234375
0.36566162109375,0.083251953125,-1.0114288330078125
0.306732177734375,-0.0012359619140625,-0.906341552734375
0.2470245361328125,0.03045654296875,-0.9618682861328124
0.2695465087890625,0.1393585205078125,-1.0574798583984375
0.3025360107421875,0.165802001953125,-0.944000244140625
0.335693359375,0.1728668212890625,-0.9377288818359376
0.3258819580078125,0.1638641357421875,-0.9352569580078124
0.3278045654296875,0.1623992919921875,-0.9471588134765624
0.3245086669921875,0.1659698486328125,-0.9471435546875
0.342437744140625,0.1753997802734375,-0.931182861328125
0.3552703857421875,0.1583404541015625,-0.8892669677734375
0.3698577880859375,0.1928558349609375,-0.91131591796875
0.363800048828125,0.215576171875,-0.9308929443359376
0.3636627197265625,0.1760101318359375,-0.90557861328125
0.335296630859375,0.1478729248046875,-0.8748626708984375
0.3212738037109375,0.1217498779296875,-0.83367919921875
0.305267333984375,0.152069091796875,-0.874053955078125
0.2965240478515625,0.1631927490234375,-0.942840576171875
0.3169403076171875,0.14337158203125,-0.9847259521484376
0.3203277587890625,0.1169586181640625,-1.0096435546875
0.2984771728515625,0.0821380615234375,-1.051849365234375
0.3470916748046875,0.168365478515625,-1.3446807861328125
0.2574462890625,0.006439208984375,-1.068878173828125
0.2659759521484375,-0.100372314453125,-0.9116668701171876
0.2379608154296875,-0.0030975341796875,-0.897125244140625
0.2977294921875,0.06768798828125,-0.85540771484375
0.3663177490234375,0.269195556640625,-0.933868408203125
0.3607177734375,0.3812408447265625,-1.0140838623046875
0.3713226318359375,0.2402496337890625,-1.0641632080078125
0.3640289306640625,0.067779541015625,-1.022613525390625
0.3427734375,-0.0241241455078125,-0.964935302734375
0.395843505859375,0.019744873046875,-0.9465179443359376
0.4752655029296875,0.159820556640625,-0.997161865234375
0.4882354736328125,0.227813720703125,-1.02532958984375
0.453033447265625,0.196868896484375,-0.9911651611328124
0.422515869140625,0.1985626220703125,-0.9349365234375
0.3809814453125,0.2116851806640625,-0.8724365234375
0.338714599609375,0.2135009765625,-0.8510894775390625
0.2934112548828125,0.1979522705078125,-0.8344573974609375
0.239898681640625,0.181793212890625,-0.80767822265625
0.196044921875,0.18988037109375,-0.8330230712890625
0.17169189453125,0.2003173828125,-0.8828887939453125
0.1773834228515625,0.1717529296875,-0.897125244140625
0.1940155029296875,0.13177490234375,-0.9051055908203124
0.20989990234375,0.1082763671875,-0.9589385986328124
0.2452392578125,0.125,-1.0878753662109375
0.3777313232421875,0.205596923828125,-1.3284149169921875
0.4616851806640625,0.243927001953125,-1.262115478515625
0.445068359375,0.2115478515625,-1.0630645751953125
0.3257904052734375,0.0836944580078125,-0.9985504150390624
0.208282470703125,-0.132232666015625,-0.9293060302734376
0.15789794921875,-0.2613677978515625,-0.8398895263671875
0.19146728515625,-0.1490478515625,-0.8650970458984375
0.303558349609375,0.1172027587890625,-1.0985565185546875
0.3789825439453125,0.21612548828125,-1.2188262939453125
0.37451171875,0.09930419921875,-1.0419158935546875
0.30596923828125,0.0867767333984375,-0.9372711181640624
0.2813568115234375,0.172821044921875,-0.9770660400390624
0.31085205078125,0.23944091796875,-0.9791107177734376
0.3337860107421875,0.263916015625,-0.9397735595703124
0.3097991943359375,0.269500732421875,-0.9229583740234376
0.2744293212890625,0.2218475341796875,-0.9211578369140624
0.2644805908203125,0.197235107421875,-0.928375244140625
0.2752227783203125,0.181976318359375,-0.89312744140625
0.2818450927734375,0.19049072265625,-0.8672027587890625
0.30316162109375,0.2042236328125,-0.86053466796875
0.3117828369140625,0.239013671875,-0.9263763427734376
0.30999755859375,0.30889892578125,-1.126708984375
0.2919464111328125,0.1910400390625,-1.026092529296875
0.269073486328125,0.0728759765625,-0.920867919921875
0.2125701904296875,0.1339111328125,-0.9624786376953124
0.230224609375,0.145111083984375,-0.894805908203125
0.263641357421875,0.0615997314453125,-0.7458343505859375
0.2797088623046875,0.09771728515625,-0.8659515380859375
0.35711669921875,0.225311279296875,-1.1171417236328125
0.3865814208984375,0.1932830810546875,-1.1661834716796875
0.419586181640625,0.011138916015625,-1.0235443115234375
0.47540283203125,-0.12200927734375,-0.8860321044921875
0.5009918212890625,-0.05560302734375,-0.88616943359375
0.554443359375,0.0820159912109375,-0.9658355712890624
0.555145263671875,0.1735687255859375,-0.966583251953125
0.52606201171875,0.1608428955078125,-0.8985748291015625
0.486541748046875,0.108917236328125,-0.8754119873046875
0.483062744140625,0.099639892578125,-0.9213714599609376
0.4991302490234375,0.1105194091796875,-0.8934173583984375
0.495086669921875,0.1187591552734375,-0.85577392578125
0.47943115234375,0.11468505859375,-0.860931396484375
0.4379425048828125,0.1267852783203125,-0.86553955078125
0.4097900390625,0.14581298828125,-0.934844970703125
0.3990936279296875,0.2589874267578125,-1.201416015625
0.4110870361328125,0.2030487060546875,-1.1006317138671875
0.4077911376953125,0.17645263671875,-0.9273834228515624
0.3360443115234375,0.1603546142578125,-0.9146728515625
0.3039093017578125,0.0296630859375,-0.9185791015625
0.2747802734375,-0.05999755859375,-0.8873748779296875
0.2998809814453125,-0.0567169189453125,-0.8621978759765625
0.3554534912109375,0.0663299560546875,-0.94158935546875
0.38641357421875,0.20123291015625,-1.0586090087890625
0.3732147216796875,0.1859893798828125,-0.9522552490234376
0.282989501953125,0.1078948974609375,-0.83502197265625
0.2108306884765625,0.0816650390625,-0.825958251953125
0.2147216796875,0.0791778564453125,-0.9103546142578124
0.2568206787109375,0.059539794921875,-0.9807281494140624
0.30535888671875,0.036102294921875,-1.0013275146484375
0.2985992431640625,0.0218658447265625,-1.02642822265625
0.2771759033203125,-0.0151214599609375,-1.043701171875
0.2585906982421875,-0.052490234375,-1.0389556884765625
0.251800537109375,-0.05657958984375,-1.000244140625
0.258026123046875,-0.0272216796875,-0.9608917236328124
0.2452850341796875,0.011199951171875,-0.954437255859375
0.2297821044921875,0.0358123779296875,-0.9698486328125
0.2166290283203125,0.0550384521484375,-0.9578704833984376
0.2098388671875,0.0849609375,-0.9472198486328124
0.1939697265625,0.112335205078125,-0.91424560546875
0.1844635009765625,0.103485107421875,-0.8789825439453125
0.234375,0.1130828857421875,-0.972198486328125
0.3526458740234375,0.3234405517578125,-1.2891082763671875
0.3730010986328125,0.1274261474609375,-1.00146484375
0.360992431640625,-0.0496978759765625,-0.922088623046875
0.3080596923828125,0.042388916015625,-1.0387725830078125
0.34613037109375,0.0919647216796875,-0.9181976318359376
0.3740234375,0.1177215576171875,-0.74786376953125
0.3586883544921875,0.201873779296875,-0.8225860595703125
0.3356170654296875,0.366180419921875,-1.064422607421875
0.3660736083984375,0.3105316162109375,-1.0496673583984375
0.427337646484375,0.112213134765625,-0.9059295654296876
0.396881103515625,0.0322418212890625,-0.863006591796875
0.35430908203125,0.0748291015625,-0.92144775390625
0.369140625,0.18133544921875,-0.9710693359375
0.402069091796875,0.221710205078125,-0.95416259765625
0.3736114501953125,0.2204742431640625,-0.8981475830078125
0.3054656982421875,0.172210693359375,-0.867279052734375
0.2661895751953125,0.146759033203125,-0.89837646484375
0.2563323974609375,0.1496429443359375,-0.9488983154296876
0.28411865234375,0.1500244140625,-0.9785614013671876
0.3118133544921875,0.1524658203125,-0.9939117431640624
0.32757568359375,0.1348114013671875,-1.0042572021484375
0.32989501953125,0.113494873046875,-1.00067138671875
0.327606201171875,0.085784912109375,-0.9971466064453124
0.3281707763671875,0.08587646484375,-1.0076904296875
0.33306884765625,0.1016387939453125,-0.9671630859375
0.333953857421875,0.10113525390625,-0.9279632568359376
0.373382568359375,0.1113739013671875,-1.01806640625
0.4590301513671875,0.1377105712890625,-1.0936737060546875
0.4572601318359375,0.0831298828125,-1.0495452880859375
0.4421539306640625,0.0717620849609375,-1.019775390625
0.4240570068359375,0.070098876953125,-0.9218597412109376
0.3939361572265625,0.0518646240234375,-0.9044189453125
0.37286376953125,0.0711669921875,-0.9481964111328124
0.3793182373046875,0.08538818359375,-0.942718505859375
0.405792236328125,0.1134796142578125,-0.93719482421875
0.4055023193359375,0.1544647216796875,-0.9316864013671876
0.421539306640625,0.1558990478515625,-0.8981475830078125
0.4447174072265625,0.216156005859375,-0.9481201171875
0.4582977294921875,0.29510498046875,-1.0208892822265625
0.46405029296875,0.2860107421875,-0.997222900390625
0.4573516845703125,0.1928253173828125,-0.9249114990234376
0.4190216064453125,0.1548919677734375,-0.8571624755859375
0.3980255126953125,0.195526123046875,-0.858856201171875
0.4173583984375,0.2376251220703125,-0.8845062255859375
0.42291259765625,0.2318572998046875,-0.8723602294921875
0.387115478515625,0.167999267578125,-0.853668212890625
0.33087158203125,0.124176025390625,-0.8891143798828125
0.3136749267578125,0.0974578857421875,-0.9443511962890624
0.3089447021484375,0.0836334228515625,-0.9586029052734376
0.314605712890625,0.0938568115234375,-0.953826904296875
0.2861785888671875,0.116180419921875,-0.9485931396484376
0.2493438720703125,0.069549560546875,-0.9267120361328124
0.237518310546875,0.070892333984375,-0.93035888671875
0.2599029541015625,0.10394287109375,-0.9072723388671876
0.287139892578125,0.1286468505859375,-0.8878936767578125
0.2856903076171875,0.1183013916015625,-0.88311767578125
0.2603302001953125,0.1143951416015625,-0.8860931396484375
0.2281036376953125,0.1405792236328125,-0.928375244140625
0.2326202392578125,0.153045654296875,-0.978790283203125
0.2561798095703125,0.082366943359375,-0.95770263671875
0.2795562744140625,0.075042724609375,-1.0527496337890625
0.3379974365234375,0.1770782470703125,-1.238067626953125
0.4013214111328125,0.049346923828125,-1.17901611328125
0.4454193115234375,0.016448974609375,-1.2314605712890625
0.4107208251953125,-0.052520751953125,-0.977569580078125
0.398651123046875,-0.0729217529296875,-0.846710205078125
0.3779296875,0.108306884765625,-0.9516754150390624
0.4100799560546875,0.164825439453125,-1.066131591796875
0.469512939453125,0.1260833740234375,-1.09490966796875
0.4480133056640625,0.12286376953125,-1.067657470703125
0.412872314453125,0.1673583984375,-1.062713623046875
0.4016265869140625,0.1967315673828125,-1.0218505859375
0.4112091064453125,0.1961517333984375,-0.957763671875
0.390167236328125,0.219696044921875,-0.9066619873046876
0.357086181640625,0.2166595458984375,-0.85076904296875
0.34185791015625,0.184356689453125,-0.783355712890625
0.335784912109375,0.200164794921875,-0.7826995849609375
0.322418212890625,0.21978759765625,-0.7899322509765625
0.29730224609375,0.1934356689453125,-0.777008056640625
0.258056640625,0.1812286376953125,-0.800811767578125
0.249053955078125,0.1611175537109375,-0.877716064453125
0.25115966796875,0.1715087890625,-0.9823760986328124
0.2979583740234375,0.1211395263671875,-1.0430755615234375
0.3749237060546875,0.09991455078125,-1.0484619140625
0.283477783203125,0.1462249755859375,-1.077667236328125
0.2943115234375,0.150970458984375,-1.1050567626953125
0.3285064697265625,0.17120361328125,-1.0715484619140625
0.3387908935546875,0.1242523193359375,-1.0456695556640625
0.3129730224609375,0.0797119140625,-1.086029052734375
0.2957611083984375,0.0146026611328125,-1.12109375
0.298675537109375,-0.0506744384765625,-1.08746337890625
0.2982635498046875,-0.0973052978515625,-1.002777099609375
0.3330078125,-0.061553955078125,-1.0596771240234375
0.4143218994140625,0.0070648193359375,-1.165283203125
0.4076080322265625,0.0168914794921875,-1.0585174560546875
0.350128173828125,-0.0027008056640625,-0.942535400390625
0.2665557861328125,0.0541229248046875,-0.997344970703125
0.3339080810546875,0.0777130126953125,-1.0040283203125
0.3527069091796875,0.1564483642578125,-1.0078277587890625
0.393280029296875,0.14886474609375,-1.037078857421875
0.436798095703125,0.1547088623046875,-1.0467376708984375
0.46148681640625,0.23870849609375,-1.1116943359375
0.4779205322265625,0.333953857421875,-1.2115631103515625
0.434112548828125,0.35308837890625,-1.1988983154296875
0.3772125244140625,0.4023590087890625,-1.15753173828125
0.43365478515625,0.266326904296875,-0.908966064453125
0.3934173583984375,0.146148681640625,-0.866973876953125
0.34442138671875,0.24615478515625,-0.874786376953125
0.295440673828125,0.26202392578125,-0.815887451171875
0.248748779296875,0.265716552734375,-0.806060791015625
0.2133331298828125,0.1624603271484375,-0.8546295166015625
0.195526123046875,0.0767822265625,-0.930328369140625
0.2184295654296875,0.029876708984375,-0.9516754150390624
0.2091522216796875,-0.0007171630859375,-1.0016937255859375
0.182373046875,0.002197265625,-1.05322265625
0.176910400390625,-0.000946044921875,-1.048248291015625
0.1927642822265625,0.043548583984375,-1.0928802490234375
0.2192840576171875,0.039947509765625,-1.1414031982421875
0.2254638671875,-0.0048980712890625,-1.045654296875
0.2652587890625,0.025543212890625,-1.028900146484375
0.30767822265625,0.063446044921875,-1.068572998046875
0.3652496337890625,0.0587921142578125,-1.0234375
0.3896636962890625,0.0064239501953125,-0.91748046875
0.3779449462890625,0.013427734375,-0.86724853515625
0.33648681640625,0.03863525390625,-0.830841064453125
0.3389434814453125,0.075927734375,-0.821502685546875
0.3759002685546875,0.201080322265625,-1.0431060791015625
0.429779052734375,0.248321533203125,-1.2247467041015625
0.484405517578125,0.1049957275390625,-1.1169891357421875
0.5037841796875,0.0528717041015625,-0.949554443359375
0.5155181884765625,0.1126708984375,-0.91998291015625
0.4782257080078125,0.2198028564453125,-0.9760589599609376
0.4429168701171875,0.3030242919921875,-0.9992523193359376
0.39886474609375,0.3102874755859375,-0.9519805908203124
0.3386993408203125,0.2800750732421875,-0.9198455810546876
0.31463623046875,0.240997314453125,-0.9111785888671876
0.2978973388671875,0.2431793212890625,-0.92431640625
0.2702789306640625,0.2618865966796875,-0.9438323974609376
0.2446746826171875,0.25457763671875,-0.9181671142578124
0.2076568603515625,0.2723541259765625,-0.9203033447265624
0.2214813232421875,0.31951904296875,-1.07513427734375
0.188720703125,0.3186187744140625,-0.9957122802734376
0.2157745361328125,0.2122344970703125,-0.92694091796875
0.2194366455078125,0.2321014404296875,-0.9936676025390624
0.221527099609375,0.203704833984375,-0.9970855712890624
0.2597808837890625,0.05523681640625,-0.9146728515625
0.26995849609375,-0.0426177978515625,-0.916046142578125
0.3047027587890625,0.0220794677734375,-1.0250244140625
0.4047698974609375,0.1103973388671875,-1.106048583984375
0.4365386962890625,0.1585693359375,-1.0432586669921875
0.39520263671875,0.09942626953125,-0.9084625244140624
0.2884979248046875,0.077117919921875,-0.882415771484375
0.230621337890625,0.0861053466796875,-0.9360198974609376
0.2676849365234375,0.092132568359375,-0.96771240234375
0.330474853515625,0.115966796875,-0.948455810546875
0.3315887451171875,0.113861083984375,-0.953521728515625
0.3079376220703125,0.0779266357421875,-0.964752197265625
0.287689208984375,0.0846099853515625,-0.97442626953125
0.272247314453125,0.0924224853515625,-0.9621734619140624
0.2936859130859375,0.0981292724609375,-0.9453887939453124
0.31658935546875,0.120635986328125,-0.9389190673828124
0.328582763671875,0.122039794921875,-0.9123077392578124
0.3228912353515625,0.11944580078125,-0.8963470458984375
0.32513427734375,0.1225433349609375,-0.9230499267578124
0.3601531982421875,0.12115478515625,-0.9722442626953124
0.4494781494140625,0.177886962890625,-1.159912109375
0.4583740234375,0.1662445068359375,-1.0817413330078125
0.4503936767578125,0.008758544921875,-0.9089508056640624
0.439544677734375,0.039154052734375,-0.9863739013671876
0.4661407470703125,0.1245269775390625,-1.003021240234375
0.513519287109375,0.097625732421875,-0.8473968505859375
0.49298095703125,0.1086273193359375,-0.7438201904296875
0.4885101318359375,0.2421875,-1.0268402099609375
0.4980621337890625,0.297149658203125,-1.2014923095703125
0.5891265869140625,0.189056396484375,-1.098541259765625
0.5987091064453125,0.1660614013671875,-0.8881072998046875
0.5285797119140625,0.2504730224609375,-0.8464813232421875
0.481109619140625,0.2784271240234375,-0.902984619140625
0.469024658203125,0.2728271484375,-0.9393768310546876
0.4183349609375,0.2259979248046875,-0.944000244140625
0.33905029296875,0.2210693359375,-0.9364166259765624
0.3084564208984375,0.194000244140625,-0.877349853515625
0.2955780029296875,0.1934661865234375,-0.8161468505859375
0.26348876953125,0.2115478515625,-0.82928466796875
0.2326202392578125,0.2065582275390625,-0.861419677734375
0.2149505615234375,0.18695068359375,-0.9058074951171876
0.2028961181640625,0.1612548828125,-0.9251556396484376
0.21685791015625,0.129913330078125,-0.953460693359375
0.253173828125,0.1526031494140625,-1.1020660400390625
0.3186492919921875,0.2683258056640625,-1.3108062744140625
0.345703125,0.173583984375,-1.0941314697265625
0.214996337890625,0.2181549072265625,-0.939971923828125
0.2112274169921875,0.07958984375,-0.8142242431640625
0.2466583251953125,-0.1725311279296875,-0.8618011474609375
0.265594482421875,-0.0633697509765625,-1.113922119140625
0.344696044921875,0.13787841796875,-1.1521453857421875
0.400970458984375,0.2241973876953125,-0.951324462890625
0.3527374267578125,0.1804962158203125,-0.8757476806640625
0.27252197265625,0.1052398681640625,-0.9056396484375
0.2271728515625,0.1163482666015625,-0.920013427734375
0.3114166259765625,0.1464996337890625,-0.9181671142578124
0.3957672119140625,0.21087646484375,-0.9542694091796876
0.437530517578125,0.2489471435546875,-0.9319915771484376
0.450469970703125,0.2334747314453125,-0.882659912109375
0.463409423828125,0.1996917724609375,-0.862030029296875
0.4671173095703125,0.1844940185546875,-0.85845947265625
0.490142822265625,0.184661865234375,-0.8704071044921875
0.5019989013671875,0.1959075927734375,-0.8650665283203125
0.4940948486328125,0.2052764892578125,-0.851043701171875
0.475311279296875,0.2179107666015625,-0.907012939453125
0.4471435546875,0.2263336181640625,-0.9715728759765624
0.4608306884765625,0.1636505126953125,-0.998321533203125
0.4988555908203125,0.242095947265625,-1.1858367919921875
0.46142578125,0.1350555419921875,-0.9976806640625
0.4578857421875,0.0742340087890625,-0.9883270263671876
0.4053955078125,0.1373443603515625,-0.8994903564453125
0.3992919921875,0.070831298828125,-0.6962432861328125
0.4210662841796875,0.2253875732421875,-0.8802642822265625
0.46258544921875,0.299560546875,-1.0319671630859375
0.5368804931640625,0.1571044921875,-1.0585174560546875
0.5787506103515625,0.0234527587890625,-0.8908843994140625
0.53094482421875,0.0400848388671875,-0.865142822265625
0.467803955078125,0.1866607666015625,-0.9489288330078124
0.463226318359375,0.2441253662109375,-0.9748687744140624
0.467498779296875,0.19403076171875,-0.8952484130859375
0.4134979248046875,0.1719818115234375,-0.8465118408203125
0.3580780029296875,0.15728759765625,-0.855438232421875
0.3434295654296875,0.155487060546875,-0.8556976318359375
0.34686279296875,0.1761627197265625,-0.8578338623046875
0.313751220703125,0.1734466552734375,-0.830047607421875
0.2729339599609375,0.1409149169921875,-0.8142852783203125
0.26092529296875,0.1451873779296875,-0.813629150390625
0.2733612060546875,0.1689605712890625,-0.913330078125
0.3741607666015625,0.2825164794921875,-1.328643798828125
0.4180145263671875,0.410003662109375,-1.3423919677734375
0.460601806640625,0.2513275146484375,-1.0552215576171875
0.3365478515625,0.0404815673828125,-0.8446807861328125
0.1532745361328125,-0.115386962890625,-0.784210205078125
0.1458740234375,-0.11688232421875,-0.8038330078125
0.21380615234375,0.0955047607421875,-0.980712890625
0.331298828125,0.257537841796875,-1.0854034423828125
0.4715576171875,0.28265380859375,-0.96258544921875
0.4999542236328125,0.1572265625,-0.8177490234375
0.421722412109375,0.138153076171875,-0.8675537109375
0.354156494140625,0.1747894287109375,-0.9357452392578124
0.367889404296875,0.1878204345703125,-0.9365997314453124
0.42535400390625,0.21087646484375,-0.906829833984375
0.4512786865234375,0.22283935546875,-0.8969573974609375
0.45794677734375,0.2266082763671875,-0.9024505615234376
0.44781494140625,0.23089599609375,-0.905731201171875
0.4250640869140625,0.2295074462890625,-0.89178466796875
0.4063873291015625,0.222442626953125,-0.87847900390625
0.3953704833984375,0.212066650390625,-0.8741607666015625
0.3962860107421875,0.19110107421875,-0.8651580810546875
0.3907928466796875,0.177886962890625,-0.8671112060546875
0.3897247314453125,0.1724700927734375,-0.8541412353515625
0.4080047607421875,0.1773223876953125,-0.8419952392578125
0.412628173828125,0.181732177734375,-0.8958740234375
0.40789794921875,0.180633544921875,-0.9310760498046876
0.4129486083984375,0.1236572265625,-0.9487152099609376
0.3885498046875,0.089935302734375,-1.02691650390625
0.376068115234375,0.1587677001953125,-1.0588226318359375
0.4193878173828125,0.0498199462890625,-0.951751708984375
0.4625396728515625,0.0067901611328125,-0.948760986328125
0.4715118408203125,0.0357818603515625,-0.8502349853515625
0.5514984130859375,0.0056610107421875,-0.9112396240234376
0.7538299560546875,0.1156463623046875,-1.08367919921875
0.80029296875,0.20147705078125,-1.0501556396484375
0.743896484375,0.1639251708984375,-0.9657745361328124
0.625640869140625,0.1131744384765625,-0.907073974609375
0.52252197265625,0.146209716796875,-0.950225830078125
0.475433349609375,0.192718505859375,-1.0215301513671875
0.480621337890625,0.2234039306640625,-1.0120849609375
0.4501953125,0.1975250244140625,-0.95159912109375
0.3932647705078125,0.1751251220703125,-0.9680938720703124
0.36639404296875,0.1451568603515625,-0.94781494140625
0.3563995361328125,0.1403656005859375,-0.955718994140625
0.341278076171875,0.1420135498046875,-0.8975677490234375
0.31573486328125,0.1494140625,-0.8671417236328125
0.26129150390625,0.1480712890625,-0.8299102783203125
0.214508056640625,0.1708984375,-0.82635498046875
0.194366455078125,0.193450927734375,-0.86541748046875
0.227294921875,0.2848663330078125,-1.0975189208984375
0.2775115966796875,0.2984466552734375,-1.0919189453125
0.3496551513671875,0.219940185546875,-1.0035858154296875
0.3358917236328125,0.143341064453125,-0.910247802734375
0.233367919921875,-0.03509521484375,-0.865081787109375
0.162994384765625,-0.1352386474609375,-0.96649169921875
0.2057952880859375,0.02471923828125,-1.1938018798828125
0.3394012451171875,0.1753997802734375,-1.2117919921875
0.3771514892578125,0.1002197265625,-1.0277557373046875
0.3675384521484375,0.0138702392578125,-0.8791046142578125
0.251861572265625,0.0425262451171875,-0.9766387939453124
0.21136474609375,0.0831298828125,-1.0406341552734375
0.27947998046875,0.0957489013671875,-0.9907989501953124
0.319122314453125,0.0993499755859375,-0.9661407470703124
0.3235626220703125,0.0577850341796875,-0.9591522216796876
0.3101348876953125,0.039886474609375,-0.94866943359375
0.3121185302734375,0.0980377197265625,-0.95037841796875
0.324371337890625,0.1544036865234375,-0.9161224365234376
0.3325042724609375,0.192779541015625,-0.8863983154296875
0.3633270263671875,0.2050628662109375,-0.87213134765625
0.3923187255859375,0.193603515625,-0.8826904296875
0.4176788330078125,0.1633148193359375,-0.8970489501953125
0.427154541015625,0.1510009765625,-0.911834716796875
0.4869842529296875,0.2248382568359375,-1.1415557861328125
0.468536376953125,0.1986541748046875,-1.0568389892578125
0.4947357177734375,0.068084716796875,-0.9635162353515624
0.451873779296875,0.0988616943359375,-0.9719085693359376
0.4275665283203125,0.1069183349609375,-0.8976593017578125
0.4875335693359375,0.219329833984375,-1.002227783203125
0.521484375,0.2540283203125,-1.0217437744140625
0.557525634765625,0.176849365234375,-0.94500732421875
0.54107666015625,0.181793212890625,-0.8838958740234375
0.5025482177734375,0.2570037841796875,-0.9029541015625
0.4947967529296875,0.3029632568359375,-0.9377288818359376
0.5167236328125,0.2645416259765625,-0.93145751953125
0.5267333984375,0.209808349609375,-0.868621826171875
0.481292724609375,0.1913604736328125,-0.862335205078125
0.443389892578125,0.2103271484375,-0.8837890625
0.423095703125,0.2028961181640625,-0.8650360107421875
0.380157470703125,0.187469482421875,-0.82061767578125
0.342864990234375,0.16650390625,-0.8311004638671875
0.29290771484375,0.1699371337890625,-0.87603759765625
0.2616729736328125,0.1383819580078125,-0.899871826171875
0.2348480224609375,0.1229705810546875,-0.8886260986328125
0.2100067138671875,0.0800018310546875,-0.8867034912109375
0.2041015625,0.07598876953125,-0.907379150390625
0.2226409912109375,0.0926055908203125,-0.9628448486328124
0.22698974609375,0.1385955810546875,-1.0071258544921875
0.3326263427734375,0.181793212890625,-1.2674407958984375
0.3357696533203125,0.2696685791015625,-1.3477020263671875
0.277374267578125,0.1041107177734375,-1.00311279296875
0.258544921875,0.063079833984375,-1.0832672119140625
0.1903076171875,-0.021575927734375,-1.05743408203125
0.20904541015625,-0.19097900390625,-0.825408935546875
0.290496826171875,-0.0992889404296875,-0.8396453857421875
0.3454742431640625,0.07415771484375,-1.073455810546875
0.3941497802734375,0.092926025390625,-1.1063385009765625
0.4283447265625,0.0775909423828125,-0.9654998779296876
0.38238525390625,0.1290435791015625,-0.9023895263671876
0.3507232666015625,0.16754150390625,-0.9490203857421876
0.3489990234375,0.199310302734375,-0.9783477783203124
0.3732452392578125,0.1907806396484375,-0.9539947509765624
0.3784332275390625,0.154205322265625,-0.9094696044921876
0.380340576171875,0.1653900146484375,-0.912933349609375
0.3835906982421875,0.193939208984375,-0.9202423095703124
0.3856658935546875,0.1784210205078125,-0.877685546875
0.382843017578125,0.16339111328125,-0.828094482421875
0.3694610595703125,0.1870269775390625,-0.8167724609375
0.3549346923828125,0.1985626220703125,-0.8224945068359375
0.3511962890625,0.161468505859375,-0.81396484375
0.3425445556640625,0.10662841796875,-0.8076019287109375
0.3203582763671875,0.0889129638671875,-0.882476806640625
0.3391571044921875,0.1046905517578125,-1.0043487548828125
0.4049530029296875,0.2281646728515625,-1.2960662841796875
0.3952178955078125,0.18212890625,-1.1209259033203125
0.371856689453125,-0.02044677734375,-0.918365478515625
0.2936553955078125,-0.0735931396484375,-0.87200927734375
0.3334197998046875,0.0532073974609375,-0.9860076904296876
0.457183837890625,0.1463775634765625,-1.1137237548828125
0.521484375,0.1160430908203125,-1.0780487060546875
0.5475921630859375,0.12548828125,-1.011688232421875
0.5131378173828125,0.147491455078125,-0.9191741943359376
0.448394775390625,0.1709747314453125,-0.9346923828125
0.443939208984375,0.1900787353515625,-0.9756011962890624
0.478607177734375,0.1820831298828125,-0.997772216796875
0.5429229736328125,0.2015533447265625,-0.97039794921875
0.5716552734375,0.208770751953125,-0.924102783203125
0.5560302734375,0.2254638671875,-0.9275360107421876
0.5177001953125,0.2260284423828125,-0.9183502197265624
0.4765777587890625,0.21893310546875,-0.85040283203125
0.43603515625,0.2108154296875,-0.79248046875
0.373565673828125,0.20123291015625,-0.7836456298828125
0.2938995361328125,0.200714111328125,-0.8313140869140625
0.2276611328125,0.176910400390625,-0.8772430419921875
0.2085113525390625,0.1667938232421875,-0.884552001953125
0.202392578125,0.134521484375,-0.9873046875
0.211578369140625,0.226776123046875,-1.2076873779296875
0.2504425048828125,0.21533203125,-1.1454315185546875
0.23956298828125,0.0512542724609375,-1.088165283203125
0.15924072265625,-0.0764007568359375,-1.025726318359375
0.1116790771484375,-0.198974609375,-0.932373046875
0.1029052734375,-0.17791748046875,-0.9619903564453124
0.203399658203125,0.025909423828125,-1.1187896728515625
0.3333587646484375,0.15643310546875,-1.1439666748046875
0.3853302001953125,0.1283111572265625,-1.005706787109375
0.3333587646484375,0.01904296875,-0.93646240234375
0.2906494140625,-0.0307464599609375,-0.96307373046875
0.3062286376953125,-0.0092926025390625,-1.006744384765625
0.382080078125,0.0198516845703125,-0.965301513671875
0.4127960205078125,0.023651123046875,-0.9221649169921876
0.38409423828125,0.0222015380859375,-0.932861328125
0.3436126708984375,0.005859375,-0.9158935546875
0.323699951171875,0.0195465087890625,-0.9026336669921876
0.3389434814453125,0.0520172119140625,-0.9019012451171876
0.3619842529296875,0.0601806640625,-0.880523681640625
0.3641510009765625,0.047088623046875,-0.8506317138671875
0.3618927001953125,0.0496673583984375,-0.8686370849609375
0.3658447265625,0.03558349609375,-0.8756866455078125
0.3785552978515625,0.016357421875,-0.893157958984375
0.473968505859375,0.1004486083984375,-1.1045074462890625
0.525543212890625,0.1626739501953125,-1.1713714599609375
0.53363037109375,-0.0010833740234375,-0.9940032958984376
0.5175628662109375,0.0416412353515625,-1.0144805908203125
0.4664154052734375,0.104217529296875,-0.932159423828125
0.4569244384765625,0.058868408203125,-0.755096435546875
0.4620208740234375,0.170166015625,-0.8401947021484375
0.4607391357421875,0.272674560546875,-1.0255889892578125
0.4906463623046875,0.1966705322265625,-1.0160980224609375
0.5384521484375,0.11737060546875,-0.92889404296875
0.53057861328125,0.103424072265625,-0.8591766357421875
0.5040740966796875,0.12261962890625,-0.898101806640625
0.510650634765625,0.1471710205078125,-0.939544677734375
0.5064849853515625,0.1629638671875,-0.9018707275390624
0.4752655029296875,0.162384033203125,-0.8575592041015625
0.41546630859375,0.15753173828125,-0.86163330078125
0.37677001953125,0.1617431640625,-0.8682403564453125
0.3603057861328125,0.1726531982421875,-0.8444061279296875
0.346099853515625,0.1575164794921875,-0.8444366455078125
0.306549072265625,0.1510772705078125,-0.8910675048828125
0.262298583984375,0.1278533935546875,-0.970306396484375
0.2308807373046875,0.105316162109375,-1.0404052734375
0.2074432373046875,0.1265869140625,-1.0174102783203125
0.21661376953125,0.13934326171875,-1.0190277099609375
0.2127227783203125,0.1428070068359375,-1.001617431640625
0.2195587158203125,0.1204986572265625,-0.99468994140625
0.25079345703125,0.115570068359375,-1.0500640869140625
0.2874603271484375,0.1602630615234375,-1.286590576171875
0.350250244140625,0.1185455322265625,-1.273223876953125
0.37152099609375,-0.0084381103515625,-0.9779510498046876
0.3282623291015625,-0.124908447265625,-0.871795654296875
0.255645751953125,-0.188690185546875,-0.839080810546875
0.310943603515625,-0.1181488037109375,-0.871551513671875
0.449737548828125,0.073760986328125,-1.0472412109375
0.5290679931640625,0.2037353515625,-1.051727294921875
0.565948486328125,0.2133636474609375,-1.0038604736328125
0.48175048828125,0.261016845703125,-1.0605621337890625
0.44525146484375,0.2646026611328125,-1.084320068359375
0.516448974609375,0.2617645263671875,-1.0712432861328125
0.4959259033203125,0.3407440185546875,-1.01312255859375
0.472412109375,0.361572265625,-0.9208526611328124
0.437408447265625,0.335723876953125,-0.81988525390625
0.372955322265625,0.30859375,-0.8200225830078125
0.321197509765625,0.3166046142578125,-0.86419677734375
0.282562255859375,0.30224609375,-0.8674774169921875
0.2569122314453125,0.28662109375,-0.83990478515625
0.2406005859375,0.26544189453125,-0.8394622802734375
0.2452850341796875,0.2086944580078125,-0.7935638427734375
0.1820526123046875,0.2223663330078125,-0.8290252685546875
0.1576385498046875,0.1977081298828125,-0.873260498046875
0.1523895263671875,0.1904296875,-0.9171600341796876
0.1539764404296875,0.2073211669921875,-0.980712890625
0.1818695068359375,0.2667999267578125,-1.2432861328125
0.15020751953125,0.322296142578125,-1.34698486328125
0.27288818359375,0.044891357421875,-1.166107177734375
0.32763671875,0.0850372314453125,-1.14068603515625
0.306884765625,0.0868988037109375,-0.989288330078125
0.3277587890625,0.039398193359375,-0.8069305419921875
0.3309478759765625,0.1271209716796875,-0.9148101806640624
0.4025115966796875,0.1589202880859375,-1.0523834228515625
0.4575347900390625,0.2164764404296875,-1.128662109375
0.5238800048828125,0.217376708984375,-1.035858154296875
0.57763671875,0.230682373046875,-0.9149932861328124
0.5931396484375,0.31866455078125,-0.9069061279296876
0.5552825927734375,0.3596954345703125,-0.915618896484375
0.471435546875,0.2839813232421875,-0.8812713623046875
0.415374755859375,0.194183349609375,-0.8956146240234375
0.361328125,0.1601104736328125,-0.9514312744140624
0.3367156982421875,0.1346282958984375,-0.9420013427734376
0.3394775390625,0.1295166015625,-0.8914947509765625
0.3299407958984375,0.1071319580078125,-0.8627166748046875
0.3047332763671875,0.108642578125,-0.870513916015625
0.2842864990234375,0.1197052001953125,-0.8649444580078125
0.26312255859375,0.130096435546875,-0.85205078125
0.25006103515625,0.113800048828125,-0.8349609375
0.23358154296875,0.0711517333984375,-0.8196258544921875
0.2503662109375,0.0615081787109375,-0.92822265625
0.2538909912109375,0.057403564453125,-1.072906494140625
0.3589630126953125,0.0733642578125,-1.3784942626953125
0.4641265869140625,0.053192138671875,-1.3312835693359375
0.5245819091796875,-0.0110931396484375,-1.1978759765625
0.5269927978515625,-0.0746917724609375,-1.077056884765625
0.41351318359375,-0.1170501708984375,-0.940185546875
0.266998291015625,-0.2319488525390625,-0.7954254150390625
0.2200927734375,-0.21795654296875,-0.823394775390625
0.3135986328125,-0.0728607177734375,-1.0048065185546875
0.463165283203125,0.0501861572265625,-1.1298828125
0.52825927734375,0.10516357421875,-1.10906982421875
0.503753662109375,0.1310882568359375,-0.997589111328125
0.4426116943359375,0.1632843017578125,-0.9404754638671876
0.4294586181640625,0.1851043701171875,-0.9011688232421876
0.4355316162109375,0.2192840576171875,-0.8948974609375
0.444427490234375,0.2224273681640625,-0.9102325439453124
0.471588134765625,0.1727447509765625,-0.9518890380859376
0.4791107177734375,0.11334228515625,-0.9523773193359376
0.5067138671875,0.078033447265625,-0.9424591064453124
0.50006103515625,0.0799560546875,-0.9295196533203124
0.4538421630859375,0.0875701904296875,-0.870849609375
0.376708984375,0.126495361328125,-0.8893280029296875
0.34075927734375,0.1185455322265625,-0.873382568359375
0.35247802734375,0.109466552734375,-0.8362884521484375
0.3539276123046875,0.1159515380859375,-0.81146240234375
0.3324127197265625,0.1060333251953125,-0.8293914794921875
0.298858642578125,0.09149169921875,-0.8417205810546875
0.2682037353515625,0.0802154541015625,-0.8623046875
0.257904052734375,0.035491943359375,-0.862823486328125
0.241424560546875,0.0041656494140625,-0.9525604248046876
0.3160858154296875,0.105865478515625,-1.276031494140625
0.3554534912109375,0.0197601318359375,-1.0604400634765625
0.4154510498046875,-0.119476318359375,-0.95855712890625
0.421966552734375,-0.1158599853515625,-1.0175018310546875
0.4227294921875,-0.08465576171875,-0.95831298828125
0.4420318603515625,-0.0224151611328125,-0.9659576416015624
0.467529296875,0.062591552734375,-1.095947265625
0.4725341796875,0.01959228515625,-1.037933349609375
0.4673919677734375,0.0258331298828125,-1.0188140869140625
0.4547576904296875,0.063262939453125,-0.9876251220703124
0.464691162109375,0.0637969970703125,-0.985198974609375
0.4741363525390625,0.107757568359375,-1.018402099609375
0.4910888671875,0.13250732421875,-0.995574951171875
0.510345458984375,0.135833740234375,-0.9581298828125
0.522216796875,0.15093994140625,-0.93316650390625
0.5171966552734375,0.1771392822265625,-0.894500732421875
0.48248291015625,0.1850128173828125,-0.8244476318359375
0.43634033203125,0.1822662353515625,-0.7829132080078125
0.387115478515625,0.1739501953125,-0.765899658203125
0.3386383056640625,0.1449737548828125,-0.7596893310546875
0.257171630859375,0.1378326416015625,-0.8636016845703125
0.20623779296875,0.0792694091796875,-0.9453582763671876
0.2102813720703125,0.0968170166015625,-1.152801513671875
0.230926513671875,0.1978607177734375,-1.2696075439453125
0.2581329345703125,0.1200714111328125,-1.1443023681640625
0.1923065185546875,0.0633544921875,-1.04144287109375
0.0911102294921875,-0.0908966064453125,-0.925811767578125
0.1149139404296875,-0.18121337890625,-0.9380950927734376
0.264190673828125,-0.0980987548828125,-1.1423187255859375
0.402801513671875,-0.015533447265625,-1.155517578125
0.44268798828125,-0.0476531982421875,-0.945892333984375
0.36126708984375,-0.1074981689453125,-0.8444976806640625
0.29534912109375,-0.0673980712890625,-0.8935546875
0.3025054931640625,-0.00189208984375,-0.9537506103515624
0.3486175537109375,0.0284576416015625,-0.989288330078125
0.3880615234375,0.01251220703125,-0.9970855712890624
0.3946990966796875,-0.0011138916015625,-0.9960174560546876
0.4089508056640625,0.01910400390625,-0.9981536865234376
0.44708251953125,0.056243896484375,-1.0161285400390625
0.475982666015625,0.0973358154296875,-0.991546630859375
0.4776153564453125,0.1105499267578125,-0.922515869140625
0.4589080810546875,0.1384124755859375,-0.8852996826171875
0.425445556640625,0.161865234375,-0.8709869384765625
0.404571533203125,0.16314697265625,-0.877410888671875
0.395233154296875,0.1621856689453125,-0.9148101806640624
0.375885009765625,0.126312255859375,-0.880157470703125
0.3028106689453125,0.0730743408203125,-0.8511962890625
0.2170562744140625,0.08782958984375,-0.87078857421875
0.21539306640625,0.1115264892578125,-0.8454437255859375
0.287353515625,0.166046142578125,-0.9763031005859376
0.3494415283203125,0.2058563232421875,-1.2030792236328125
0.3726959228515625,0.0599365234375,-1.0602264404296875
0.3765869140625,-0.1474761962890625,-0.8849029541015625
0.324432373046875,-0.1631622314453125,-0.7821044921875
0.39703369140625,0.0581512451171875,-1.0717926025390625
0.44671630859375,0.1456756591796875,-1.1758270263671875
0.4857330322265625,0.0074920654296875,-1.1381378173828125
0.4999237060546875,-0.1082611083984375,-0.9986572265625
0.529998779296875,-0.0310821533203125,-0.924591064453125
0.56134033203125,0.1552276611328125,-1.0171661376953125
0.546539306640625,0.2736663818359375,-1.0530853271484375
0.5179290771484375,0.25140380859375,-1.0066680908203125
0.4763946533203125,0.183502197265625,-0.9172210693359376
0.4260406494140625,0.1661529541015625,-0.9248199462890624
0.3669586181640625,0.1378173828125,-0.9405364990234376
0.346710205078125,0.12945556640625,-0.9177398681640624
0.3763427734375,0.1235504150390625,-0.8624267578125
0.359222412109375,0.14990234375,-0.8584747314453125
0.3421173095703125,0.1372833251953125,-0.823577880859375
0.300750732421875,0.1062774658203125,-0.7949066162109375
0.268463134765625,0.100830078125,-0.8252410888671875
0.2105712890625,0.1168975830078125,-0.8856353759765625
0.202239990234375,0.0851898193359375,-0.88543701171875
0.222564697265625,0.0938873291015625,-0.9434814453125
0.285308837890625,0.0827484130859375,-1.0321197509765625
0.3162078857421875,0.03338623046875,-1.1449432373046875
0.3872222900390625,0.1158447265625,-1.334014892578125
0.3972015380859375,0.0758056640625,-1.14410400390625
0.3669891357421875,0.0362548828125,-1.083831787109375
0.3535308837890625,0.0496978759765625,-1.23504638671875
0.35430908203125,-0.129486083984375,-1.0500946044921875
0.3081817626953125,-0.27813720703125,-0.779541015625
0.2625732421875,-0.2503814697265625,-0.698822021484375
0.314971923828125,-0.095367431640625,-0.9314422607421876
0.42279052734375,0.04046630859375,-1.1649627685546875
0.4808807373046875,0.07598876953125,-1.0764007568359375
0.4620361328125,0.0482330322265625,-0.9272003173828124
0.417694091796875,0.092681884765625,-0.9584808349609376
0.4036865234375,0.1768646240234375,-1.014434814453125
0.42462158203125,0.2090911865234375,-0.988739013671875
0.431976318359375,0.23919677734375,-0.9490966796875
0.427001953125,0.2462921142578125,-0.907806396484375
0.404052734375,0.2265777587890625,-0.892730712890625
0.3752899169921875,0.1918487548828125,-0.9005279541015625
0.3507843017578125,0.170654296875,-0.8837738037109375
0.3405609130859375,0.1619415283203125,-0.8719635009765625
0.3297882080078125,0.1637115478515625,-0.8455352783203125
0.3150787353515625,0.1418914794921875,-0.830780029296875
0.292694091796875,0.149993896484375,-0.8509521484375
0.2809295654296875,0.17095947265625,-0.9009857177734376
0.299560546875,0.19677734375,-1.0342254638671875
0.29833984375,0.251861572265625,-1.159423828125
0.2713470458984375,0.136993408203125,-1.0186767578125
0.2847442626953125,0.0988311767578125,-1.0044097900390625
0.2692108154296875,0.1394195556640625,-1.0558319091796875
0.266082763671875,0.0753021240234375,-0.9595794677734376
0.239776611328125,0.0655975341796875,-0.8949737548828125
0.246307373046875,0.128631591796875,-1.0278778076171875
0.2648162841796875,0.1756439208984375,-1.139495849609375
0.328826904296875,0.1221466064453125,-1.048370361328125
0.322998046875,0.0824127197265625,-0.903472900390625
0.2808380126953125,0.1073455810546875,-0.8541107177734375
0.2931976318359375,0.136199951171875,-0.8852081298828125
0.3021392822265625,0.147613525390625,-0.8997802734375
0.3210296630859375,0.1584930419921875,-0.88165283203125
0.3372344970703125,0.1418914794921875,-0.88275146484375
0.335357666015625,0.163360595703125,-0.94818115234375
0.34600830078125,0.165130615234375,-1.0140533447265625
0.359161376953125,0.140289306640625,-0.98834228515625
0.3484954833984375,0.137420654296875,-0.9559173583984376
0.3194427490234375,0.1327667236328125,-0.9181671142578124
0.3060455322265625,0.1638946533203125,-0.920257568359375
0.31103515625,0.19268798828125,-0.947723388671875
0.3419647216796875,0.1873321533203125,-0.9752197265625
0.3586578369140625,0.15618896484375,-0.9766845703125
0.34539794921875,0.137542724609375,-0.9867401123046876
0.3404693603515625,0.121429443359375,-0.9677886962890624
0.335296630859375,0.1422271728515625,-0.95977783203125
0.331329345703125,0.172332763671875,-0.9353485107421876
0.3261566162109375,0.1759796142578125,-0.928070068359375
0.3361053466796875,0.17822265625,-0.9292144775390624
0.3358001708984375,0.1483306884765625,-0.917266845703125
0.2968597412109375,0.1333770751953125,-0.9530181884765624
0.3059234619140625,0.1397705078125,-0.965911865234375
0.3415679931640625,0.1288604736328125,-0.9402923583984376
0.3422088623046875,0.1330108642578125,-0.9312744140625
0.3299407958984375,0.1257171630859375,-0.942657470703125
0.32623291015625,0.1183929443359375,-0.9527740478515624
0.334259033203125,0.131744384765625,-0.9527587890625
0.3240509033203125,0.1326751708984375,-0.9490814208984376
0.312103271484375,0.1445465087890625,-0.9572296142578124
0.31793212890625,0.1505584716796875,-0.9464874267578124
0.32061767578125,0.15277099609375,-0.9308013916015624
0.3244476318359375,0.1565704345703125,-0.9283447265625
0.3314971923828125,0.1615447998046875,-0.9345550537109376
0.3494415283203125,0.1533203125,-0.9291534423828124
0.3489990234375,0.166595458984375,-0.9678497314453124
0.3461761474609375,0.1652679443359375,-0.94287109375
0.335418701171875,0.1483154296875,-0.9241180419921876
0.3087615966796875,0.139404296875,-0.938079833984375
0.31744384765625,0.130096435546875,-0.94488525390625
0.3193511962890625,0.1109466552734375,-0.946197509765625
0.3213043212890625,0.10064697265625,-0.966522216796875
0.3494873046875,0.109619140625,-0.9745941162109376
0.3791961669921875,0.1132049560546875,-0.96319580078125
0.402252197265625,0.10809326171875,-0.9878997802734376
0.3964080810546875,0.1099700927734375,-0.9585418701171876
0.41522216796875,0.0798797607421875,-0.9214935302734376
0.3839569091796875,0.0280303955078125,-0.917449951171875
0.38128662109375,0.0473175048828125,-0.944122314453125
0.418609619140625,0.0885772705078125,-0.96014404296875
0.437255859375,0.1263275146484375,-0.9549407958984376
0.440643310546875,0.1414947509765625,-0.92352294921875
0.437103271484375,0.1524200439453125,-0.908782958984375
0.4237060546875,0.147735595703125,-0.8782958984375
0.4100189208984375,0.1435546875,-0.85614013671875
0.39971923828125,0.1585845947265625,-0.87530517578125
0.3880615234375,0.1561737060546875,-0.8649749755859375
0.3804473876953125,0.139312744140625,-0.85986328125
0.3726654052734375,0.150909423828125,-0.9121551513671876
0.3638763427734375,0.1380157470703125,-0.95086669921875
0.3734130859375,0.1150360107421875,-0.977447509765625
0.3781890869140625,0.145721435546875,-1.0531005859375
0.3735198974609375,0.11138916015625,-1.052734375
0.3264923095703125,0.047698974609375,-0.9864959716796876
0.25439453125,0.069244384765625,-0.98114013671875
0.2214508056640625,0.0905303955078125,-0.981781005859375
0.2179412841796875,0.1269683837890625,-0.9703216552734376
0.2155914306640625,0.1491851806640625,-0.960174560546875
0.1943511962890625,0.125885009765625,-0.9579315185546876
0.17901611328125,0.1031341552734375,-0.954864501953125
0.1742095947265625,0.0840301513671875,-0.9505462646484376
0.1651763916015625,0.082855224609375,-0.957733154296875
0.1725921630859375,0.079925537109375,-0.9535675048828124
0.18023681640625,0.0840606689453125,-0.9624176025390624
0.18389892578125,0.086090087890625,-1.003570556640625
0.200164794921875,0.0715484619140625,-1.0151214599609375
0.23406982421875,0.06170654296875,-1.0136260986328125
0.2485504150390625,0.0454559326171875,-1.0087890625
0.269287109375,0.058074951171875,-1.063140869140625
0.2762603759765625,0.0814056396484375,-1.041229248046875
0.272674560546875,0.0485687255859375,-0.9806365966796876
0.2533111572265625,0.074951171875,-1.0010223388671875
0.2775115966796875,0.08551025390625,-1.0156097412109375
0.297454833984375,0.0617523193359375,-1.0053863525390625
0.3082122802734375,0.0457763671875,-1.000762939453125
0.30096435546875,0.0060577392578125,-0.9717559814453124
0.282806396484375,-0.039459228515625,-0.9271087646484376
0.269561767578125,-0.0541229248046875,-0.8732147216796875
0.277984619140625,0.028472900390625,-0.9255523681640624
0.3328399658203125,0.10809326171875,-1.1189422607421875
0.367034912109375,0.0476837158203125,-1.184600830078125
0.440643310546875,-0.01434326171875,-1.0281829833984375
0.5071258544921875,-0.0215911865234375,-0.8943023681640625
0.4652862548828125,0.067108154296875,-0.9268646240234376
0.4139251708984375,0.1114349365234375,-1.0305938720703125
0.3878021240234375,0.13885498046875,-1.0760498046875
0.3734893798828125,0.1539306640625,-1.0282745361328125
0.38848876953125,0.1492767333984375,-0.9591064453125
0.37054443359375,0.1517181396484375,-0.8952789306640625
0.3497314453125,0.1632232666015625,-0.8851470947265625
0.3101654052734375,0.1687469482421875,-0.8637542724609375
0.277618408203125,0.1687774658203125,-0.8669281005859375
0.2294158935546875,0.171783447265625,-0.9169769287109376
0.2353668212890625,0.196380615234375,-1.1849822998046875
0.2014617919921875,0.23834228515625,-1.1649169921875
0.167724609375,0.184234619140625,-1.058197021484375
0.1721649169921875,0.106903076171875,-1.003173828125
0.106964111328125,-0.0551300048828125,-0.9391326904296876
0.027801513671875,-0.0364990234375,-0.9484710693359376
0.0840606689453125,0.0547027587890625,-0.985076904296875
0.1660614013671875,0.1786041259765625,-1.03240966796875
0.172882080078125,0.2502899169921875,-1.043701171875
0.12176513671875,0.161468505859375,-0.9903106689453124
0.0735626220703125,0.1182098388671875,-0.9245452880859376
0.0564727783203125,0.132080078125,-0.93365478515625
0.1010284423828125,0.1449432373046875,-0.9719390869140624
0.1498260498046875,0.123992919921875,-0.965179443359375
0.165771484375,0.068389892578125,-0.9694061279296876
0.1420745849609375,0.0493927001953125,-0.978668212890625
0.139251708984375,0.0119171142578125,-0.965789794921875
0.1617889404296875,0.002105712890625,-1.001556396484375
0.1758270263671875,-0.0045623779296875,-1.0116119384765625
0.1869964599609375,-0.0120697021484375,-1.0137939453125
0.180908203125,-0.0053253173828125,-1.029022216796875
0.1949615478515625,0.0089263916015625,-1.0198516845703125
0.20751953125,0.06549072265625,-1.0259552001953125
0.2106170654296875,0.08953857421875,-1.007049560546875
0.1851959228515625,0.1031646728515625,-0.973907470703125
0.1670989990234375,0.1220550537109375,-0.954925537109375
0.1815185546875,0.136810302734375,-0.9649658203125
0.2127838134765625,0.12774658203125,-0.9286956787109376
0.2296600341796875,0.1113433837890625,-0.89862060546875
0.2364654541015625,0.1044921875,-0.9051666259765624
0.258056640625,0.077728271484375,-0.935394287109375
0.3038177490234375,0.095611572265625,-0.9976348876953124
0.3320465087890625,0.0801849365234375,-1.0104217529296875
0.323760986328125,0.002288818359375,-0.9616546630859376
0.319793701171875,-0.058197021484375,-0.9438934326171876
0.345611572265625,-0.0143280029296875,-0.958465576171875
0.372772216796875,0.094146728515625,-0.9876251220703124
0.3727569580078125,0.0878448486328125,-0.95025634765625
0.3250579833984375,0.0316925048828125,-0.941314697265625
0.275146484375,0.01116943359375,-0.972869873046875
0.2788848876953125,0.034332275390625,-0.9975128173828124
0.3367156982421875,0.0548248291015625,-0.9886627197265624
0.3683013916015625,0.0608367919921875,-0.967376708984375
0.375,0.0538482666015625,-0.969024658203125
0.3824920654296875,0.0629119873046875,-0.981536865234375
0.3821868896484375,0.06561279296875,-0.947967529296875
0.3682708740234375,0.079864501953125,-0.9338226318359376
0.365081787109375,0.079833984375,-0.9133758544921876
0.361358642578125,0.08941650390625,-0.8748779296875
0.3242034912109375,0.084442138671875,-0.9017791748046876
0.3446807861328125,0.1334991455078125,-1.0897674560546875
0.4098052978515625,0.13275146484375,-1.0868072509765625
0.4245758056640625,0.00482177734375,-0.8626861572265625
0.3377227783203125,-0.0405426025390625,-0.809326171875
0.3037109375,0.019195556640625,-0.9783172607421876
0.392791748046875,0.14501953125,-1.103363037109375
0.4676361083984375,0.1854095458984375,-1.0501708984375
0.4534149169921875,0.144317626953125,-1.0020751953125
0.3962860107421875,0.0899658203125,-0.9506378173828124
0.339447021484375,0.116607666015625,-0.9131622314453124
0.3489990234375,0.1173095703125,-0.8831329345703125
0.3388671875,0.1551513671875,-0.8593597412109375
0.3123016357421875,0.15081787109375,-0.891143798828125
0.2897796630859375,0.1486663818359375,-0.956146240234375
0.249755859375,0.13446044921875,-0.9851837158203124
0.2627105712890625,0.146240234375,-0.92852783203125
0.3055877685546875,0.1900177001953125,-0.856109619140625
0.327178955078125,0.237548828125,-0.8587646484375
0.31524658203125,0.21282958984375,-0.8777923583984375
0.29742431640625,0.1565093994140625,-0.9259490966796876
0.2859039306640625,0.162994384765625,-1.007781982421875
0.3038330078125,0.13671875,-0.991363525390625
0.291656494140625,0.103851318359375,-0.9982147216796876
0.26593017578125,0.10992431640625,-1.019195556640625
0.2772979736328125,0.1369171142578125,-1.001800537109375
0.28692626953125,0.1483154296875,-0.98443603515625
0.286407470703125,0.1331329345703125,-0.9692230224609376
0.288238525390625,0.1173095703125,-0.971588134765625
0.3059539794921875,0.1123504638671875,-0.9923858642578124
0.3300933837890625,0.1040802001953125,-1.00860595703125
0.35498046875,0.0936279296875,-0.992401123046875
0.36480712890625,0.0704498291015625,-0.9633026123046876
0.349822998046875,0.0701141357421875,-0.967742919921875
0.344696044921875,0.0689544677734375,-0.9588165283203124
0.3517913818359375,0.104278564453125,-0.9630584716796876
0.3675079345703125,0.12078857421875,-0.941650390625
0.3474578857421875,0.112152099609375,-0.9361114501953124
0.334747314453125,0.1054840087890625,-0.9473724365234376
0.3523712158203125,0.1186065673828125,-0.9369964599609376
0.3570098876953125,0.136077880859375,-0.9258880615234376
0.354217529296875,0.14874267578125,-0.9247589111328124
0.3376007080078125,0.1226043701171875,-0.9140167236328124
0.3160552978515625,0.093536376953125,-0.9452056884765624
0.307769775390625,0.1003875732421875,-0.9776458740234376
0.3365020751953125,0.127899169921875,-0.953521728515625
0.328155517578125,0.1251220703125,-0.930023193359375
0.3056793212890625,0.10638427734375,-0.9378509521484376
0.3025054931640625,0.1330413818359375,-0.9256744384765624
0.3027496337890625,0.1459503173828125,-0.894622802734375
0.3057708740234375,0.154876708984375,-0.914947509765625
0.3369903564453125,0.1871337890625,-1.0616607666015625
0.3527069091796875,0.1745147705078125,-1.12310791015625
0.365020751953125,0.080657958984375,-1.1507415771484375
0.416534423828125,-0.0540771484375,-1.016845703125
0.4339141845703125,-0.0838165283203125,-0.8163299560546875
0.4133148193359375,0.024749755859375,-0.748046875
0.422607421875,0.1462860107421875,-0.880859375
0.4297027587890625,0.1688995361328125,-0.9880828857421876
0.45770263671875,0.079864501953125,-1.032073974609375
0.50286865234375,0.019622802734375,-1.0167999267578125
0.5418243408203125,0.0223541259765625,-1.0107879638671875
0.6018829345703125,0.10546875,-1.034637451171875
0.62701416015625,0.2113800048828125,-1.0462188720703125
0.643585205078125,0.21978759765625,-1.0269317626953125
0.5945587158203125,0.260284423828125,-0.9860687255859376
0.524658203125,0.253021240234375,-0.9256439208984376
0.4716644287109375,0.235504150390625,-0.88653564453125
0.3792877197265625,0.2100372314453125,-0.8479156494140625
0.2699432373046875,0.1644744873046875,-0.8458709716796875
0.166839599609375,0.1691436767578125,-0.8985443115234375
0.239044189453125,0.1019439697265625,-0.8527984619140625
0.2716522216796875,0.0301361083984375,-0.8485107421875
0.2459869384765625,0.0551910400390625,-0.8810272216796875
0.239959716796875,0.048370361328125,-0.8825225830078125
0.20220947265625,0.0679931640625,-0.8863677978515625
0.1904296875,0.0916290283203125,-0.9080963134765624
0.25421142578125,0.0988311767578125,-1.0079803466796875
0.40594482421875,0.1716156005859375,-1.3716583251953125
0.3953094482421875,0.11029052734375,-1.220001220703125
0.2682037353515625,0.0043182373046875,-1.046966552734375
0.3187255859375,0.0346221923828125,-1.231536865234375
0.3543243408203125,-0.0971527099609375,-1.0964508056640625
0.3238677978515625,-0.24871826171875,-0.7955169677734375
0.244354248046875,-0.2899322509765625,-0.7518157958984375
0.2681121826171875,-0.1634063720703125,-0.998992919921875
0.3973388671875,0.0054931640625,-1.2182464599609375
0.3800506591796875,0.0598602294921875,-1.0549468994140625
0.26104736328125,0.01239013671875,-0.912811279296875
0.1675262451171875,0.091827392578125,-0.9801025390625
0.20758056640625,0.118743896484375,-0.9720916748046876
0.2840728759765625,0.12646484375,-0.9202423095703124
0.2830047607421875,0.1322784423828125,-0.8993377685546875
0.262603759765625,0.0950469970703125,-0.9085540771484376
0.213043212890625,0.07763671875,-0.9393463134765624
0.1814422607421875,0.027069091796875,-1.028106689453125
0.239959716796875,0.0542449951171875,-1.11651611328125
0.2403564453125,0.1003265380859375,-1.053802490234375
0.2139892578125,0.0695648193359375,-0.9731292724609376
0.21484375,0.0772247314453125,-0.9969024658203124
0.2645111083984375,0.1193695068359375,-1.022216796875
0.319122314453125,0.13128662109375,-0.9754486083984376
0.3261566162109375,0.1244049072265625,-0.905181884765625
0.3082733154296875,0.1405792236328125,-0.8994598388671875
0.3045196533203125,0.161529541015625,-0.908416748046875
0.328033447265625,0.1981353759765625,-0.97869873046875
0.36944580078125,0.1796722412109375,-1.004302978515625
0.401336669921875,0.1287384033203125,-0.978179931640625
0.39544677734375,0.118072509765625,-0.965301513671875
0.3715667724609375,0.12457275390625,-0.9346160888671876
0.3740997314453125,0.2020263671875,-0.963653564453125
0.3401947021484375,0.2293853759765625,-0.9216461181640624
0.2847137451171875,0.1949462890625,-0.914520263671875
0.2434234619140625,0.15924072265625,-0.9469451904296876
0.2408599853515625,0.1468353271484375,-0.94464111328125
0.248138427734375,0.1497039794921875,-0.95135498046875
0.2310333251953125,0.140869140625,-0.96697998046875
0.2052764892578125,0.13482666015625,-0.98907470703125
0.200897216796875,0.1478729248046875,-1.0308380126953125
0.2166748046875,0.1779632568359375,-1.1036529541015625
0.1824951171875,0.1584625244140625,-1.06219482421875
0.15679931640625,0.1298675537109375,-1.0373382568359375
0.1538238525390625,0.12762451171875,-1.0273284912109375
0.174591064453125,0.0572967529296875,-1.0005340576171875
0.1695709228515625,-0.0039825439453125,-0.971923828125
0.175201416015625,0.0050048828125,-0.926605224609375
0.1738739013671875,0.0332794189453125,-0.872650146484375
0.1773681640625,0.0762786865234375,-0.90301513671875
0.2220306396484375,0.1863555908203125,-1.0115966796875
0.241943359375,0.235748291015625,-1.035736083984375
0.216705322265625,0.1547698974609375,-0.951080322265625
0.1564178466796875,0.066375732421875,-0.9207611083984376
0.1243743896484375,0.0810089111328125,-0.9745025634765624
0.1669158935546875,0.1096038818359375,-0.971282958984375
0.230133056640625,0.1405181884765625,-0.98291015625
0.2392578125,0.153289794921875,-1.0159759521484375
0.2225799560546875,0.095550537109375,-0.99114990234375
0.2030181884765625,0.07183837890625,-0.9604034423828124
0.2011260986328125,0.0859832763671875,-0.9372100830078124
0.211517333984375,0.0918731689453125,-0.918365478515625
0.2193756103515625,0.1015777587890625,-0.94647216796875
0.2053680419921875,0.05712890625,-0.946533203125
0.1981201171875,0.036376953125,-0.99658203125
0.2051239013671875,0.040802001953125,-0.992156982421875
0.2283782958984375,0.0159759521484375,-0.955963134765625
0.2470855712890625,0.0233154296875,-0.989593505859375
0.263275146484375,0.1383056640625,-1.1754150390625
0.2736053466796875,0.032501220703125,-1.0291290283203125
0.2972869873046875,0.0149688720703125,-1.0452117919921875
0.3089599609375,0.086273193359375,-1.133026123046875
0.320037841796875,0.0534210205078125,-0.954803466796875
0.2649078369140625,-0.01611328125,-0.743621826171875
0.2931365966796875,0.038421630859375,-0.9315948486328124
0.3568878173828125,0.09344482421875,-1.2125244140625
0.411041259765625,0.050537109375,-1.1524505615234375
0.4427642822265625,-0.02728271484375,-1.00067138671875
0.4217987060546875,-0.0560760498046875,-0.909332275390625
0.383880615234375,0.007171630859375,-0.9232330322265624
0.371612548828125,0.0230712890625,-0.9379425048828124
0.3937530517578125,-0.006317138671875,-0.900390625
0.3796234130859375,-0.014068603515625,-0.8873291015625
0.35302734375,-0.0278167724609375,-0.887847900390625
0.340057373046875,-0.05224609375,-0.8798065185546875
0.323272705078125,-0.0277862548828125,-0.8768768310546875
0.3061370849609375,0.0096588134765625,-0.8592071533203125
0.2865142822265625,0.0321044921875,-0.8475341796875
0.26336669921875,0.0430908203125,-0.8608245849609375
0.248138427734375,0.0516204833984375,-0.8895721435546875
0.234771728515625,0.0451812744140625,-0.9117431640625
0.2351531982421875,0.1161956787109375,-1.06634521484375
0.2298431396484375,0.2074737548828125,-1.18499755859375
0.22344970703125,0.0814666748046875,-0.946319580078125
0.133514404296875,-0.0839080810546875,-0.835968017578125
0.0813446044921875,-0.11004638671875,-0.941009521484375
0.2082977294921875,0.0487213134765625,-1.1598052978515625
0.3143157958984375,0.1652374267578125,-1.145050048828125
0.31640625,0.0548858642578125,-0.9908294677734376
0.2187347412109375,-0.0284423828125,-1.020538330078125
0.164703369140625,-0.032867431640625,-1.0562744140625
0.233917236328125,0.0123138427734375,-1.0178985595703125
0.2939605712890625,0.07464599609375,-0.9886322021484376
0.2933349609375,0.082611083984375,-0.9766998291015624
0.2400054931640625,0.038818359375,-0.975921630859375
0.230316162109375,0.0252685546875,-0.990020751953125
0.2694091796875,0.036041259765625,-0.9380950927734376
0.3029632568359375,0.05908203125,-0.912811279296875
0.3265533447265625,0.0907135009765625,-0.9161529541015624
0.35540771484375,0.09259033203125,-0.92578125
0.3891143798828125,0.1146697998046875,-0.9581756591796876
0.4429473876953125,0.1919708251953125,-1.09161376953125
0.4499359130859375,0.152252197265625,-0.988006591796875
0.4449920654296875,0.05078125,-0.845062255859375
0.433624267578125,0.096466064453125,-0.9041748046875
0.4679107666015625,0.2012939453125,-0.9773406982421876
0.5221405029296875,0.263671875,-1.04241943359375
0.63116455078125,0.1642913818359375,-1.0632171630859375
0.6824188232421875,0.065673828125,-1.021636962890625
0.64739990234375,0.1248779296875,-1.0491485595703125
0.5973968505859375,0.2344512939453125,-1.035491943359375
0.527557373046875,0.242156982421875,-0.971343994140625
0.4309539794921875,0.214996337890625,-0.9805145263671876
0.36907958984375,0.138336181640625,-0.9918670654296876
0.330322265625,0.10736083984375,-0.9902496337890624
0.37213134765625,0.0956573486328125,-1.01995849609375
0.4554901123046875,0.017333984375,-1.02490234375
0.520843505859375,-0.0058746337890625,-1.0540924072265625
0.4924774169921875,-0.0100250244140625,-1.0667877197265625
0.4681549072265625,-0.020477294921875,-0.9680938720703124
0.5005950927734375,0.217864990234375,-1.0299835205078125
0.5994415283203125,0.1391754150390625,-0.59771728515625
0.4671173095703125,0.2651519775390625,-0.83404541015625
0.587310791015625,0.233978271484375,-0.743011474609375
0.649871826171875,0.0796356201171875,-0.792694091796875
0.5178985595703125,0.06298828125,-0.586334228515625
0.6703338623046875,-0.0579833984375,-0.41827392578125
0.5409088134765625,0.04345703125,-0.60113525390625
0.5028228759765625,0.11444091796875,-0.691070556640625
0.4432373046875,0.281707763671875,-0.8867340087890625
0.3939208984375,0.3600006103515625,-0.975341796875
0.3791046142578125,0.350189208984375,-1.057098388671875
0.2331695556640625,0.2084503173828125,-1.0053863525390625
0.191070556640625,0.30609130859375,-0.9143524169921876
0.259979248046875,0.334686279296875,-0.964996337890625
0.228515625,0.2719573974609375,-1.00665283203125
0.2022247314453125,0.297943115234375,-0.973419189453125
0.2484588623046875,0.3546295166015625,-1.122711181640625
0.19281005859375,0.3689117431640625,-1.0912017822265625
0.2096405029296875,0.3226776123046875,-1.217559814453125
0.0986328125,0.4817962646484375,-1.0193023681640625
0.135162353515625,-0.0307769775390625,-0.901397705078125
0.0426177978515625,-0.0541534423828125,-0.7825927734375
0.0340728759765625,-0.048614501953125,-0.8567352294921875
-0.081329345703125,-0.187957763671875,-0.8266754150390625
0.019256591796875,-0.4263763427734375,-0.9293975830078124
-0.0358123779296875,-0.32464599609375,-0.82696533203125
-0.0237579345703125,-0.2657928466796875,-0.9195404052734376
0.046630859375,-0.2821197509765625,-0.8130035400390625
-0.00115966796875,-0.277679443359375,-0.802947998046875
0.0,-0.278350830078125,-0.8974456787109375
0.0120391845703125,-0.2641143798828125,-0.8831787109375
0.0550537109375,-0.2506256103515625,-0.9355316162109376
0.05035400390625,-0.248504638671875,-0.923583984375
0.0621795654296875,-0.28631591796875,-1.0506744384765625
0.059539794921875,-0.249603271484375,-1.113555908203125
0.0152130126953125,-0.218170166015625,-1.177398681640625
-0.03131103515625,-0.1749725341796875,-0.968505859375
0.0219268798828125,-0.131805419921875,-0.96722412109375
0.09197998046875,-0.072235107421875,-1.072845458984375
0.037628173828125,-0.0253143310546875,-0.9423675537109376
0.143829345703125,-0.1537322998046875,-1.0695343017578125
0.1182098388671875,-0.09912109375,-1.0150909423828125
0.1506805419921875,-0.025177001953125,-1.0303192138671875
0.1603546142578125,0.00775146484375,-1.1222076416015625
0.10797119140625,0.0225982666015625,-1.0856475830078125
0.0583343505859375,-0.00091552734375,-1.0379180908203125
0.0249176025390625,0.0033111572265625,-0.9889984130859376
0.044647216796875,-0.031097412109375,-0.91522216796875
0.022430419921875,-0.009613037109375,-0.92901611328125
0.0087890625,0.0022125244140625,-0.881927490234375
0.16357421875,-0.051666259765625,-0.9314727783203124
0.101959228515625,-0.0590972900390625,-0.809356689453125
0.258056640625,-0.1158599853515625,-1.04925537109375
0.2196197509765625,-0.001678466796875,-0.9280853271484376
0.3200836181640625,-0.009918212890625,-1.031005859375
0.306488037109375,0.0011444091796875,-0.80126953125
0.4099578857421875,-0.3116607666015625,-1.0436859130859375
0.204376220703125,-0.1446380615234375,-0.943115234375
0.3155517578125,-0.1573638916015625,-0.958740234375
0.3023223876953125,-0.1082916259765625,-1.0081024169921875
0.350433349609375,-0.0118865966796875,-0.9697723388671876
0.381927490234375,-0.0360565185546875,-1.0276641845703125
0.3199615478515625,-0.0340576171875,-0.9232940673828124
0.3405609130859375,-0.01934814453125,-0.941070556640625
0.3726348876953125,0.0322723388671875,-0.939788818359375
0.441314697265625,0.0531463623046875,-0.8626251220703125
0.460601806640625,0.10650634765625,-0.813690185546875
0.433349609375,0.0652313232421875,-0.8084869384765625
0.399871826171875,0.088775634765625,-0.7542877197265625
0.276824951171875,0.102569580078125,-0.7867279052734375
0.167816162109375,0.181976318359375,-0.909332275390625
0.0237579345703125,0.31512451171875,-0.944122314453125
-0.0572052001953125,0.383575439453125,-0.9243011474609376
-0.0394287109375,0.4468536376953125,-1.0170135498046875
0.079254150390625,0.47601318359375,-1.1176605224609375
0.06280517578125,0.5076904296875,-1.1622772216796875
-0.0483856201171875,0.4482574462890625,-1.2455291748046875
0.04571533203125,0.4162139892578125,-1.1028289794921875
0.0460052490234375,0.287994384765625,-1.0432891845703125
-0.0412750244140625,0.190399169921875,-1.11376953125
-0.0983428955078125,0.2008056640625,-1.064300537109375
-0.153961181640625,0.174041748046875,-1.0326385498046875
-0.175567626953125,0.2088165283203125,-0.919952392578125
-0.2569580078125,0.1957550048828125,-0.8796234130859375
-0.130523681640625,0.2003631591796875,-1.0750885009765625
-0.190704345703125,0.0704803466796875,-0.951873779296875
-0.253509521484375,0.1346588134765625,-0.84765625
-0.2445068359375,0.1907958984375,-1.09326171875
-0.2744293212890625,0.2479095458984375,-0.878753662109375
-0.2904052734375,0.25506591796875,-0.9144439697265624
-0.2933349609375,0.2519378662109375,-0.9429473876953124
-0.157684326171875,0.34661865234375,-1.1782379150390625
-0.1114501953125,0.3048248291015625,-1.1330718994140625
-0.029632568359375,0.2026214599609375,-1.0756683349609375
0.0048980712890625,0.1309661865234375,-0.91900634765625
0.0214385986328125,0.139434814453125,-0.913818359375
0.06280517578125,0.17974853515625,-0.9441375732421876
0.1308746337890625,0.1843109130859375,-0.956329345703125
0.128997802734375,0.1786346435546875,-1.03912353515625
0.1461334228515625,0.1768341064453125,-1.0182342529296875
0.150604248046875,0.17108154296875,-1.0214996337890625
0.1663360595703125,0.160980224609375,-1.051788330078125
0.192626953125,0.1890411376953125,-1.0497589111328125
0.2287445068359375,0.209625244140625,-1.02301025390625
0.2066650390625,0.1946258544921875,-0.9791412353515624
0.2033538818359375,0.1767730712890625,-0.95953369140625
0.195648193359375,0.148895263671875,-0.9501495361328124
0.1748046875,0.1324462890625,-1.017974853515625
0.1655426025390625,0.123748779296875,-1.0758209228515625
0.1140899658203125,0.027374267578125,-1.031463623046875
0.09600830078125,-0.00396728515625,-1.008819580078125
0.098114013671875,-0.0047760009765625,-1.0438385009765625
0.0719146728515625,0.0062103271484375,-1.0680084228515625
-0.0220947265625,-0.0062103271484375,-1.037811279296875
-0.0688018798828125,-0.0141448974609375,-0.98004150390625
-0.075439453125,0.1427459716796875,-0.99609375
-0.0399322509765625,0.22320556640625,-0.9818572998046876
0.0084686279296875,0.2005615234375,-1.015655517578125
0.024322509765625,0.1319427490234375,-0.9781036376953124
-0.009246826171875,0.06060791015625,-0.9073486328125
-0.0536956787109375,0.0451202392578125,-0.9162750244140624
-0.06951904296875,0.0839996337890625,-0.9622650146484376
-0.03179931640625,0.103515625,-0.9740447998046876
-0.0330047607421875,0.05828857421875,-0.9357147216796876
-0.0534820556640625,-0.0183563232421875,-0.8793182373046875
-0.0462646484375,-0.01507568359375,-0.9537353515625
0.0430755615234375,0.118896484375,-1.2920379638671875
0.07293701171875,0.13568115234375,-1.431976318359375
0.087982177734375,-0.0361175537109375,-1.277923583984375
0.111480712890625,0.00726318359375,-1.2030029296875
0.1011505126953125,0.16876220703125,-1.1031036376953125
0.1289215087890625,0.2080078125,-0.9687042236328124
0.1115875244140625,0.1476593017578125,-0.920135498046875
0.0758514404296875,0.180328369140625,-0.9349822998046876
0.0839691162109375,0.2490692138671875,-1.0200347900390625
0.1406402587890625,0.300140380859375,-1.0962677001953125
0.1474456787109375,0.242156982421875,-1.080291748046875
0.1729888916015625,0.1220855712890625,-1.01373291015625
0.1909637451171875,0.1237030029296875,-1.0010986328125
0.1812744140625,0.212615966796875,-1.0120086669921875
0.19171142578125,0.2340087890625,-0.963226318359375
0.1411590576171875,0.2313232421875,-0.8902435302734375
0.0843658447265625,0.202545166015625,-0.823272705078125
0.040283203125,0.1866912841796875,-0.8229522705078125
-0.011627197265625,0.15325927734375,-0.89581298828125
-0.033935546875,0.1088409423828125,-0.967254638671875
-0.0248260498046875,0.071807861328125,-0.979766845703125
-0.034210205078125,0.0369873046875,-0.977630615234375
-0.0315399169921875,0.0372467041015625,-0.9791717529296876
0.0247802734375,0.039794921875,-0.9839935302734376
0.145050048828125,0.1822967529296875,-1.3425750732421875
0.1471099853515625,0.24298095703125,-1.4058685302734375
0.114410400390625,0.1014404296875,-1.121307373046875
0.0284576416015625,0.119384765625,-1.0410919189453125
-0.0055999755859375,0.0512847900390625,-0.9665985107421876
0.0243682861328125,-0.0650634765625,-0.919219970703125
0.0788726806640625,-0.0977783203125,-0.9395599365234376
0.1353759765625,-0.085235595703125,-0.9663848876953124
0.1837005615234375,0.0245208740234375,-1.0933074951171875
0.20281982421875,0.112945556640625,-1.176544189453125
0.1956024169921875,0.150848388671875,-1.135009765625
0.1707763671875,0.1959228515625,-1.0645599365234375
0.159637451171875,0.221832275390625,-1.0033416748046875
0.1714630126953125,0.250579833984375,-0.975555419921875
0.176055908203125,0.2696075439453125,-0.9196014404296876
0.14617919921875,0.2668914794921875,-0.896759033203125
0.1064910888671875,0.2344970703125,-0.90081787109375
0.0761871337890625,0.19287109375,-0.9382476806640624
0.0592803955078125,0.172821044921875,-0.96160888671875
0.0465240478515625,0.1525726318359375,-0.97235107421875
0.0410308837890625,0.1136474609375,-0.97149658203125
0.042877197265625,0.094024658203125,-0.9994049072265624
0.0452728271484375,0.0732421875,-1.0068359375
0.0659942626953125,0.0393524169921875,-0.9719085693359376
0.0949249267578125,0.031280517578125,-0.9592742919921876
0.1293487548828125,0.053924560546875,-0.960113525390625
0.13739013671875,0.084686279296875,-0.96087646484375
0.120635986328125,0.08026123046875,-0.9871826171875
0.1783294677734375,0.2411651611328125,-1.3188629150390625
0.1395721435546875,0.166900634765625,-1.266754150390625
0.1921539306640625,-0.051605224609375,-1.0122222900390625
0.2311248779296875,0.021026611328125,-0.9008636474609376
0.3891143798828125,0.12628173828125,-0.88409423828125
0.49298095703125,0.323638916015625,-0.9638671875
0.47698974609375,0.4557342529296875,-1.0981292724609375
0.4140472412109375,0.34674072265625,-1.1766510009765625
0.4163970947265625,0.1484222412109375,-1.1006317138671875
0.4355010986328125,0.171600341796875,-1.0019378662109375
0.45367431640625,0.232452392578125,-1.01995849609375
0.4312591552734375,0.240142822265625,-1.0620880126953125
0.3689727783203125,0.233367919921875,-1.0569305419921875
0.34442138671875,0.1948394775390625,-0.9800567626953124
0.2660980224609375,0.17681884765625,-0.969451904296875
0.2323150634765625,0.1415863037109375,-0.9713287353515624
0.191925048828125,0.0957794189453125,-0.9539642333984376
0.1170806884765625,0.0872955322265625,-0.984130859375
0.14971923828125,0.052764892578125,-0.9642791748046876
0.1451568603515625,0.0645751953125,-0.940155029296875
0.0785064697265625,0.081329345703125,-0.9185333251953124
0.10467529296875,0.00341796875,-0.895721435546875
0.05950927734375,-0.035064697265625,-0.8803253173828125
0.083038330078125,-0.0795135498046875,-0.8828125
0.113922119140625,-0.08868408203125,-0.901519775390625
0.156280517578125,-0.131927490234375,-0.9091644287109376
0.207550048828125,-0.1061248779296875,-1.0824737548828125
0.246490478515625,0.0489044189453125,-1.2248077392578125
0.267303466796875,-0.0356292724609375,-1.063018798828125
0.141632080078125,0.0634918212890625,-1.219512939453125
0.1849212646484375,0.0642852783203125,-1.1183013916015625
0.1849517822265625,-0.0740966796875,-0.8777008056640625
0.03704833984375,-0.1594696044921875,-0.7637786865234375
-0.0007171630859375,-0.04486083984375,-0.9770965576171876
0.1185760498046875,0.1409454345703125,-1.161224365234375
0.25262451171875,0.173187255859375,-1.1133575439453125
0.255645751953125,0.07940673828125,-0.9532318115234376
0.1026763916015625,0.0553131103515625,-0.9251861572265624
0.0602874755859375,0.0549774169921875,-1.017547607421875
0.1495361328125,0.1099853515625,-1.0054931640625
0.186065673828125,0.152069091796875,-0.979400634765625
0.1208038330078125,0.121337890625,-0.9933319091796876
0.066680908203125,0.0908203125,-1.028045654296875
0.0412445068359375,0.05718994140625,-1.0990447998046875
0.0692138671875,0.0391693115234375,-1.025848388671875
0.0598297119140625,0.0574493408203125,-0.9825592041015624
0.0460052490234375,0.05181884765625,-0.92694091796875
0.06365966796875,-0.0001983642578125,-0.910919189453125
0.061279296875,-0.00640869140625,-0.9815521240234376
0.12213134765625,-0.1705322265625,-1.0294189453125
0.2301025390625,-0.301025390625,-1.1228790283203125
0.287384033203125,-0.33343505859375,-1.164093017578125
0.268310546875,-0.2322540283203125,-1.22589111328125
0.2974090576171875,-0.1671600341796875,-1.1302642822265625
0.2490997314453125,-0.0094451904296875,-1.0816650390625
0.225738525390625,0.082794189453125,-0.9927520751953124
0.2872772216796875,0.200836181640625,-1.1367340087890625
0.2645111083984375,0.3593292236328125,-1.3553314208984375
0.2670135498046875,0.1925048828125,-0.9648895263671876
0.2012786865234375,0.2169036865234375,-1.094085693359375
0.1400299072265625,0.2127227783203125,-1.0901947021484375
0.2075042724609375,0.2324371337890625,-1.004058837890625
0.2626953125,0.260223388671875,-0.9351806640625
0.2673492431640625,0.2962799072265625,-0.9604034423828124
0.201629638671875,0.3605499267578125,-0.9898681640625
0.1044464111328125,0.330169677734375,-0.9307098388671876
0.0405426025390625,0.26702880859375,-0.9062042236328124
0.011688232421875,0.2266387939453125,-0.8861236572265625
0.111572265625,0.1912994384765625,-0.9105072021484376
0.180633544921875,0.1500701904296875,-0.8435821533203125
0.152130126953125,0.113067626953125,-0.855255126953125
0.1182098388671875,0.1271514892578125,-1.0732574462890625
0.142303466796875,0.06622314453125,-1.0787200927734375
0.0988006591796875,0.059783935546875,-1.2145233154296875
0.1113128662109375,-0.0192718505859375,-1.22625732421875
0.1595458984375,-0.1183319091796875,-1.0929107666015625
0.1957244873046875,-0.2950897216796875,-1.0609283447265625
0.16827392578125,-0.2476654052734375,-1.2569580078125
0.1771087646484375,-0.2566375732421875,-1.304656982421875
0.1331024169921875,-0.109405517578125,-1.4329376220703125
0.1924285888671875,-0.0985565185546875,-1.3503875732421875
0.1154937744140625,0.0560760498046875,-1.2577667236328125
0.0147247314453125,0.03656005859375,-0.1609039306640625
0.0118255615234375,-0.009674072265625,-0.008148193359375
0.0133056640625,-0.0125274658203125,-0.013427734375
0.016754150390625,-0.0145416259765625,-0.021087646484375
0.01922607421875,-0.01422119140625,-0.029327392578125
0.0214080810546875,-0.0140533447265625,-0.0360260009765625
0.025177001953125,-0.013458251953125,-0.0328369140625
0.0283355712890625,-0.0114898681640625,-0.0308990478515625
0.030548095703125,-0.0095977783203125,-0.03497314453125
2.7770538330078125,-3.5141754150390625,-3.7420501708984375
0.7701416015625,-0.5777587890625,-7.7053375244140625
-0.2490234375,0.1020355224609375,-1.2443389892578125
0.26019287109375,-0.338043212890625,-0.4860076904296875
0.085479736328125,-0.0947418212890625,-0.479644775390625
-0.13238525390625,-0.4956207275390625,-0.8935699462890625
-0.053466796875,-0.6239776611328125,-0.94342041015625
0.028961181640625,-0.3016357421875,-0.9279327392578124
0.0205535888671875,-0.3290557861328125,-0.9665374755859376
0.0098724365234375,-0.40203857421875,-0.91839599609375
0.018463134765625,-0.3390960693359375,-0.9508209228515624
0.0092620849609375,-0.3824462890625,-0.926055908203125
0.01788330078125,-0.353271484375,-0.9438629150390624
0.0093231201171875,-0.3724212646484375,-0.930084228515625
0.016143798828125,-0.358428955078125,-0.9391632080078124
0.012420654296875,-0.371612548828125,-0.9360504150390624
0.01361083984375,-0.361541748046875,-0.937286376953125
0.012451171875,-0.36785888671875,-0.9361114501953124
0.013763427734375,-0.3623809814453125,-0.9365997314453124
0.017578125,-0.3692169189453125,-0.9355926513671876
0.013763427734375,-0.367889404296875,-0.935638427734375
0.011749267578125,-0.365234375,-0.9371795654296876
0.0147857666015625,-0.3662109375,-0.93426513671875
0.013702392578125,-0.3650360107421875,-0.936126708984375
0.0131072998046875,-0.3668365478515625,-0.9339752197265624
0.014129638671875,-0.3643951416015625,-0.936767578125
0.0143890380859375,-0.36566162109375,-0.9353485107421876
0.00640869140625,-0.3702545166015625,-0.92193603515625
0.0044403076171875,-0.35784912109375,-0.8838653564453125
0.01605224609375,-0.37103271484375,-0.845550537109375
0.1980743408203125,-0.37652587890625,-1.0174407958984375
0.0336151123046875,-0.37384033203125,-1.031585693359375
0.1394195556640625,-0.34283447265625,-0.9840087890625
0.065032958984375,-0.4189453125,-0.897674560546875
0.0547943115234375,-0.4154815673828125,-0.8967437744140625
0.068206787109375,-0.386566162109375,-0.91351318359375
0.075042724609375,-0.380218505859375,-0.913238525390625
0.0952911376953125,-0.3845062255859375,-0.9425201416015624
0.067626953125,-0.362060546875,-0.93914794921875
0.092620849609375,-0.3849639892578125,-0.9313812255859376
0.0799560546875,-0.377105712890625,-0.9148101806640624
0.0788726806640625,-0.38055419921875,-0.9262237548828124
0.081085205078125,-0.3912811279296875,-0.9114837646484376
0.07916259765625,-0.3672637939453125,-0.9236297607421876
0.0730438232421875,-0.392425537109375,-0.9243621826171876
