AccelerationX,AccelerationY,AccelerationZ
0.072845458984375,-0.2128753662109375,-1.0167694091796875
-0.0236358642578125,-0.2460784912109375,-0.973236083984375
-0.0819091796875,-0.2557525634765625,-0.8480987548828125
-0.059295654296875,-0.161346435546875,-0.8048095703125
-0.111785888671875,-0.2035980224609375,-0.950286865234375
-0.1187896728515625,-0.2624969482421875,-0.9248046875
-0.0554656982421875,-0.2717132568359375,-0.909393310546875
-0.000518798828125,-0.344970703125,-1.1009368896484375
0.07122802734375,-0.3307952880859375,-1.003143310546875
-0.0580902099609375,-0.3418426513671875,-0.9908294677734376
0.001068115234375,-0.3338470458984375,-1.0015869140625
0.0582733154296875,-0.355194091796875,-1.006134033203125
0.0515594482421875,-0.347198486328125,-0.9445648193359376
0.0159149169921875,-0.339019775390625,-1.079681396484375
-0.0362548828125,-0.274627685546875,-0.8677215576171875
-0.065185546875,-0.2622833251953125,-0.915985107421875
-0.0499420166015625,-0.2881011962890625,-1.035675048828125
-0.218475341796875,-0.073516845703125,-1.0440216064453125
-0.0554351806640625,-0.00189208984375,-1.2458648681640625
0.063568115234375,-0.2832183837890625,-1.1387176513671875
0.04345703125,-0.2421722412109375,-0.9949188232421876
0.013671875,-0.057769775390625,-1.402435302734375
0.05340576171875,-0.2778167724609375,-1.4414520263671875
0.086151123046875,-0.3062744140625,-1.103607177734375
0.0512542724609375,-0.1126861572265625,-0.9253387451171876
0.0323333740234375,-0.05206298828125,-0.8030242919921875
0.003692626953125,-0.0261383056640625,-0.73431396484375
-0.001800537109375,-0.0168914794921875,-0.8192138671875
-0.0164337158203125,0.041717529296875,-0.8595733642578125
-0.0706939697265625,0.079437255859375,-0.9005279541015625
-0.0520172119140625,0.166229248046875,-0.95355224609375
-0.0641632080078125,0.271820068359375,-1.2539825439453125
0.1001434326171875,0.2261962890625,-1.0773773193359375
0.2998046875,-0.0498199462890625,-0.9772796630859376
0.1488494873046875,-0.1359100341796875,-1.1226654052734375
0.0263214111328125,-0.119476318359375,-1.05645751953125
0.181854248046875,-0.21612548828125,-1.2537384033203125
0.004486083984375,-0.3680419921875,-1.1235809326171875
-0.0326690673828125,-0.297119140625,-0.770751953125
0.0473480224609375,-0.2289581298828125,-0.6991424560546875
0.0019378662109375,-0.1945648193359375,-0.7808380126953125
-0.086151123046875,-0.195098876953125,-0.894744873046875
0.0163116455078125,-0.205108642578125,-0.8840789794921875
-0.0336456298828125,-0.2437591552734375,-0.9759521484375
-0.091796875,-0.3078155517578125,-1.0761260986328125
-0.034271240234375,-0.19561767578125,-1.0735015869140625
-0.0154571533203125,-0.0935211181640625,-1.1265106201171875
0.105987548828125,-0.3810272216796875,-1.4280548095703125
0.10009765625,-0.2391357421875,-1.3473663330078125
-0.01214599609375,-0.1634063720703125,-1.1618499755859375
0.2660369873046875,-0.415130615234375,-1.0460968017578125
0.0270843505859375,-0.29718017578125,-0.5941314697265625
0.344085693359375,-0.2089996337890625,-0.7140960693359375
0.3041839599609375,-0.1375579833984375,-0.7834930419921875
0.1260223388671875,-0.0157318115234375,-0.446807861328125
0.10504150390625,0.2943878173828125,-1.006011962890625
0.140716552734375,0.7229461669921875,-1.0342864990234375
-0.0502777099609375,1.2036590576171875,-0.65020751953125
-0.0175018310546875,1.11419677734375,-0.65313720703125
-0.2875213623046875,0.909210205078125,-1.7372894287109375
-0.001190185546875,0.6882171630859375,-1.9463348388671875
0.5729217529296875,-0.2444610595703125,-2.9976348876953125
1.104766845703125,-1.033477783203125,-2.927108764648437
1.0091705322265625,-1.00555419921875,-1.660797119140625
-0.0177459716796875,-0.7229766845703125,-0.9453582763671876
-0.066253662109375,-1.067138671875,0.102874755859375
-0.0824127197265625,-0.98870849609375,0.3860015869140625
0.711090087890625,-1.2097015380859375,0.0632171630859375
2.6748504638671875,-1.301055908203125,0.013580322265625
1.772308349609375,-2.59088134765625,-3.414291381835937
4.08831787109375,-2.568511962890625,-5.7913665771484375
3.1849517822265625,0.9999542236328124,-4.773590087890625
-0.0526885986328125,3.2328338623046875,-2.558944702148437
-0.47210693359375,3.068832397460937,0.0792388916015625
1.156768798828125,3.4392547607421875,-0.2357025146484375
-0.7866973876953125,2.970001220703125,0.2241058349609375
-0.101776123046875,2.471908569335937,-0.83807373046875
-0.079193115234375,1.884429931640625,-2.749908447265625
-0.2498016357421875,-0.1363525390625,-3.647018432617188
2.11322021484375,-4.5120849609375,-7.888519287109375
2.03814697265625,-1.77618408203125,-1.229217529296875
-0.71124267578125,-1.0847015380859375,0.06634521484375
-0.1750946044921875,-0.841644287109375,0.7472076416015625
0.9321441650390624,-0.8930206298828125,0.860382080078125
0.1124420166015625,-1.37066650390625,0.7433319091796875
2.6188201904296875,-1.9669189453125,0.4255523681640625
2.3562774658203125,-2.302001953125,-1.642303466796875
4.596038818359375,-2.7267303466796875,-4.3760833740234375
2.8747100830078125,0.6008453369140625,-4.3705902099609375
0.2431488037109375,1.5786895751953125,-1.992523193359375
0.101043701171875,1.9659423828125,-0.64990234375
-0.1157989501953125,2.2026824951171875,-0.2298126220703125
-0.777099609375,2.552520751953125,0.4427642822265625
-0.0211639404296875,2.412567138671875,-0.6094818115234375
0.5067596435546875,2.48974609375,-1.224334716796875
-1.1538848876953125,0.56072998046875,-3.9001312255859375
3.138275146484375,-5.051727294921875,-7.9285125732421875
2.62921142578125,-2.3981475830078125,-1.508941650390625
-0.9498443603515624,-0.97174072265625,1.1650390625
-0.1409454345703125,-0.9647979736328124,1.192169189453125
0.5503692626953125,-1.207122802734375,1.1719512939453125
0.4234161376953125,-1.3890380859375,0.2259521484375
0.6544952392578125,-0.981536865234375,0.547332763671875
0.2349395751953125,-2.627059936523437,-1.6021270751953125
3.970870971679688,-6.36627197265625,-5.318115234375
4.4931640625,-1.522247314453125,-5.3413848876953125
0.2640838623046875,2.0972137451171875,-2.082794189453125
0.320526123046875,3.40576171875,-0.7176513671875
-0.586090087890625,3.919708251953125,-0.208953857421875
-1.21533203125,3.709793090820313,0.3697357177734375
0.6341094970703125,2.7722625732421875,-1.0863494873046875
1.093170166015625,1.12298583984375,-3.8284759521484375
1.16473388671875,-3.893646240234375,-7.3183135986328125
4.49017333984375,-3.617019653320313,-3.5850982666015625
0.3269195556640625,-1.710906982421875,-0.841766357421875
-0.9494171142578124,-0.741668701171875,0.67974853515625
-0.1157379150390625,-0.767333984375,1.1625823974609375
0.3209686279296875,-1.0943145751953125,0.690826416015625
0.8155517578125,-1.2896575927734375,0.9365234375
0.4184112548828125,-1.1040802001953125,0.583038330078125
0.15777587890625,-2.472686767578125,-0.503265380859375
6.95220947265625,-6.62994384765625,-6.2403717041015625
1.84735107421875,-0.302154541015625,-5.112350463867188
-0.8885040283203125,2.30157470703125,-1.653045654296875
1.239166259765625,3.262664794921875,-0.258209228515625
-1.293182373046875,3.7004241943359375,-0.089263916015625
-1.2511749267578125,3.060272216796875,-0.3889007568359375
0.8936920166015625,2.4990386962890625,-0.917388916015625
0.556365966796875,0.7445526123046875,-3.870407104492188
2.885650634765625,-3.6751708984375,-7.226806640625
5.86328125,-3.11297607421875,-3.590576171875
-0.1580047607421875,-1.218902587890625,-0.1553802490234375
-0.726776123046875,-0.88031005859375,0.9034271240234376
0.0489501953125,-0.974822998046875,0.9262847900390624
0.433258056640625,-1.24554443359375,0.998291015625
0.4934539794921875,-1.113250732421875,0.017425537109375
-0.7269744873046875,-0.9550933837890624,0.5157012939453125
0.851318359375,-2.862823486328125,-1.46630859375
6.468307495117188,-5.486740112304688,-4.1613616943359375
3.981353759765625,-0.3444366455078125,-4.5242919921875
0.188140869140625,2.2596893310546875,-1.8667144775390625
0.5335235595703125,2.8925933837890625,-0.5333709716796875
-0.85113525390625,2.9248504638671875,-0.061279296875
-1.6871490478515625,2.550277709960937,0.574127197265625
-0.040679931640625,2.056610107421875,-0.6603546142578125
0.4754791259765625,1.5433502197265625,-1.44781494140625
-0.4876861572265625,-0.0036773681640625,-3.967819213867188
5.9520416259765625,-4.6099853515625,-7.114913940429688
2.852783203125,-1.7002410888671875,-0.98895263671875
-1.052001953125,-0.575408935546875,0.6510772705078125
-0.740081787109375,-0.4989166259765625,0.8517608642578125
0.1649322509765625,-0.4388885498046875,1.208221435546875
0.8083343505859375,-0.4807281494140625,1.005889892578125
0.934417724609375,-0.5465545654296875,0.8007049560546875
-0.5911102294921875,-0.3207550048828125,0.6288299560546875
5.0753326416015625,-5.464126586914063,-5.303497314453125
6.097671508789063,-2.3915557861328125,-6.8249053955078125
0.35308837890625,2.3414459228515625,-1.4176177978515625
-1.0127716064453125,2.8102569580078125,-0.1860504150390625
-0.9019622802734376,2.585845947265625,0.3686370849609375
-0.329345703125,1.83001708984375,0.05865478515625
0.4563751220703125,1.40264892578125,-0.2578887939453125
0.560516357421875,1.6070709228515625,0.014373779296875
-0.1552734375,0.891265869140625,-2.024688720703125
3.655471801757813,-3.75860595703125,-7.8813629150390625
2.5606231689453125,-2.6480255126953125,-2.6639556884765625
0.17572021484375,-0.968170166015625,-0.2604522705078125
-1.4355926513671875,-0.6578216552734375,0.4621429443359375
-0.9872894287109376,-0.82568359375,0.4497528076171875
0.3225250244140625,-0.6537933349609375,0.43621826171875
0.70697021484375,-0.63323974609375,0.6434783935546875
-0.0685882568359375,-0.3627166748046875,0.51483154296875
0.21929931640625,-2.6019287109375,-0.0142822265625
6.2218780517578125,-4.019744873046875,-4.244232177734375
1.6880340576171875,0.360870361328125,-2.4796295166015625
0.1480560302734375,1.581298828125,-1.189300537109375
0.027618408203125,2.1046142578125,-0.4211273193359375
-0.913726806640625,2.159530639648437,-0.1590728759765625
-0.9107818603515624,2.037750244140625,0.4888916015625
0.1060333251953125,1.993377685546875,0.2692108154296875
0.3647308349609375,1.7956695556640625,-0.4212799072265625
0.115386962890625,-0.683135986328125,-5.200592041015625
6.782485961914063,-3.6981201171875,-5.438018798828125
1.1129913330078125,-1.6382293701171875,-1.054290771484375
-1.1751556396484375,-0.96588134765625,0.859954833984375
-0.485565185546875,-0.8993072509765625,0.9556884765625
0.0927886962890625,-0.7551727294921875,0.7452545166015625
0.4540863037109375,-0.632476806640625,0.658172607421875
0.3794708251953125,-0.3233184814453125,0.5198974609375
2.006332397460937,-3.3780517578125,-0.96075439453125
6.406417846679688,-3.410629272460937,-4.0079345703125
1.47637939453125,0.710418701171875,-2.58831787109375
-0.3851318359375,1.874176025390625,-1.20086669921875
0.117919921875,2.664535522460937,-0.4498443603515625
-1.0489959716796875,2.726959228515625,0.446014404296875
-0.699127197265625,2.065399169921875,-0.3392181396484375
0.3939056396484375,1.85260009765625,-0.9288787841796876
0.4632415771484375,1.3409576416015625,-2.483184814453125
3.581161499023437,-3.604705810546875,-7.926116943359375
3.9243011474609375,-3.3409423828125,-3.4133453369140625
-0.1969146728515625,-1.0796966552734375,0.1390533447265625
-1.0534515380859375,-0.937225341796875,0.51934814453125
-0.2014923095703125,-1.07464599609375,0.6340789794921875
0.57281494140625,-1.0897064208984375,0.5253753662109375
0.2720489501953125,-0.6204071044921875,0.92706298828125
-0.46624755859375,-0.7540435791015625,0.4243011474609375
3.343856811523437,-3.2127838134765625,-1.9617156982421875
3.778030395507813,-3.36761474609375,-4.769866943359375
1.18896484375,0.42596435546875,-2.48687744140625
0.20263671875,1.655364990234375,-1.1357421875
1.0009765625,2.2357177734375,-0.48431396484375
-1.69256591796875,2.422210693359375,0.578033447265625
-1.1727752685546875,2.39044189453125,0.102630615234375
0.65606689453125,2.36029052734375,-0.3424224853515625
0.56524658203125,1.96087646484375,-2.0776824951171875
3.85198974609375,-4.183364868164063,-7.922042846679687
2.8720855712890625,-3.60760498046875,-3.7362213134765625
0.210418701171875,-0.9792022705078124,-0.4316558837890625
-0.3734893798828125,-0.2309417724609375,0.6210479736328125
0.4016571044921875,-0.2449951171875,1.0886993408203125
0.47265625,-0.4762420654296875,1.227081298828125
-0.015899658203125,-0.4446563720703125,0.927093505859375
-0.499267578125,-0.40631103515625,0.5748291015625
-0.7842864990234375,-1.193939208984375,0.3666229248046875
6.4927520751953125,-5.76043701171875,-6.0041351318359375
1.857025146484375,-0.09832763671875,-2.7039031982421875
0.61004638671875,1.2218475341796875,-0.881622314453125
-0.0291748046875,1.5924530029296875,-0.1638031005859375
-0.167266845703125,2.095321655273437,-0.21221923828125
-0.991729736328125,2.6685333251953125,0.9838409423828124
0.2916717529296875,2.4039306640625,0.351470947265625
0.6959686279296875,1.8311920166015625,-1.014190673828125
-0.53375244140625,-0.281707763671875,-4.046844482421875
5.009674072265625,-4.646743774414063,-7.90765380859375
0.26031494140625,-1.4488677978515625,-1.430908203125
-1.10223388671875,-0.3896942138671875,0.1337890625
0.05010986328125,-0.16943359375,0.556793212890625
0.4721832275390625,-0.3531341552734375,0.9698486328125
0.249969482421875,-0.4536285400390625,0.948699951171875
0.3943634033203125,-0.5529937744140625,0.8279266357421875
-0.0186767578125,-0.6770172119140625,0.2274627685546875
-0.2578887939453125,-2.4372100830078125,-0.37213134765625
5.660736083984375,-4.967193603515625,-5.542495727539063
0.8594818115234375,-0.16632080078125,-3.650466918945313
0.5656890869140625,1.712066650390625,-1.335235595703125
0.3688201904296875,2.327133178710937,-0.1671295166015625
-1.0330352783203125,2.56988525390625,0.5356597900390625
-0.9288482666015624,2.18365478515625,0.7143096923828125
0.3591461181640625,1.5924835205078125,-0.100921630859375
0.6059722900390625,1.35089111328125,-0.55804443359375
-0.35009765625,0.4808502197265625,-2.535308837890625
3.827545166015625,-3.483123779296875,-7.06695556640625
1.8068084716796875,-2.5259246826171875,-3.2836456298828125
0.215118408203125,-0.907012939453125,-0.512054443359375
-0.273712158203125,-0.609893798828125,0.646881103515625
-0.0243988037109375,-0.7187652587890625,0.787750244140625
0.053680419921875,-0.6750030517578125,1.0714874267578125
0.119110107421875,-0.7204132080078125,0.83966064453125
0.1852264404296875,-1.0212249755859375,0.292449951171875
1.1361541748046875,-2.897735595703125,-1.6682281494140625
4.7457427978515625,-5.3358154296875,-5.513092041015625
1.594146728515625,-0.4693603515625,-4.4654388427734375
-0.29644775390625,1.414520263671875,-1.5060577392578125
0.5635986328125,2.20623779296875,0.0125885009765625
0.2197723388671875,2.5026397705078125,0.2517242431640625
-1.2090606689453125,2.3638153076171875,0.695587158203125
-0.0615081787109375,1.8042144775390625,-0.2127532958984375
0.6021270751953125,1.5917205810546875,-0.335845947265625
0.34857177734375,1.406494140625,-1.80322265625
0.0888671875,-1.231658935546875,-5.09991455078125
0.1195220947265625,-3.1397857666015625,-5.815887451171875
1.3169403076171875,-1.44757080078125,-0.7733306884765625
0.4473876953125,-1.2277679443359375,-0.080596923828125
-1.0505218505859375,-1.208099365234375,0.0557403564453125
-0.7922515869140625,-0.8399505615234375,0.895050048828125
-0.3189239501953125,-0.7489471435546875,1.0655517578125
0.888275146484375,-1.1018524169921875,-0.1890716552734375
3.61004638671875,-3.324432373046875,-3.010604858398437
2.8885040283203125,-2.591217041015625,-5.368133544921875
0.930023193359375,0.615081787109375,-2.913116455078125
0.35955810546875,1.6495361328125,-0.80584716796875
1.1891021728515625,2.4070281982421875,-0.1234130859375
-0.2400360107421875,3.0410308837890625,0.1680450439453125
-1.187103271484375,3.0935516357421875,0.591766357421875
0.1977081298828125,2.967514038085937,-0.4905548095703125
0.279022216796875,2.06365966796875,-3.06756591796875
0.691131591796875,-2.584686279296875,-7.7063446044921875
5.302947998046875,-3.217041015625,-5.0150909423828125
1.294189453125,-1.2569580078125,-0.6545562744140625
0.03497314453125,-0.6670074462890625,0.1099395751953125
-0.0249786376953125,-0.766571044921875,0.489654541015625
0.1115264892578125,-1.0891571044921875,0.9610748291015624
0.104278564453125,-1.1683807373046875,1.1865692138671875
0.1461639404296875,-0.968414306640625,1.60516357421875
-0.5321502685546875,-1.743133544921875,-0.64044189453125
5.176361083984375,-6.180572509765625,-6.6990509033203125
2.71563720703125,-1.233306884765625,-5.63031005859375
0.67401123046875,1.377899169921875,-2.0764312744140625
0.5403900146484375,2.051010131835937,-0.485809326171875
0.4946746826171875,2.242034912109375,-0.6094512939453125
-0.9934234619140624,2.748291015625,0.4016571044921875
-0.3124237060546875,2.8325958251953125,0.598358154296875
0.4505462646484375,2.4451141357421875,-0.096588134765625
-0.0063018798828125,1.84002685546875,-2.687347412109375
0.6550445556640625,-2.222885131835937,-7.962493896484375
5.1171722412109375,-4.300262451171875,-5.0865478515625
-0.6526641845703125,-1.4367218017578125,-0.202728271484375
-1.0345458984375,-1.1883087158203125,0.6537017822265625
0.4017333984375,-0.9937591552734376,0.8765869140625
0.6101531982421875,-1.1021728515625,0.975555419921875
0.3851165771484375,-1.187347412109375,1.0863800048828125
0.4135894775390625,-1.4180908203125,0.213226318359375
3.810028076171875,-5.3285675048828125,-6.5231781005859375
2.6504364013671875,-1.6269989013671875,-6.4336700439453125
0.514404296875,1.7075042724609375,-2.4332733154296875
0.7443084716796875,2.4690704345703125,-0.7217864990234375
0.064544677734375,3.089950561523437,-0.06475830078125
-1.460052490234375,3.379486083984375,1.0838775634765625
0.1630706787109375,2.76751708984375,-0.004638671875
0.7503814697265625,2.284515380859375,-0.86297607421875
-0.53460693359375,2.08905029296875,-3.222564697265625
4.963714599609375,-3.725616455078125,-7.909942626953125
2.02728271484375,-2.7344512939453125,-2.6391754150390625
-0.855377197265625,-1.3641510009765625,-0.2362823486328125
-0.4127960205078125,-0.9715118408203124,0.2362060546875
0.7652740478515625,-0.82867431640625,0.8007049560546875
-0.0200042724609375,-0.8915863037109375,0.9960174560546876
-0.1394805908203125,-0.7103271484375,1.3774871826171875
0.3623809814453125,-1.6108245849609375,-0.7377777099609375
5.327392578125,-4.86737060546875,-4.49444580078125
2.140228271484375,-2.492095947265625,-5.865493774414063
1.198272705078125,0.4811553955078125,-3.51275634765625
0.75177001953125,1.934539794921875,-1.7495269775390625
0.935272216796875,2.167510986328125,-0.637969970703125
-0.0985260009765625,2.88116455078125,0.2009429931640625
-0.60162353515625,2.75018310546875,0.2361602783203125
-0.3408660888671875,2.4246826171875,-0.0606231689453125
0.1549530029296875,2.3018035888671875,-1.0306549072265625
-0.015960693359375,1.4384002685546875,-3.609832763671875
3.7310791015625,-4.3515167236328125,-7.923019409179687
1.304595947265625,-2.1070709228515625,-1.9031524658203125
-0.5735015869140625,-1.3070831298828125,-0.505859375
0.12445068359375,-1.07794189453125,0.184844970703125
0.4413909912109375,-1.278350830078125,0.926422119140625
0.295257568359375,-1.5498199462890625,1.291656494140625
0.6869964599609375,-1.37548828125,1.53204345703125
1.94122314453125,-1.846343994140625,0.161163330078125
3.7738037109375,-4.39141845703125,-4.146728515625
2.94598388671875,-1.991668701171875,-5.3550872802734375
1.1673736572265625,1.3964996337890625,-3.358016967773437
0.4301300048828125,2.17266845703125,-1.1200408935546875
0.5014801025390625,2.050399780273437,-0.37554931640625
-0.2212371826171875,2.23345947265625,0.2725067138671875
0.3786163330078125,2.1129913330078125,0.005126953125
0.352325439453125,1.903717041015625,0.1455535888671875
-0.063690185546875,1.784759521484375,-1.010986328125
-0.373565673828125,1.064483642578125,-2.724365234375
0.4371490478515625,-2.4829864501953125,-7.057785034179688
2.509918212890625,-2.771240234375,-4.4561614990234375
3.332122802734375,-1.3144073486328125,0.22906494140625
0.2369537353515625,-0.907440185546875,0.23309326171875
-0.876678466796875,-1.384429931640625,0.210357666015625
0.3636322021484375,-0.9322509765625,0.8441925048828125
1.2746734619140625,-0.5819091796875,0.72021484375
0.1839141845703125,-1.009124755859375,-0.1110687255859375
4.6927642822265625,-4.951217651367188,-5.56732177734375
3.009750366210937,-1.870147705078125,-5.59326171875
1.7732086181640625,1.163909912109375,-2.188232421875
1.0908966064453125,2.3284454345703125,-1.11785888671875
0.2130889892578125,2.7050933837890625,-0.8227691650390625
-1.0713348388671875,2.9109649658203125,0.5289154052734375
-0.9604644775390624,2.8648681640625,0.055023193359375
0.0234832763671875,2.7692108154296875,-0.330291748046875
0.674041748046875,2.345672607421875,-1.8945465087890625
1.2727813720703125,-2.1532135009765625,-6.9857177734375
5.461395263671875,-4.712677001953125,-6.7268829345703125
0.67266845703125,-1.4890289306640625,-1.0106658935546875
-0.7200775146484375,-0.5656890869140625,0.1233062744140625
-0.3904876708984375,-0.3343963623046875,0.647674560546875
-0.186004638671875,-0.369293212890625,0.9623870849609376
0.5954132080078125,-0.5867156982421875,0.8394012451171875
0.5287017822265625,-1.1346588134765625,0.54296875
-0.391448974609375,-1.07440185546875,-0.2617645263671875
3.05755615234375,-2.4676513671875,-0.428466796875
2.407211303710937,-3.638992309570313,-6.646942138671875
1.3080596923828125,0.7046051025390625,-2.403717041015625
0.9906463623046876,2.176025390625,-0.848876953125
0.0183868408203125,2.558441162109375,0.001861572265625
-1.6200714111328125,2.7093963623046875,0.4930267333984375
-0.2036285400390625,2.5716552734375,0.5499114990234375
1.0087432861328125,1.974761962890625,-0.9620819091796876
-0.0954132080078125,1.0419921875,-2.449554443359375
1.1029205322265625,-2.8516845703125,-5.7698822021484375
0.9017486572265624,-4.23388671875,-5.5457763671875
-0.5362701416015625,-1.2210693359375,-0.97802734375
-0.23992919921875,-0.399169921875,0.4638671875
0.1066131591796875,-0.4463653564453125,0.992523193359375
0.07305908203125,-0.640106201171875,0.7358245849609375
-0.08953857421875,-0.5054779052734375,0.82568359375
0.0204620361328125,-0.399932861328125,0.7049407958984375
-0.7021636962890625,-0.7369842529296875,-0.19677734375
2.761077880859375,-4.3126983642578125,-2.972991943359375
2.5658721923828125,-3.669967651367188,-5.6824798583984375
0.50665283203125,0.1760711669921875,-1.9000701904296875
0.77130126953125,1.7437286376953125,-0.7342071533203125
0.777984619140625,2.458526611328125,-0.0050048828125
-1.3619232177734375,2.844818115234375,0.5730743408203125
-0.6205902099609375,2.212646484375,-0.0783538818359375
0.690155029296875,1.6467742919921875,-0.996002197265625
0.096710205078125,0.3436431884765625,-2.274887084960937
1.27459716796875,-3.89825439453125,-7.0508880615234375
1.2293701171875,-2.847518920898437,-3.532821655273437
-0.22705078125,-1.008270263671875,-0.08087158203125
-0.7253570556640625,-1.0804595947265625,0.5626068115234375
-0.027313232421875,-0.9220733642578124,0.556304931640625
0.09674072265625,-0.7591094970703125,0.804229736328125
0.39227294921875,-0.5808563232421875,0.8912353515625
0.544403076171875,-0.45068359375,0.7409210205078125
0.794677734375,-2.497665405273437,-0.9459991455078124
3.641021728515625,-4.78082275390625,-7.279998779296875
0.0167236328125,-0.13031005859375,-3.5712127685546875
0.548004150390625,1.5276031494140625,-0.84649658203125
1.1301727294921875,2.235092163085937,0.549163818359375
-0.1509246826171875,2.7735595703125,0.2377166748046875
-1.443084716796875,2.8264617919921875,0.8456268310546875
-0.4270172119140625,2.07958984375,-0.37640380859375
0.2887115478515625,1.8543853759765625,-1.43408203125
0.1732330322265625,1.428466796875,-2.60919189453125
2.9962615966796875,-3.558868408203125,-7.932952880859375
1.5233612060546875,-2.7932281494140625,-3.0851287841796875
-0.0340423583984375,-1.171478271484375,-0.211822509765625
-0.7943572998046875,-0.8815460205078125,-0.2638702392578125
-0.135406494140625,-0.582244873046875,0.5857391357421875
0.6779632568359375,-0.5017547607421875,0.9996337890625
0.7327880859375,-0.22119140625,1.15087890625
0.45819091796875,-0.2147369384765625,1.0244140625
-0.6320648193359375,-0.4548492431640625,0.708099365234375
5.1147308349609375,-5.304214477539063,-6.7960052490234375
1.2612762451171875,-2.884613037109375,-6.599822998046875
0.1736297607421875,0.686065673828125,-1.6071624755859375
0.4927215576171875,2.078125,-0.348052978515625
0.0545654296875,2.8013458251953125,0.3243408203125
-1.3619232177734375,2.8737945556640625,1.135406494140625
-0.0879669189453125,2.133895874023437,-0.3108673095703125
0.5782470703125,1.7531280517578125,-0.7225189208984375
0.154815673828125,1.44964599609375,-2.24761962890625
1.9621124267578125,-2.215545654296875,-6.779754638671875
4.135284423828125,-3.011627197265625,-4.3427734375
0.23651123046875,-1.3613739013671875,-1.0256195068359375
-1.0924835205078125,-0.814117431640625,-0.40521240234375
-0.2328948974609375,-0.4605560302734375,0.4267120361328125
0.4426422119140625,-0.7186126708984375,0.564300537109375
0.764892578125,-1.1877288818359375,1.225921630859375
1.018798828125,-1.240570068359375,1.1774444580078125
1.2327880859375,-1.898040771484375,-0.4738616943359375
4.261474609375,-4.86578369140625,-7.007781982421875
2.7825927734375,-0.9921722412109376,-5.9693756103515625
-0.30706787109375,1.362335205078125,-2.102752685546875
0.27703857421875,1.9076690673828125,-0.15032958984375
0.9742431640625,2.2819976806640625,0.039154052734375
-0.4313201904296875,2.55615234375,0.328125
-0.558563232421875,2.119842529296875,0.30621337890625
0.210540771484375,1.8519439697265625,-0.0025177001953125
0.7300567626953125,1.9127349853515625,-1.03173828125
-0.189208984375,0.724212646484375,-3.5135498046875
1.862762451171875,-4.18255615234375,-7.944900512695312
1.875701904296875,-1.915679931640625,-1.7155914306640625
-2.8792724609375,-1.5641021728515625,-0.188079833984375
-0.61578369140625,-0.8107452392578125,0.223876953125
1.3071441650390625,-0.9845428466796876,1.0693817138671875
1.0911102294921875,-1.1364593505859375,0.7508392333984375
0.707122802734375,-0.89752197265625,0.5110015869140625
0.944122314453125,-0.6082000732421875,0.3678436279296875
1.553924560546875,-2.1137847900390625,-2.5176544189453125
2.488006591796875,-3.625152587890625,-6.399810791015625
0.257171630859375,0.3191375732421875,-3.0316619873046875
0.0126495361328125,1.2897186279296875,-0.594482421875
1.8978271484375,1.640625,0.4510345458984375
0.1609954833984375,2.6845855712890625,0.477569580078125
-1.347808837890625,2.7346954345703125,0.747283935546875
0.406646728515625,2.366439819335937,0.0102081298828125
0.9797515869140624,1.9733734130859373,-0.805816650390625
-0.0870208740234375,0.11407470703125,-3.6508636474609375
2.57208251953125,-3.953567504882813,-7.162857055664063
2.2913055419921875,-2.2509002685546875,-1.789154052734375
-0.2951202392578125,-1.34991455078125,-0.286102294921875
-1.8763275146484373,-1.2416229248046875,-0.2281494140625
0.2139892578125,-0.4662628173828125,0.3885955810546875
0.4839630126953125,-0.3779754638671875,0.969451904296875
0.5023193359375,-0.3793792724609375,0.9672393798828124
0.56549072265625,-0.508636474609375,0.7158203125
1.2485198974609375,-2.1539459228515625,-0.6823577880859375
2.6044158935546875,-4.0174713134765625,-5.270660400390625
0.0979766845703125,-1.192352294921875,-4.799484252929688
0.589874267578125,0.83917236328125,-0.96197509765625
0.9188079833984376,1.1895294189453125,0.036346435546875
0.601776123046875,1.43280029296875,-0.3526611328125
-0.64971923828125,1.8574981689453125,0.4701690673828125
-0.3025360107421875,2.023773193359375,0.43145751953125
0.7559661865234375,1.87939453125,0.2947845458984375
0.018829345703125,1.85418701171875,-0.9069061279296876
1.0092620849609375,-2.5737457275390625,-7.957931518554687
1.9781951904296875,-3.123199462890625,-4.1935577392578125
0.602020263671875,-1.352783203125,-0.5857086181640625
-1.276275634765625,-0.775299072265625,0.13006591796875
-0.0656585693359375,-0.57177734375,0.4394378662109375
0.905609130859375,-0.6243896484375,1.0638885498046875
0.2831878662109375,-0.674713134765625,0.9576263427734376
1.019683837890625,-0.716400146484375,0.5560302734375
0.4423370361328125,-1.323333740234375,-0.13232421875
3.1653289794921875,-4.60198974609375,-6.52166748046875
1.3714599609375,-1.2486114501953125,-5.4778900146484375
0.43701171875,1.1463470458984375,-1.3365631103515625
0.561065673828125,1.4766845703125,-0.185882568359375
0.41143798828125,1.4781951904296875,-0.11163330078125
-0.6677093505859375,1.7519683837890625,0.2851409912109375
-0.436370849609375,2.0250701904296875,0.518951416015625
0.6562957763671875,1.89886474609375,0.08099365234375
0.760589599609375,1.769744873046875,-0.4105987548828125
-1.46002197265625,0.7584991455078125,-2.372909545898437
1.776702880859375,-3.7159423828125,-7.94683837890625
1.2908172607421875,-1.9678955078125,-2.014877319335937
-0.3502960205078125,-0.921173095703125,-0.1602630615234375
-1.2265777587890625,-0.8885345458984375,0.1015625
-0.2538299560546875,-0.6141204833984375,0.18402099609375
0.12261962890625,-0.3505401611328125,0.657745361328125
0.457366943359375,-0.3857421875,0.7517547607421875
0.725311279296875,-0.3658447265625,0.867889404296875
0.23077392578125,-0.5538787841796875,0.312225341796875
4.3477935791015625,-4.797286987304688,-6.05291748046875
2.0805816650390625,-1.6450958251953125,-5.601959228515625
0.459442138671875,0.8064422607421875,-1.3890380859375
0.41851806640625,1.3337554931640625,-0.59515380859375
0.0509796142578125,1.5530548095703125,-0.409820556640625
-1.2172698974609375,1.8426055908203125,0.44940185546875
-0.8305206298828125,1.73016357421875,0.237762451171875
0.4906005859375,1.6982421875,0.1026458740234375
0.7867431640625,1.68096923828125,-0.190277099609375
-0.26861572265625,-0.39849853515625,-3.8587646484375
1.8673095703125,-4.7808685302734375,-7.0135498046875
0.0130462646484375,-1.3075714111328125,-0.6857452392578125
-1.2812347412109375,-0.8232421875,0.255706787109375
-0.5472412109375,-0.68060302734375,0.424407958984375
0.38916015625,-0.781036376953125,0.4260101318359375
-0.0284881591796875,-0.6348114013671875,0.3294677734375
0.093994140625,-0.333648681640625,0.58575439453125
-0.188140869140625,-0.2314453125,0.5722198486328125
2.249542236328125,-3.28472900390625,-4.322296142578125
1.55859375,-3.506576538085937,-6.250946044921875
0.6750946044921875,0.2818145751953125,-1.7031402587890625
0.390533447265625,0.7507476806640625,-0.7265625
0.572418212890625,1.009674072265625,-0.21575927734375
0.378662109375,0.9933319091796876,-0.3491363525390625
-0.6287689208984375,1.344390869140625,-0.091552734375
-0.7287139892578125,1.449005126953125,0.447509765625
0.1284942626953125,1.4454193115234375,0.264068603515625
-0.4290618896484375,1.7773590087890625,0.1572418212890625
3.1676025390625,-1.8074798583984373,-6.851593017578125
2.659454345703125,-3.7965240478515625,-4.751678466796875
-1.1648406982421875,-1.1798858642578125,-0.6381072998046875
-1.4195404052734375,-0.8485260009765625,-0.2694244384765625
-0.178924560546875,-0.4701080322265625,-0.0363006591796875
1.0850372314453125,-0.5595550537109375,0.6196441650390625
0.666473388671875,-0.6158294677734375,0.843902587890625
0.099700927734375,-0.565399169921875,0.900360107421875
-0.5265960693359375,-0.4766998291015625,0.9690093994140624
-0.079010009765625,-2.047393798828125,-1.0454864501953125
3.3245086669921875,-5.2100677490234375,-7.926193237304687
1.93017578125,0.611785888671875,-2.286041259765625
1.000335693359375,1.4476470947265625,-1.4605560302734375
0.1616668701171875,1.7002716064453125,-0.7620391845703125
-0.7765655517578125,1.84710693359375,0.3215789794921875
-0.58636474609375,1.7853240966796875,0.7310028076171875
-0.060791015625,1.4099273681640625,0.4618682861328125
0.2325439453125,1.035552978515625,-0.07281494140625
-0.5615234375,1.028594970703125,-0.352630615234375
-0.3193206787109375,-0.0884857177734375,-3.844879150390625
3.153549194335937,-4.107086181640625,-6.1995849609375
0.5496826171875,-1.33624267578125,-1.671478271484375
-0.2767791748046875,-0.4356842041015625,-0.61651611328125
-1.1240997314453125,-0.3707275390625,-0.331939697265625
-0.1858673095703125,-0.3873443603515625,-0.1510772705078125
0.173980712890625,-0.4571990966796875,0.049957275390625
0.0349578857421875,-0.3918304443359375,0.656890869140625
-0.0016326904296875,-0.3263702392578125,0.745452880859375
-0.39532470703125,-0.465789794921875,0.928253173828125
-1.278411865234375,-1.190185546875,1.3819122314453125
4.81976318359375,-5.658416748046875,-7.7746429443359375
1.9031524658203125,-0.6484222412109375,-3.60650634765625
1.3348846435546875,0.876708984375,-1.732421875
0.5619659423828125,1.22210693359375,-0.80133056640625
0.751861572265625,1.1814117431640625,-0.639068603515625
0.2851715087890625,1.152740478515625,-0.245208740234375
-0.2215118408203125,1.1173553466796875,-0.1238250732421875
-0.22418212890625,1.10467529296875,0.18402099609375
-0.0717620849609375,1.0700531005859375,0.510467529296875
-0.7665557861328125,1.3218536376953125,0.728851318359375
-1.049102783203125,2.131317138671875,-0.086212158203125
3.523681640625,-1.3653106689453125,-6.55902099609375
3.010650634765625,-2.881134033203125,-5.3293304443359375
-0.5425567626953125,-0.9623870849609376,-1.7500152587890625
-1.172210693359375,-0.831512451171875,-0.706207275390625
-0.5041351318359375,-0.993377685546875,-0.182586669921875
0.6182403564453125,-1.1018524169921875,-0.081573486328125
0.5203857421875,-1.018310546875,0.241302490234375
0.165985107421875,-0.8142547607421875,0.5519256591796875
0.2476043701171875,-1.414642333984375,-0.2311553955078125
3.063720703125,-3.71807861328125,-4.643798828125
2.3316650390625,-1.2488861083984375,-4.9337310791015625
1.118621826171875,0.644500732421875,-2.801361083984375
1.8929901123046875,1.70989990234375,-0.5444488525390625
1.31732177734375,2.10638427734375,-0.107269287109375
-0.4509429931640625,1.8459625244140625,0.1008148193359375
-0.4743499755859375,1.5518951416015625,0.5361785888671875
0.044647216796875,1.5089111328125,0.414276123046875
-0.1189422607421875,1.74017333984375,0.2411346435546875
-0.24310302734375,2.3662872314453125,-0.7796478271484375
0.53021240234375,0.9091796875,-5.336929321289063
2.780731201171875,-3.278472900390625,-7.8168792724609375
0.198150634765625,-1.932373046875,-2.5859375
-0.2289886474609375,-1.232513427734375,-0.504180908203125
-0.0869903564453125,-0.960052490234375,0.38836669921875
0.0853271484375,-0.982818603515625,0.552154541015625
-0.0527801513671875,-0.8526153564453125,0.439605712890625
0.599700927734375,-0.7079925537109375,0.7947235107421875
1.3719940185546875,-2.3526611328125,-1.2772979736328125
4.31353759765625,-5.401519775390625,-6.02447509765625
2.108261108398437,-0.845458984375,-5.07421875
1.7018585205078125,1.581024169921875,-2.5800323486328125
1.517333984375,2.8288726806640625,-0.493560791015625
0.68695068359375,3.782180786132813,-0.19696044921875
-1.0550537109375,3.8752288818359375,0.90850830078125
-0.3906402587890625,3.5574188232421875,-0.3658447265625
0.49627685546875,3.1914825439453125,-1.468231201171875
0.1612548828125,2.71588134765625,-4.296630859375
4.3043365478515625,-1.3836517333984375,-7.921905517578125
2.525970458984375,-2.581512451171875,-4.8987884521484375
-0.1729583740234375,-1.5574951171875,-1.174896240234375
0.271484375,-1.37457275390625,-0.008056640625
-0.12249755859375,-1.4107818603515625,0.5369873046875
-0.052215576171875,-1.683319091796875,0.28692626953125
0.355682373046875,-1.4114532470703125,-0.2764129638671875
1.055511474609375,-1.538421630859375,-1.6063385009765625
1.9710693359375,-2.244125366210937,-4.0562286376953125
3.932830810546875,-1.786834716796875,-7.2739410400390625
1.1407928466796875,2.2909393310546875,-5.5907745361328125
-0.0036468505859375,3.3856201171875,-1.68487548828125
0.325164794921875,3.3885650634765625,0.12322998046875
0.7160186767578125,3.620635986328125,-0.281890869140625
-1.3429412841796875,3.5564422607421875,0.5523681640625
-0.295623779296875,3.3159637451171875,-0.363616943359375
0.1961517333984375,3.305526733398437,-2.91156005859375
0.5852508544921875,-0.5496673583984375,-7.9664306640625
2.290634155273437,-3.398773193359375,-7.246368408203125
-0.001251220703125,-1.245574951171875,-1.0561065673828125
0.1939849853515625,-1.2021331787109375,0.3285369873046875
0.5857391357421875,-1.266937255859375,0.412841796875
0.1204986572265625,-1.266845703125,1.0208892822265625
-0.86083984375,-1.578765869140625,0.4822540283203125
0.359954833984375,-1.6746826171875,0.2271270751953125
4.731735229492188,-4.6832275390625,-4.1603851318359375
4.5357513427734375,-1.8242645263671875,-7.8551025390625
-0.28790283203125,2.281478881835937,-4.7996826171875
-0.04644775390625,2.6843414306640625,-1.1553802490234375
1.1753387451171875,3.534774780273437,-0.94091796875
-0.860809326171875,4.596450805664063,0.058135986328125
-1.04620361328125,4.1507720947265625,0.1537017822265625
0.70782470703125,3.3409576416015625,-1.698089599609375
0.2930145263671875,1.8741912841796875,-5.1176300048828125
-0.373443603515625,-4.138427734375,-7.9709930419921875
2.89898681640625,-2.7715606689453125,-3.741043090820313
-0.13726806640625,-1.11578369140625,-0.17120361328125
-0.3833465576171875,-0.97100830078125,0.52655029296875
0.30621337890625,-0.965362548828125,0.7811737060546875
-0.068878173828125,-0.9682769775390624,0.94000244140625
-0.026885986328125,-0.8655853271484375,1.0327911376953125
1.164703369140625,-1.4967041015625,0.1411895751953125
1.941253662109375,-4.4019317626953125,-6.2129974365234375
2.90850830078125,-2.149993896484375,-6.9487152099609375
-0.35089111328125,1.1524658203125,-5.0259857177734375
0.3813018798828125,2.4302215576171875,-2.131103515625
1.2207183837890625,3.350250244140625,-0.1640472412109375
-0.5694580078125,4.236572265625,0.8524627685546875
-0.2335662841796875,3.724578857421875,0.6497344970703125
0.5953521728515625,3.054473876953125,-0.9632415771484376
-0.12078857421875,2.2387847900390625,-3.304962158203125
-0.1492156982421875,-2.1204376220703125,-7.97198486328125
0.5054473876953125,-3.615234375,-6.2183685302734375
-0.0099639892578125,-1.6168212890625,-0.2203826904296875
-0.4345703125,-1.471710205078125,0.0847625732421875
0.087860107421875,-1.4052276611328125,0.599517822265625
0.190765380859375,-1.5627899169921875,0.6129150390625
-0.1117401123046875,-1.3043212890625,0.827789306640625
-0.2563323974609375,-2.165557861328125,1.2429351806640625
4.09747314453125,-4.9356536865234375,-5.956329345703125
4.090499877929688,-1.357177734375,-7.219268798828125
-0.086090087890625,1.6777496337890625,-3.760299682617188
0.1961517333984375,2.903289794921875,-1.0587158203125
0.666229248046875,3.812774658203125,-0.65399169921875
-1.6041259765625,5.066986083984375,1.7952880859375
-0.0655364990234375,4.496124267578125,-0.4677581787109375
1.0659027099609375,3.3343963623046875,-3.10137939453125
-1.2692413330078125,-0.74053955078125,-7.398635864257812
0.88995361328125,-3.486083984375,-7.8293609619140625
0.712158203125,-2.627532958984375,-3.500473022460937
-0.2498779296875,-1.094146728515625,-0.4548187255859375
-0.20953369140625,-0.7424774169921875,0.857574462890625
0.5782318115234375,-0.8862152099609375,0.8482666015625
0.4249420166015625,-1.20684814453125,0.9340057373046876
-0.076690673828125,-1.1380767822265625,1.1069793701171875
-1.516845703125,-1.480377197265625,0.2691802978515625
0.3421478271484375,-4.0727081298828125,-2.69061279296875
2.4850006103515625,-4.7376861572265625,-7.936721801757812
-0.5146636962890625,0.6785736083984375,-5.19390869140625
0.456451416015625,2.037689208984375,-1.99163818359375
1.925506591796875,2.472763061523437,-0.4150390625
0.2104949951171875,3.646926879882813,-0.8747406005859375
-0.4706268310546875,4.1790618896484375,2.196807861328125
1.5093231201171875,3.4210662841796875,-0.408203125
0.676971435546875,2.724105834960937,-2.005401611328125
-1.01922607421875,0.838226318359375,-5.56103515625
1.383880615234375,-3.7227783203125,-7.951446533203125
0.81298828125,-2.22454833984375,-2.3588409423828125
-0.1770782470703125,-1.4630126953125,0.1671600341796875
0.1387786865234375,-1.2144622802734375,0.4513702392578125
-0.0744171142578125,-1.0943145751953125,0.748809814453125
-0.042938232421875,-0.76617431640625,0.6599273681640625
0.438079833984375,-0.652587890625,0.5759429931640625
1.8214569091796875,-1.6125030517578125,-0.9280242919921876
3.573455810546875,-4.52362060546875,-7.92462158203125
0.9294891357421876,0.9113922119140624,-3.9498291015625
0.4942626953125,2.1986236572265625,-0.94482421875
0.003936767578125,2.7735137939453125,0.275848388671875
-0.6687469482421875,3.3719024658203125,0.6434326171875
-0.4467620849609375,3.2928466796875,0.93487548828125
0.66510009765625,2.3231658935546875,-1.102325439453125
-0.2058563232421875,0.3402099609375,-3.419921875
0.98138427734375,-3.093170166015625,-6.8935546875
1.39129638671875,-2.33612060546875,-3.242416381835937
-1.116363525390625,-1.13995361328125,-0.3927154541015625
-0.9432525634765624,-0.71063232421875,0.3170928955078125
1.2214202880859375,-0.5725250244140625,0.935760498046875
0.9405364990234376,-0.724334716796875,1.1095428466796875
0.422882080078125,-0.99365234375,0.907196044921875
-0.2400970458984375,-1.7341461181640625,-0.1250457763671875
1.62823486328125,-3.0011749267578125,-2.442367553710937
3.864990234375,-3.901443481445313,-7.922256469726562
0.4101715087890625,1.2322845458984375,-4.15631103515625
0.8549346923828125,2.456527709960937,-0.8633575439453125
0.5770721435546875,3.0442657470703125,0.399383544921875
-1.322296142578125,4.025421142578125,1.5726318359375
-0.9416351318359376,3.7641448974609375,1.06231689453125
1.1768341064453125,3.12347412109375,-1.543609619140625
0.0280914306640625,0.9884185791015624,-4.6360626220703125
0.478729248046875,-2.2089080810546875,-7.487411499023437
2.704193115234375,-3.1978912353515625,-4.712448120117188
0.4615936279296875,-1.6928253173828125,-0.497406005859375
-0.677215576171875,-1.538299560546875,0.2318572998046875
0.103973388671875,-1.2378997802734375,0.695404052734375
-0.0054168701171875,-0.997711181640625,1.1847381591796875
0.00885009765625,-0.9818572998046876,0.4606475830078125
0.6536865234375,-1.7176666259765625,-0.25506591796875
5.3531036376953125,-3.742691040039064,-3.07598876953125
3.654815673828125,-1.22503662109375,-4.30535888671875
1.8916015625,0.9443206787109376,-1.9863433837890625
0.7429656982421875,2.1580352783203125,-0.73529052734375
-0.1152801513671875,2.92401123046875,-0.4856414794921875
-2.0923309326171875,3.861740112304688,0.63665771484375
-0.723541259765625,3.5302734375,-0.46624755859375
1.024932861328125,2.99188232421875,-1.5387115478515625
1.2050933837890625,0.6492767333984375,-4.424087524414063
3.048797607421875,-3.299346923828125,-7.531600952148437
3.840423583984375,-2.751617431640625,-3.4036407470703125
0.4036102294921875,-1.3912811279296875,-0.4364166259765625
-0.11932373046875,-1.0283966064453125,0.3966217041015625
-0.4241180419921875,-1.252349853515625,0.4541015625
-0.591827392578125,-1.1648406982421875,0.73724365234375
-0.031890869140625,-1.14532470703125,0.393402099609375
0.80499267578125,-1.5502471923828125,-0.1460418701171875
5.299957275390625,-1.87078857421875,-0.3823394775390625
5.21099853515625,-0.398529052734375,-2.7508544921875
2.81707763671875,0.559783935546875,-2.5693511962890625
0.947540283203125,1.7205810546875,-0.8042144775390625
0.3369293212890625,2.2445831298828125,-0.50018310546875
-1.3962860107421875,2.851593017578125,-0.1069183349609375
-1.27093505859375,3.214462280273437,0.5709991455078125
0.8167724609375,3.0257720947265625,0.011566162109375
0.6707000732421875,2.605438232421875,-1.804229736328125
2.6634979248046875,-1.7517547607421875,-7.823577880859375
4.8599700927734375,-3.835235595703125,-5.7120361328125
0.171661376953125,-1.3729248046875,-0.5161590576171875
-0.5547027587890625,-0.9128875732421876,0.6509246826171875
-0.1949920654296875,-0.917144775390625,0.7377777099609375
-0.088897705078125,-1.0855255126953125,1.03228759765625
0.117584228515625,-1.10516357421875,0.903106689453125
-0.05615234375,-0.9544219970703124,0.8002166748046875
2.753662109375,-2.466705322265625,-0.698333740234375
6.3473968505859375,-3.319549560546875,-6.061004638671875
0.7538604736328125,0.72088623046875,-4.162139892578125
0.6856842041015625,2.290390014648437,-1.26708984375
0.3914642333984375,2.769256591796875,0.01904296875
-1.361602783203125,3.249114990234375,0.76348876953125
-0.893890380859375,2.846282958984375,0.58941650390625
0.6987457275390625,2.226226806640625,-0.378692626953125
0.5766143798828125,2.18304443359375,-1.29449462890625
0.935150146484375,-0.84979248046875,-7.082183837890625
5.128326416015625,-3.871597290039064,-6.02374267578125
0.443572998046875,-1.6059112548828125,-0.782989501953125
-1.4328155517578125,-1.2271270751953125,0.3479766845703125
-0.312103271484375,-0.9486541748046876,0.79693603515625
0.1396484375,-0.8084259033203125,1.09417724609375
0.3824005126953125,-0.7795257568359375,0.6022796630859375
-0.0776519775390625,-0.619171142578125,0.081268310546875
5.167526245117188,-2.92169189453125,-3.2594451904296875
5.4676513671875,-1.1552276611328125,-5.225830078125
1.3108062744140625,0.941986083984375,-2.413177490234375
0.8531494140625,1.863616943359375,-0.720428466796875
0.438812255859375,2.14959716796875,-0.64166259765625
-0.904144287109375,2.8070068359375,-0.1947174072265625
-1.504852294921875,3.1789093017578125,0.7052001953125
0.446990966796875,2.704620361328125,-0.247833251953125
0.8095245361328125,1.93695068359375,-1.8197021484375
2.2620086669921875,-3.1235504150390625,-6.1373291015625
0.7131500244140625,-4.7169342041015625,-5.605270385742188
-0.41583251953125,-1.4269256591796875,-0.5599365234375
-0.7221832275390625,-0.5977325439453125,0.0833282470703125
-0.73052978515625,-0.25714111328125,0.3021087646484375
-0.1049652099609375,-0.435272216796875,0.6181488037109375
0.364044189453125,-0.5179290771484375,1.2206268310546875
-0.086700439453125,-0.674896240234375,0.9404449462890624
-1.1853485107421875,-1.79156494140625,-1.49932861328125
5.161178588867188,-4.583526611328125,-4.8983306884765625
3.039215087890625,-1.5527801513671875,-4.3137969970703125
1.083770751953125,0.7052154541015625,-1.8685150146484373
0.7340545654296875,2.0585174560546875,-0.411346435546875
0.5420989990234375,2.312835693359375,-0.42169189453125
-1.688385009765625,3.0865631103515625,0.620697021484375
-1.1968994140625,3.068832397460937,0.5524749755859375
0.44195556640625,2.7061004638671875,-0.6312255859375
0.5516510009765625,1.88531494140625,-3.02203369140625
2.8563385009765625,-2.788436889648437,-7.9360198974609375
4.9644317626953125,-3.026718139648437,-4.28228759765625
-0.02392578125,-1.2158966064453125,-0.24432373046875
-0.796112060546875,-0.9431304931640624,0.586212158203125
-0.166229248046875,-0.8526153564453125,0.7390289306640625
-0.171112060546875,-0.82470703125,1.0230865478515625
0.0473175048828125,-0.6385650634765625,1.0384063720703125
1.46466064453125,-1.4415283203125,-1.101806640625
4.517257690429688,-3.2811737060546875,-3.873855590820313
1.5590362548828125,-0.3413848876953125,-3.2776641845703125
1.006866455078125,0.608642578125,-1.2603302001953125
0.2291412353515625,1.1177520751953125,-0.16339111328125
-0.2212371826171875,1.3607025146484375,0.117645263671875
-0.652008056640625,1.778533935546875,0.2194671630859375
-0.5873870849609375,2.346160888671875,0.5322418212890625
0.44439697265625,2.6369781494140625,-0.92742919921875
0.6744384765625,1.2474365234375,-2.9162750244140625
1.883697509765625,-3.0006256103515625,-6.54364013671875
2.9168701171875,-3.2360076904296875,-3.794891357421875
-0.0719146728515625,-1.296783447265625,-0.2079620361328125
-0.8625030517578125,-1.0139312744140625,0.265533447265625
-0.087127685546875,-0.8194122314453125,0.6217498779296875
0.190521240234375,-0.6331939697265625,1.012451171875
0.2134246826171875,-0.4273834228515625,1.0410614013671875
0.0301513671875,-0.9990234375,-0.2685089111328125
2.2334442138671875,-3.367156982421875,-2.69085693359375
3.4515838623046875,-2.891876220703125,-5.197509765625
0.6993865966796875,-0.18212890625,-3.1374969482421875
0.7213287353515625,1.0404052734375,-0.670806884765625
0.655731201171875,1.923797607421875,-0.194976806640625
-0.2431182861328125,2.50860595703125,0.26983642578125
-1.5391845703125,3.043609619140625,1.4141998291015625
0.191375732421875,2.53424072265625,-0.0338592529296875
0.49639892578125,1.8911895751953125,-0.9150238037109376
-0.88885498046875,1.0773468017578125,-3.94580078125
1.2310028076171875,-2.366119384765625,-7.5864715576171875
2.7634735107421875,-2.089691162109375,-2.7626953125
-0.4175567626953125,-1.0662994384765625,0.0428314208984375
-0.7356109619140625,-1.019561767578125,0.520721435546875
0.1105499267578125,-1.0899658203125,0.5553436279296875
0.1114501953125,-0.9545745849609376,0.430084228515625
-0.011474609375,-0.864501953125,0.8623504638671875
0.1491546630859375,-1.20257568359375,-0.185638427734375
4.6371612548828125,-4.010833740234375,-7.679824829101562
1.3479766845703125,0.4369964599609375,-5.44561767578125
-0.1318206787109375,1.2543792724609375,-1.563720703125
-0.1309051513671875,1.4096221923828125,-0.515594482421875
0.53839111328125,1.511077880859375,0.0715484619140625
-0.2296142578125,2.184066772460937,-0.3544769287109375
-1.09136962890625,2.85296630859375,1.0687103271484375
0.405609130859375,2.697128295898437,-0.077667236328125
0.828704833984375,1.90045166015625,-1.8805084228515625
0.796844482421875,-2.0859527587890625,-6.373382568359375
2.234161376953125,-3.356903076171875,-4.988006591796875
0.1001129150390625,-1.6220855712890625,-1.113189697265625
-1.234771728515625,-0.720733642578125,0.3254852294921875
-0.4166412353515625,-0.4070281982421875,0.57763671875
0.0380859375,-0.5110321044921875,0.635284423828125
0.1898345947265625,-0.6365509033203125,0.1873016357421875
0.166290283203125,-0.597442626953125,-0.155303955078125
1.4135894775390625,-1.17803955078125,-1.8731536865234373
1.446746826171875,-0.6483001708984375,-2.0064697265625
0.118743896484375,0.10589599609375,-3.126205444335937
0.659881591796875,-0.34844970703125,-3.6163482666015625
0.931243896484375,-0.0069732666015625,-1.919403076171875
-0.5953369140625,0.38226318359375,-0.5285491943359375
-0.2417144775390625,0.4425811767578125,-0.3442840576171875
-0.0652008056640625,0.0399932861328125,-0.376251220703125
0.06011962890625,0.0172576904296875,-0.0267333984375
0.0584869384765625,0.0142822265625,-0.031402587890625
0.05279541015625,0.009521484375,-0.0313262939453125
0.0475311279296875,0.00439453125,-0.0291290283203125
0.040802001953125,0.0021820068359375,-0.026763916015625
0.0354156494140625,0.0036468505859375,-0.0263214111328125
0.03167724609375,0.000274658203125,-0.0162811279296875
0.029022216796875,-0.00201416015625,-0.0069122314453125
0.0338287353515625,-0.0052337646484375,0.0228424072265625
0.046051025390625,-0.0141143798828125,0.062103271484375
0.0637359619140625,-0.0247039794921875,0.0901641845703125
0.0789337158203125,-0.02276611328125,0.0965576171875
0.0944671630859375,-0.023529052734375,0.111419677734375
7.89178466796875,8.023757934570312,7.985748291015625
0.4541473388671875,0.7393035888671875,-0.199554443359375
0.4006805419921875,0.6982421875,-0.0542755126953125
0.423248291015625,0.6008148193359375,-0.136077880859375
0.4594573974609375,0.4264373779296875,-0.145294189453125
0.4820404052734375,0.145660400390625,-0.0576324462890625
0.5980987548828125,-0.40350341796875,-2.8579864501953125
-0.291595458984375,0.179229736328125,-0.509796142578125
0.044219970703125,0.0834808349609375,-0.114990234375
0.3798980712890625,-0.0349273681640625,-0.6273651123046875
0.1507720947265625,0.1739959716796875,-2.078094482421875
0.274688720703125,0.0507659912109375,-0.6657867431640625
0.169830322265625,0.0644073486328125,-1.1108856201171875
0.2703704833984375,0.0439300537109375,-0.9255218505859376
0.2317657470703125,0.0520782470703125,-1.0070953369140625
0.2269439697265625,0.0522613525390625,-1.007659912109375
0.2369842529296875,0.0523223876953125,-0.9791717529296876
0.237548828125,0.052459716796875,-0.982696533203125
0.2320404052734375,0.0540924072265625,-0.98980712890625
0.234771728515625,0.0555419921875,-0.98968505859375
0.2731781005859375,0.0558013916015625,-0.9599151611328124
0.2477264404296875,0.053802490234375,-0.9782562255859376
0.2418670654296875,0.0567169189453125,-0.9825897216796876
0.2355499267578125,0.0548553466796875,-0.9857177734375
0.2318572998046875,0.051422119140625,-0.988616943359375
0.235076904296875,0.053955078125,-0.9860076904296876
0.234283447265625,0.0562286376953125,-0.98638916015625
0.234130859375,0.0550994873046875,-0.987213134765625
0.231964111328125,0.0510711669921875,-0.9879913330078124
0.234649658203125,0.05316162109375,-0.9880828857421876
0.23443603515625,0.0546722412109375,-0.98785400390625
0.2335205078125,0.053466796875,-0.9862060546875
0.2353973388671875,0.0546722412109375,-0.98724365234375
0.2360076904296875,0.0532379150390625,-0.986114501953125
0.23602294921875,0.0525360107421875,-0.9858856201171876
0.2356719970703125,0.054229736328125,-0.9866485595703124
0.235321044921875,0.0529937744140625,-0.98583984375
0.234283447265625,0.051727294921875,-0.9871826171875
0.235107421875,0.054412841796875,-0.9875946044921876
0.23394775390625,0.054473876953125,-0.9874725341796876
0.2348785400390625,0.0550994873046875,-0.98663330078125
0.236907958984375,0.05523681640625,-0.9900665283203124
0.2360382080078125,0.0540924072265625,-0.986846923828125
0.2323760986328125,0.0526885986328125,-0.9854583740234376
0.2360687255859375,0.0545654296875,-0.98614501953125
0.234710693359375,0.05352783203125,-0.987823486328125
0.234344482421875,0.0539093017578125,-0.985992431640625
0.2359161376953125,0.0545501708984375,-0.9882659912109376
0.23529052734375,0.0547332763671875,-0.9875946044921876
0.23492431640625,0.0543365478515625,-0.9871826171875
0.2350006103515625,0.0546417236328125,-0.98748779296875
0.2342987060546875,0.05511474609375,-0.9862518310546876
0.2373046875,0.054931640625,-0.9849700927734376
0.23223876953125,0.0523529052734375,-0.9868316650390624
0.2333526611328125,0.054840087890625,-0.9879913330078124
0.233642578125,0.0559234619140625,-0.98663330078125
0.233917236328125,0.0543212890625,-0.9869842529296876
0.2326507568359375,0.0517730712890625,-0.988006591796875
0.2354736328125,0.05487060546875,-0.9864959716796876
0.2341461181640625,0.0529327392578125,-0.9881744384765624
0.2342529296875,0.0546722412109375,-0.98590087890625
0.2340850830078125,0.052490234375,-0.9866485595703124
0.2338409423828125,0.0536041259765625,-0.9865570068359376
0.233367919921875,0.0546875,-0.98480224609375
0.23406982421875,0.05120849609375,-0.986480712890625
0.2350006103515625,0.05316162109375,-0.9857177734375
0.23370361328125,0.054107666015625,-0.9869232177734376
0.2323760986328125,0.0529022216796875,-0.985382080078125
0.235260009765625,0.0553741455078125,-0.9874267578125
0.23486328125,0.054595947265625,-0.9873504638671876
0.23345947265625,0.0530853271484375,-0.985382080078125
0.2333984375,0.0534210205078125,-0.9855499267578124
0.2339324951171875,0.0533294677734375,-0.9869232177734376
0.2336578369140625,0.0569305419921875,-0.985595703125
0.235260009765625,0.05548095703125,-0.986541748046875
0.2344970703125,0.0560150146484375,-0.98565673828125
0.235107421875,0.0543365478515625,-0.9869537353515624
0.23272705078125,0.05401611328125,-0.9852447509765624
0.2361297607421875,0.054229736328125,-0.9859771728515624
0.2342681884765625,0.05474853515625,-0.98785400390625
0.2366943359375,0.0563201904296875,-0.9858551025390624
0.233489990234375,0.052398681640625,-0.9930419921875
0.230316162109375,0.0574798583984375,-0.992950439453125
0.2316131591796875,0.0503997802734375,-0.988037109375
0.22930908203125,0.0521240234375,-0.9863433837890624
0.2297515869140625,0.050323486328125,-0.9859771728515624
0.2255706787109375,0.049713134765625,-0.9859161376953124
0.227264404296875,0.0512542724609375,-0.98248291015625
0.2285614013671875,0.053741455078125,-0.9837646484375
0.2294921875,0.0496978759765625,-0.9896087646484376
0.225494384765625,0.056304931640625,-0.986083984375
0.2231292724609375,0.0480499267578125,-0.9865875244140624
0.225860595703125,0.04876708984375,-0.9906463623046876
0.227783203125,0.0475921630859375,-0.988677978515625
0.2248687744140625,0.0465240478515625,-0.9935302734375
0.2227630615234375,0.0497283935546875,-0.9905242919921876
0.2236785888671875,0.050567626953125,-0.9954833984375
0.2225189208984375,0.0486907958984375,-0.9950103759765624
0.22052001953125,0.0497894287109375,-0.9901275634765624
0.220794677734375,0.0474700927734375,-0.986328125
0.2228240966796875,0.0480804443359375,-0.9903106689453124
0.221710205078125,0.048309326171875,-0.9911346435546876
0.221832275390625,0.048095703125,-0.9914093017578124
0.2212371826171875,0.0492706298828125,-0.9889984130859376
0.217010498046875,0.044708251953125,-0.987457275390625
0.22454833984375,0.051666259765625,-0.9863433837890624
0.2251129150390625,0.0515899658203125,-0.986968994140625
0.221405029296875,0.048004150390625,-0.9920196533203124
0.2225799560546875,0.05072021484375,-0.9895782470703124
0.2217254638671875,0.0493621826171875,-0.98846435546875
0.2244873046875,0.0478363037109375,-0.9906768798828124
0.2256011962890625,0.0501251220703125,-0.9931640625
0.223724365234375,0.0502166748046875,-0.9894561767578124
0.2241668701171875,0.0494232177734375,-0.9878692626953124
0.2193145751953125,0.0474700927734375,-0.98809814453125
0.228424072265625,0.0494842529296875,-0.9958343505859376
0.2140960693359375,0.0386810302734375,-0.9902191162109376
0.198455810546875,0.0218963623046875,-1.0079498291015625
0.1772003173828125,-0.00482177734375,-1.013153076171875
