AccelerationX,AccelerationY,AccelerationZ
0.2774658203125,-0.499725341796875,-0.843353271484375
0.32257080078125,-0.3719024658203125,-0.9141998291015624
0.31707763671875,-0.3790435791015625,-0.996307373046875
0.276092529296875,-0.296600341796875,-0.8651123046875
0.3412322998046875,-0.3419036865234375,-0.9347076416015624
0.3292388916015625,-0.3585968017578125,-0.9507904052734376
0.2881317138671875,-0.3484954833984375,-0.8804931640625
0.176727294921875,-0.3818817138671875,-0.9537811279296876
0.221649169921875,-0.48480224609375,-0.9178924560546876
0.2086944580078125,-0.4132080078125,-0.863739013671875
0.1183319091796875,-0.4004058837890625,-1.0225067138671875
-0.006134033203125,-0.3520660400390625,-0.908660888671875
0.0543060302734375,-0.3344879150390625,-0.9598541259765624
0.0624237060546875,-0.277557373046875,-0.807891845703125
0.1356658935546875,-0.1852569580078125,-0.7068328857421875
0.024200439453125,-0.0355377197265625,-0.5586090087890625
-0.1126708984375,0.0573577880859375,-0.4326324462890625
-0.24505615234375,-0.1705474853515625,-0.292388916015625
-0.678985595703125,-0.11846923828125,-0.3528594970703125
-1.1514892578125,-0.2032012939453125,-0.732879638671875
-1.58160400390625,-0.297149658203125,-0.8552093505859375
-1.8157806396484373,-0.4173736572265625,-0.992156982421875
-1.7667694091796875,-0.32855224609375,-1.2718505859375
-1.347503662109375,-0.231414794921875,-1.0245361328125
-0.9423370361328124,-0.4246368408203125,-0.9184722900390624
-0.7826080322265625,-0.4931640625,-0.855560302734375
-0.241790771484375,-0.8079681396484375,-0.7319488525390625
-0.2040557861328125,-0.791748046875,-0.638031005859375
-0.0376129150390625,-0.753662109375,-0.44268798828125
0.0088958740234375,-0.6470184326171875,-0.4003753662109375
-0.5012359619140625,-0.573333740234375,-0.42462158203125
-1.266632080078125,-0.9494171142578124,-1.0662841796875
-2.8560791015625,-1.1147918701171875,-1.6127777099609375
-2.9327545166015625,-0.425537109375,-1.848876953125
-1.349212646484375,-0.14166259765625,-0.6765289306640625
-0.4808349609375,0.3028411865234375,-0.294891357421875
0.0378570556640625,0.677581787109375,0.054168701171875
0.0214385986328125,0.732879638671875,0.435150146484375
0.4210052490234375,0.5664520263671875,0.22314453125
0.262298583984375,0.412689208984375,0.09210205078125
-0.0775604248046875,0.29229736328125,0.2825164794921875
-0.65179443359375,-0.0371551513671875,0.4607391357421875
-2.2611083984375,-0.4632110595703125,0.4804840087890625
-3.795166015625,-1.01055908203125,0.1099700927734375
-2.743927001953125,-0.9561920166015624,-0.2754364013671875
-1.5823822021484375,-1.057220458984375,-0.2224273681640625
-0.32525634765625,-1.1649932861328125,-0.2742767333984375
-0.175384521484375,-1.0032501220703125,-0.05670166015625
-0.3530731201171875,-0.6943206787109375,0.0777587890625
0.0546112060546875,-0.61077880859375,-0.05517578125
0.0179901123046875,-0.5022735595703125,-0.227630615234375
-0.21002197265625,-0.4694366455078125,-0.000732421875
-0.6285858154296875,-0.7388763427734375,-0.2191314697265625
-1.2024383544921875,-2.033676147460937,-1.4273681640625
-3.6962738037109375,-1.7086181640625,-2.818450927734375
-2.38421630859375,-0.465240478515625,-1.1920623779296875
-0.77374267578125,-0.0018310546875,-0.2628021240234375
-0.3032989501953125,0.5261688232421875,-0.3113555908203125
-0.093597412109375,0.374298095703125,-0.0242767333984375
-0.332366943359375,0.6577301025390625,0.017486572265625
0.0164337158203125,0.5182342529296875,0.083221435546875
0.095703125,0.2607269287109375,0.2620391845703125
-0.3879547119140625,0.08349609375,0.5522918701171875
-1.2691192626953125,-0.2579193115234375,0.5304718017578125
-2.942962646484375,-1.023712158203125,-0.0874176025390625
-3.2609100341796875,-0.954681396484375,-0.406829833984375
-1.417205810546875,-1.22955322265625,0.0276947021484375
-0.8534698486328125,-0.867034912109375,-0.153106689453125
-0.0795135498046875,-0.8661041259765625,-0.1830596923828125
0.0258941650390625,-0.9291839599609376,-0.0587310791015625
-0.1414337158203125,-0.740325927734375,-0.1671295166015625
0.113067626953125,-0.5018463134765625,-0.1150054931640625
-0.0081939697265625,-0.419158935546875,-0.1600341796875
-0.5443267822265625,-0.926849365234375,-0.2378997802734375
-1.849395751953125,-1.5806427001953125,-0.7813262939453125
-2.997344970703125,-2.0865631103515625,-1.25189208984375
-2.4450836181640625,-1.0399932861328125,-0.5822601318359375
-0.712615966796875,-0.3334197998046875,-0.1160430908203125
-0.2243194580078125,0.2046051025390625,-0.026336669921875
-0.0691070556640625,0.631805419921875,0.091796875
0.007598876953125,0.5799713134765625,0.028472900390625
0.0378265380859375,0.4269866943359375,0.1461944580078125
0.0400543212890625,0.2152252197265625,0.138671875
-0.135711669921875,-0.006591796875,0.3631134033203125
-0.8349609375,-0.0215301513671875,0.475067138671875
-2.001083374023437,-0.0704803466796875,0.3417816162109375
-2.945556640625,-0.7771759033203125,0.1228485107421875
-3.17950439453125,-1.076080322265625,0.6178436279296875
-2.014129638671875,-0.8209991455078125,0.0876617431640625
-0.5715179443359375,-0.646240234375,-0.2968292236328125
-0.095947265625,-0.708465576171875,-0.1251373291015625
-0.2315216064453125,-0.5917510986328125,-0.060546875
0.141265869140625,-0.4397125244140625,0.031524658203125
0.1099395751953125,-0.287628173828125,0.05621337890625
-0.384185791015625,-0.332244873046875,0.0683746337890625
-1.1165008544921875,-0.742218017578125,0.2379913330078125
-3.068756103515625,-1.337982177734375,-0.051727294921875
-3.606857299804688,-1.069488525390625,0.16748046875
-1.6107330322265625,-0.49298095703125,0.06817626953125
-0.4779510498046875,-0.178314208984375,0.04547119140625
-0.1312713623046875,0.1497650146484375,0.1306610107421875
0.0892791748046875,0.477020263671875,0.2847442626953125
0.091033935546875,0.521270751953125,0.139251708984375
-0.0306396484375,0.5086822509765625,0.097686767578125
-0.5159149169921875,0.6070098876953125,0.192779541015625
-1.4176788330078125,0.3255462646484375,0.2120208740234375
-2.3876495361328125,-0.5826263427734375,-0.141693115234375
-2.9730987548828125,-1.291259765625,-0.229217529296875
-2.742431640625,-1.4810638427734375,0.2201080322265625
-1.303314208984375,-1.51727294921875,0.02734375
-0.1025848388671875,-1.248565673828125,-0.1813201904296875
0.0763092041015625,-0.96160888671875,-0.3618621826171875
-0.3389434814453125,-0.441619873046875,0.05517578125
-0.129974365234375,-0.2764892578125,0.3783416748046875
-0.0233612060546875,-0.3581695556640625,0.116424560546875
-0.4365234375,-0.3167877197265625,0.0904083251953125
-0.91546630859375,-0.7041168212890625,0.2113494873046875
-1.7545013427734375,-1.52716064453125,-0.128570556640625
-3.2615966796875,-1.972564697265625,-0.7354583740234375
-2.539215087890625,-0.9395904541015624,0.0402679443359375
-0.5909271240234375,-0.5193328857421875,-0.250335693359375
-0.009613037109375,0.108612060546875,-0.2934112548828125
0.313079833984375,0.3081512451171875,0.0028533935546875
0.0977935791015625,0.423431396484375,0.0351715087890625
-0.0452117919921875,0.47052001953125,0.0084381103515625
0.0887298583984375,0.2944488525390625,0.177581787109375
-0.261749267578125,0.209381103515625,0.222137451171875
-1.017425537109375,0.2275543212890625,0.30035400390625
-3.17706298828125,-1.1309967041015625,-0.2862548828125
-3.63604736328125,-0.4505767822265625,0.2691650390625
-1.372650146484375,-1.0547027587890625,0.0963287353515625
-1.08599853515625,-0.719207763671875,-0.164459228515625
-0.4100341796875,-0.7761077880859375,-0.07086181640625
-0.1179046630859375,-0.837249755859375,-0.2028656005859375
-0.120269775390625,-0.6788177490234375,-0.2698822021484375
0.24041748046875,-0.4923248291015625,-0.3826751708984375
0.2811279296875,-0.4246978759765625,-0.3108062744140625
-0.22607421875,-0.7213287353515625,0.1109466552734375
-1.4781036376953125,-1.959747314453125,0.0914306640625
-2.659088134765625,-1.6875457763671875,-1.329864501953125
-2.9376983642578125,-1.3805694580078125,-1.151031494140625
-1.478424072265625,-0.486175537109375,0.062255859375
-0.513580322265625,0.0766754150390625,-0.457122802734375
-0.0083160400390625,0.5252685546875,-0.245086669921875
0.00390625,0.5927276611328125,-0.0224456787109375
-0.075592041015625,0.70538330078125,-0.0557098388671875
0.1853790283203125,0.5167694091796875,0.0542144775390625
0.0726318359375,0.422515869140625,0.2598876953125
-0.3729705810546875,0.06085205078125,0.382781982421875
-1.9854736328125,-0.62689208984375,0.52166748046875
-3.4442291259765625,-1.07696533203125,0.9648284912109376
-2.7972869873046875,-1.1710052490234375,0.2399444580078125
-1.41339111328125,-0.86163330078125,0.0937957763671875
-0.8556671142578125,-0.8325653076171875,0.031585693359375
-0.8485870361328125,-0.6944122314453125,0.0404052734375
-0.4646759033203125,-0.703399658203125,0.1801300048828125
-0.2817840576171875,-0.6844482421875,0.135009765625
-0.10772705078125,-0.478240966796875,0.050201416015625
0.020904541015625,-0.330047607421875,0.020965576171875
-0.4201812744140625,-0.4994049072265625,0.0198822021484375
-1.2373046875,-1.0925140380859375,-0.2957000732421875
-2.60107421875,-1.9810333251953125,-0.3359832763671875
-3.323226928710937,-1.7536773681640625,-0.3413543701171875
-1.47125244140625,-0.9484405517578124,-0.2521514892578125
-0.466766357421875,-0.0738677978515625,-0.2677764892578125
0.1898651123046875,0.4382476806640625,0.03173828125
0.1496734619140625,0.62628173828125,0.07281494140625
-0.0261383056640625,0.7086029052734375,0.062896728515625
0.1619720458984375,0.4608001708984375,0.1049957275390625
-0.1828155517578125,0.1382293701171875,0.20953369140625
-0.9702606201171876,0.0509033203125,-0.03253173828125
-2.1345672607421875,-0.36859130859375,-0.2099456787109375
-3.112457275390625,-0.4372711181640625,-0.394134521484375
-1.922119140625,-0.41680908203125,-0.2951507568359375
-1.162139892578125,-0.5514678955078125,-0.216522216796875
-1.0225677490234375,-0.499359130859375,0.070831298828125
-0.6530914306640625,-0.669891357421875,0.0765533447265625
-0.2495269775390625,-0.9273223876953124,-0.162689208984375
-0.2089080810546875,-0.8079833984375,-0.1176300048828125
-0.1750030517578125,-0.68682861328125,-0.2619781494140625
-0.581329345703125,-0.620880126953125,-0.0071563720703125
-1.341766357421875,-0.6305694580078125,0.2590484619140625
-2.0285186767578125,-0.8909454345703125,0.5494232177734375
-2.6879119873046875,-0.7887115478515625,0.3933258056640625
-1.87030029296875,-0.461517333984375,0.5619049072265625
-0.761932373046875,-0.0128021240234375,0.0245513916015625
-0.1689605712890625,0.2540740966796875,-0.313446044921875
-0.0011749267578125,0.4378814697265625,0.435791015625
0.1330718994140625,0.8415679931640625,0.624542236328125
-0.024078369140625,0.1730804443359375,0.245361328125
-1.0421600341796875,-0.121978759765625,0.5812225341796875
-2.0577545166015625,-0.8697052001953125,0.54547119140625
-3.10101318359375,-0.891815185546875,0.4552154541015625
-1.511444091796875,-1.1623077392578125,0.30548095703125
-1.031097412109375,-0.9860076904296876,0.1134490966796875
-0.725860595703125,-0.740447998046875,0.14752197265625
-0.3083953857421875,-0.5242767333984375,0.206939697265625
-0.3195343017578125,-0.4106292724609375,0.0198822021484375
-0.0411224365234375,-0.335052490234375,0.04766845703125
0.2123260498046875,-0.404815673828125,-0.1075286865234375
0.026092529296875,-0.34124755859375,-0.0856475830078125
-0.185394287109375,-0.650604248046875,-0.0482330322265625
-1.4827728271484375,-1.649749755859375,-0.263092041015625
-3.9132232666015625,-2.3425750732421875,-0.5172882080078125
-2.8953857421875,-1.48095703125,-0.1668701171875
-1.20440673828125,-0.61968994140625,-0.5556182861328125
-0.8602752685546875,0.0793304443359375,-0.641021728515625
-0.4195404052734375,0.559112548828125,-0.0518646240234375
-0.06329345703125,0.63067626953125,0.145721435546875
-0.0103607177734375,0.651031494140625,0.100006103515625
0.0615997314453125,0.5257415771484375,0.09014892578125
-0.2308349609375,0.25408935546875,-0.0261993408203125
-0.7977447509765625,0.0072479248046875,0.074432373046875
-1.31549072265625,-0.2515869140625,0.1068115234375
-1.5692901611328125,-0.9849853515625,-0.0873870849609375
-2.71673583984375,-0.847564697265625,0.07366943359375
-1.6541748046875,-0.934295654296875,-0.307220458984375
-1.382049560546875,-0.789794921875,0.04937744140625
-1.2694854736328125,-0.6837005615234375,0.330413818359375
-0.93817138671875,-0.46795654296875,0.002166748046875
-0.4726104736328125,-0.4842376708984375,-0.107330322265625
-0.205352783203125,-0.6212005615234375,-0.05584716796875
-0.07470703125,-0.5343780517578125,-0.125579833984375
-0.03753662109375,-0.5860595703125,-0.30865478515625
-0.266845703125,-0.6278533935546875,-0.1024932861328125
-0.8018951416015625,-0.7368316650390625,-0.15887451171875
-1.7414703369140625,-1.2622222900390625,-0.142333984375
-3.1826324462890625,-1.646636962890625,-0.5179595947265625
-3.47283935546875,-1.103912353515625,-0.548065185546875
-2.2628173828125,-0.481689453125,-0.146392822265625
-0.902374267578125,-0.0019989013671875,0.0757904052734375
-0.0905914306640625,0.2428741455078125,0.1939849853515625
0.082855224609375,0.417236328125,0.2205047607421875
-0.0352630615234375,0.510986328125,0.186126708984375
0.138427734375,0.4488067626953125,0.09942626953125
0.22711181640625,0.306121826171875,0.09906005859375
-0.04864501953125,0.210968017578125,0.1840057373046875
-0.5394439697265625,0.175506591796875,0.268280029296875
-2.038558959960937,-0.37890625,-0.278961181640625
-3.3785400390625,-0.946258544921875,-0.5802154541015625
-2.249359130859375,-1.2092437744140625,-0.429046630859375
-1.617431640625,-1.004730224609375,-0.2186431884765625
-0.944793701171875,-0.8888092041015625,-0.250518798828125
-0.399566650390625,-0.6709442138671875,-0.2417755126953125
-0.172149658203125,-0.5208892822265625,-0.284881591796875
-0.201080322265625,-0.63824462890625,-0.28363037109375
-0.136810302734375,-0.641448974609375,-0.216796875
-0.1356048583984375,-0.5997467041015625,-0.04937744140625
-0.50177001953125,-0.627899169921875,-0.0097808837890625
-1.059600830078125,-0.7252044677734375,0.0337066650390625
-1.9615936279296875,-1.1075897216796875,-0.106658935546875
-3.0610809326171875,-1.2339630126953125,-0.23297119140625
-2.6985626220703125,-1.1659393310546875,-0.048065185546875
-1.9387969970703125,-0.466461181640625,-0.11907958984375
-0.8894195556640625,-0.1129302978515625,-0.067108154296875
-0.420318603515625,0.0725250244140625,-0.0833892822265625
-0.204681396484375,0.3931427001953125,-0.002105712890625
-0.032745361328125,0.4037017822265625,0.01812744140625
-0.1893463134765625,0.408477783203125,-0.0496826171875
-0.139007568359375,0.4191436767578125,-0.15283203125
-0.1523590087890625,0.3559112548828125,-0.1845855712890625
-0.4699249267578125,0.2519378662109375,-0.1376495361328125
-1.128936767578125,-0.0860595703125,-0.0352325439453125
-2.479705810546875,-0.84649658203125,-0.1430816650390625
-3.9753570556640634,-1.217926025390625,-0.0503387451171875
-2.047332763671875,-1.2529144287109375,-0.221527099609375
-1.0935211181640625,-1.0247650146484375,-0.360321044921875
-0.8474273681640625,-1.063751220703125,-0.4952545166015625
-0.536712646484375,-0.997894287109375,-0.5010986328125
-0.2670440673828125,-0.91229248046875,-0.38714599609375
-0.280120849609375,-0.730743408203125,-0.1542816162109375
-0.3954315185546875,-0.6097412109375,-0.035980224609375
-0.2332305908203125,-0.493804931640625,0.029083251953125
-0.51513671875,-0.5877685546875,-0.1123504638671875
-1.0345458984375,-0.625701904296875,-0.12286376953125
-1.5121002197265625,-1.1698760986328125,-0.591400146484375
-2.3072509765625,-1.26361083984375,-0.3835906982421875
-1.9221954345703125,-1.1672821044921875,-0.2853240966796875
-1.342803955078125,-0.759185791015625,-0.2470550537109375
-0.88311767578125,-0.34033203125,-0.195343017578125
-0.594482421875,-0.020782470703125,-0.1522216796875
-0.279998779296875,0.1734466552734375,-0.078521728515625
-0.1929779052734375,0.2119140625,-0.0889434814453125
-0.2396087646484375,0.1884307861328125,0.0062103271484375
-0.1905517578125,0.1702880859375,0.1829681396484375
-0.1583709716796875,0.15118408203125,0.218505859375
-0.342987060546875,0.1964874267578125,0.3998870849609375
-1.42486572265625,-0.1110687255859375,-0.1905670166015625
-3.43218994140625,-0.582244873046875,0.0086212158203125
-2.5826416015625,-0.9156494140625,-0.0471954345703125
-1.5627288818359375,-1.1586151123046875,-0.1293792724609375
-1.1956024169921875,-1.1273345947265625,-0.35479736328125
-0.4813385009765625,-0.9456329345703124,-0.4244537353515625
-0.1514129638671875,-0.72137451171875,-0.353607177734375
-0.0619049072265625,-0.5377044677734375,-0.18304443359375
0.03765869140625,-0.3959503173828125,-0.1155548095703125
0.0805816650390625,-0.2579803466796875,-0.0862884521484375
-0.089141845703125,-0.297882080078125,-0.2377166748046875
-0.5953216552734375,-0.438720703125,-0.2068328857421875
-1.510040283203125,-1.1228485107421875,-0.59246826171875
-3.773895263671875,-0.9578704833984376,-0.90234375
-3.289901733398437,-0.8062591552734375,-0.910247802734375
-2.02947998046875,-0.396148681640625,-0.3213653564453125
-1.0577545166015625,-0.151123046875,-0.08660888671875
-0.480621337890625,-0.03155517578125,-0.0679779052734375
-0.109527587890625,0.064208984375,0.0892486572265625
0.075103759765625,0.1573944091796875,0.0333709716796875
-0.096893310546875,0.247711181640625,0.059783935546875
-0.0656890869140625,0.24658203125,0.0002593994140625
0.052001953125,0.1985626220703125,0.0333099365234375
-0.0341339111328125,0.1923828125,0.153106689453125
-0.3655853271484375,0.2039947509765625,0.156829833984375
-1.6468353271484375,0.2274169921875,0.2693634033203125
-3.200790405273437,-0.3679962158203125,0.2579498291015625
-3.083969116210937,-0.6187286376953125,0.49749755859375
-1.87347412109375,-0.632232666015625,-0.19561767578125
-1.2966461181640625,-0.748870849609375,-0.2372589111328125
-0.8489532470703125,-0.6800079345703125,-0.245269775390625
-0.2132110595703125,-0.6800994873046875,-0.52423095703125
-0.129852294921875,-0.7704925537109375,0.0422515869140625
-0.1489410400390625,-0.5702056884765625,0.139617919921875
-0.1204681396484375,-0.5364532470703125,0.0002288818359375
-0.5010223388671875,-0.6681671142578125,0.24212646484375
-0.903106689453125,-0.9555511474609376,-0.0203857421875
-1.8740692138671875,-1.08056640625,-0.0192413330078125
-2.565460205078125,-1.2987518310546875,-0.28729248046875
-3.0838775634765625,-1.14288330078125,-0.481353759765625
-1.96337890625,-0.585235595703125,-0.1639404296875
-0.9991302490234376,-0.3935546875,-0.0858154296875
-0.5107421875,-0.0167999267578125,-0.3533477783203125
-0.2428741455078125,0.2461700439453125,-0.0657501220703125
-0.124176025390625,0.4728240966796875,0.07745361328125
-0.11627197265625,0.5419921875,-0.0876007080078125
0.013580322265625,0.4407196044921875,0.3112030029296875
-0.0505218505859375,0.192901611328125,0.329803466796875
-0.335693359375,0.0647735595703125,-0.0018768310546875
-1.3656768798828125,-0.176025390625,-0.5302734375
-1.810943603515625,-0.207489013671875,-1.62841796875
-1.9245452880859373,-0.43359375,-1.656951904296875
-1.57293701171875,-0.6804351806640625,-0.7802581787109375
-1.1272430419921875,-0.72601318359375,-0.8820953369140625
-0.9599761962890624,-0.575927734375,-0.9443817138671876
-0.3396148681640625,-0.61181640625,-0.6893310546875
-0.031707763671875,-0.65289306640625,-0.4770965576171875
-0.095733642578125,-0.6035308837890625,-0.477752685546875
-0.120513916015625,-0.510162353515625,-0.576934814453125
-0.2787628173828125,-0.456268310546875,-0.7684173583984375
-0.3752288818359375,-0.50225830078125,-1.226959228515625
-0.6662750244140625,-0.517303466796875,-1.436187744140625
-0.843719482421875,-0.6457672119140625,-1.9345550537109373
-1.65692138671875,-0.360198974609375,-1.931976318359375
-0.9482574462890624,-0.326812744140625,-1.157073974609375
-0.6607513427734375,-0.0710296630859375,-0.875640869140625
-0.5927734375,0.253021240234375,-0.3436431884765625
-0.2291412353515625,0.2419586181640625,-0.246826171875
-0.0065765380859375,0.1441192626953125,-0.0206146240234375
0.0337982177734375,0.1276397705078125,0.0125885009765625
-0.02001953125,0.154022216796875,0.0244140625
-0.2159576416015625,0.155670166015625,0.008758544921875
-0.9593505859375,0.213165283203125,-0.0161895751953125
-1.905120849609375,-0.0037841796875,-0.0958099365234375
-2.99493408203125,-0.3950347900390625,-0.2008209228515625
-2.5430450439453125,-0.7750396728515625,-0.1532440185546875
-1.64520263671875,-0.831146240234375,-0.2059783935546875
-0.971923828125,-0.9083404541015624,-0.2338104248046875
-0.577667236328125,-0.869537353515625,-0.3527679443359375
-0.33990478515625,-0.8313140869140625,-0.341400146484375
-0.20196533203125,-0.723388671875,-0.213653564453125
-0.1148223876953125,-0.60980224609375,-0.0291595458984375
0.206756591796875,-0.5487213134765625,0.0412139892578125
-0.0931854248046875,-0.565185546875,-0.1424102783203125
-1.1821441650390625,-0.82452392578125,-0.24932861328125
-2.628265380859375,-1.371490478515625,-0.14019775390625
-3.184432983398437,-1.0444183349609375,0.048492431640625
-2.4845123291015625,-0.5291900634765625,0.212738037109375
-1.348724365234375,-0.1285552978515625,0.2295379638671875
-0.6334381103515625,0.1500244140625,-0.0108642578125
-0.38201904296875,0.1341552734375,-0.1248931884765625
-0.2913055419921875,0.2790985107421875,-0.073486328125
-0.040863037109375,0.188018798828125,-0.08514404296875
0.078338623046875,0.2045135498046875,0.02960205078125
0.129119873046875,0.31597900390625,0.1046295166015625
0.133697509765625,0.212799072265625,0.180084228515625
-0.958465576171875,-0.0481109619140625,0.1580963134765625
-2.745391845703125,-0.558746337890625,0.2432861328125
-2.598785400390625,-0.750518798828125,0.3107147216796875
-2.274505615234375,-0.7139892578125,0.4214935302734375
-1.5323333740234375,-0.434967041015625,0.0486602783203125
-0.881011962890625,-0.5931549072265625,-0.1118927001953125
-0.6800994873046875,-0.620330810546875,-0.0249481201171875
-0.51513671875,-0.646514892578125,-0.0111846923828125
-0.352783203125,-0.6136016845703125,0.1017608642578125
-0.126953125,-0.6087646484375,0.00555419921875
-0.2642822265625,-0.575592041015625,-0.148681640625
-0.6102142333984375,-0.719268798828125,0.0937957763671875
-1.3064422607421875,-1.072265625,-0.044769287109375
-2.1519775390625,-1.021697998046875,0.188629150390625
-1.8132781982421875,-1.317474365234375,4.57763671875e-05
-2.416610717773437,-1.075286865234375,-0.0751800537109375
-1.7223663330078125,-0.5804595947265625,0.023468017578125
-0.964385986328125,-0.2352752685546875,0.0742034912109375
-0.5516815185546875,0.0430145263671875,0.10382080078125
-0.2923126220703125,0.265289306640625,0.0424957275390625
-0.1541900634765625,0.42132568359375,-0.0662841796875
-0.012359619140625,0.6451873779296875,0.0323944091796875
0.2021331787109375,0.3368988037109375,0.1391448974609375
-0.2051239013671875,0.2318115234375,0.1825408935546875
-1.4350128173828125,-0.2152099609375,-0.0210418701171875
-2.552734375,-0.5728759765625,0.0316009521484375
-2.3520965576171875,-1.20867919921875,-0.214935302734375
-2.2877960205078125,-1.281707763671875,0.2135772705078125
-1.1460418701171875,-1.0018310546875,0.07940673828125
-0.5279083251953125,-0.7354736328125,-0.1875457763671875
-0.2197113037109375,-0.5700225830078125,-0.27923583984375
-0.0380706787109375,-0.458526611328125,-0.1508941650390625
0.103790283203125,-0.392242431640625,0.041534423828125
0.1055755615234375,-0.498260498046875,0.0905609130859375
-0.07666015625,-0.725067138671875,0.0172576904296875
-1.0878753662109375,-1.019378662109375,0.2659149169921875
-2.770004272460937,-1.494384765625,0.513275146484375
-2.646026611328125,-1.1600189208984375,0.7056427001953125
-1.9454498291015625,-0.72515869140625,0.4041290283203125
-1.1568145751953125,-0.4144439697265625,0.3454132080078125
-0.6340484619140625,-0.256805419921875,0.052734375
-0.4123077392578125,-0.0846099853515625,-0.0596466064453125
-0.1605072021484375,0.2625885009765625,-0.0908050537109375
0.108734130859375,0.644439697265625,-0.081146240234375
0.8092193603515625,0.5245513916015625,0.0163726806640625
0.0566864013671875,0.3238983154296875,0.032379150390625
-1.077972412109375,-0.001312255859375,0.135498046875
-2.775482177734375,-0.8660430908203125,0.275299072265625
-2.740951538085937,-1.2019195556640625,0.3928985595703125
-1.901397705078125,-1.146514892578125,0.473785400390625
-1.11053466796875,-1.03485107421875,0.334259033203125
-0.616455078125,-0.9755401611328124,0.1658782958984375
-0.3287811279296875,-0.8706207275390625,0.0657501220703125
-0.014862060546875,-0.713775634765625,0.0040283203125
0.11126708984375,-0.655059814453125,-0.034515380859375
0.05548095703125,-0.5476226806640625,-0.032440185546875
-0.1514892578125,-0.6657867431640625,-0.247161865234375
-0.825103759765625,-0.9977264404296876,-0.6126556396484375
-2.309356689453125,-1.5768585205078125,-0.88641357421875
-2.6784820556640625,-1.818145751953125,-0.3442230224609375
-1.7014312744140625,-1.3592529296875,-0.1577911376953125
-1.4337615966796875,-0.929656982421875,-0.376922607421875
-0.82623291015625,-0.4664764404296875,-0.3257904052734375
-0.4504241943359375,-0.0133209228515625,-0.241302490234375
-0.2576904296875,0.3734893798828125,-0.1466522216796875
-0.0638275146484375,0.5277557373046875,-0.1006622314453125
0.0133514404296875,0.460845947265625,-0.1150665283203125
-0.1463470458984375,0.3617095947265625,-0.08966064453125
-0.3239593505859375,0.0550994873046875,-0.032318115234375
-0.870391845703125,-0.480682373046875,0.1127471923828125
-2.092559814453125,-0.923492431640625,0.0377044677734375
-1.74896240234375,-1.1078948974609375,0.0941925048828125
-2.0175018310546875,-1.4300689697265625,0.3671417236328125
-1.6578521728515625,-1.3236236572265625,0.4804229736328125
-1.2381744384765625,-1.1808624267578125,0.1059722900390625
-0.366424560546875,-0.934112548828125,-0.1004486083984375
-0.0933990478515625,-0.704681396484375,-0.0913543701171875
0.1187591552734375,-0.5551910400390625,-0.143310546875
0.1886444091796875,-0.50750732421875,-0.240509033203125
-0.2032012939453125,-0.6176910400390625,-0.07476806640625
-0.4753875732421875,-0.9635162353515624,-0.0779876708984375
-1.2856903076171875,-1.3501739501953125,-0.3285675048828125
-2.6404266357421875,-1.624267578125,-0.6253662109375
-2.8035125732421875,-1.4753570556640625,-0.231597900390625
-2.1251220703125,-0.78094482421875,-0.136688232421875
-1.313232421875,-0.3622283935546875,-0.0637359619140625
-0.8813934326171875,-0.028839111328125,-0.01190185546875
-0.4634552001953125,0.2754669189453125,-0.071258544921875
-0.029449462890625,0.3296051025390625,0.0540313720703125
0.03375244140625,0.34698486328125,0.0469207763671875
-0.0651702880859375,0.3233642578125,-0.05401611328125
-0.1558837890625,0.2343292236328125,-0.061676025390625
-0.415435791015625,0.1039276123046875,0.11065673828125
-1.2799530029296875,-0.5590057373046875,0.1063995361328125
-2.3799591064453125,-0.690765380859375,0.141693115234375
-1.955810546875,-1.0113677978515625,0.077972412109375
-1.533477783203125,-1.06707763671875,0.4422760009765625
-1.2948455810546875,-1.0419464111328125,0.160247802734375
-0.9597930908203124,-0.8593597412109375,-0.0923004150390625
-0.51324462890625,-0.7901611328125,-0.1688385009765625
-0.2725830078125,-0.706024169921875,-0.12103271484375
-0.1811065673828125,-0.5943450927734375,-0.085601806640625
-0.234771728515625,-0.5946807861328125,-0.1785430908203125
-0.3877410888671875,-0.6574859619140625,-0.1173553466796875
-1.1870269775390625,-1.053070068359375,-0.1707305908203125
-2.3157958984375,-1.0438690185546875,-0.0540008544921875
-2.4299468994140625,-1.1195220947265625,0.0263214111328125
-2.2759552001953125,-0.79315185546875,0.142578125
-1.557647705078125,-0.42596435546875,0.14984130859375
-0.8648834228515625,-0.1837615966796875,0.099578857421875
-0.5206298828125,0.0567169189453125,0.13031005859375
-0.200103759765625,0.12225341796875,0.040802001953125
-0.103118896484375,0.223602294921875,-0.103790283203125
-0.0626068115234375,0.3208465576171875,-0.043182373046875
0.0517578125,0.2230987548828125,-0.001617431640625
-0.1355743408203125,0.139678955078125,0.0585174560546875
-1.046142578125,-0.027374267578125,0.0918426513671875
-2.1270904541015625,-0.4227447509765625,-0.1190032958984375
-2.722381591796875,-0.778228759765625,-0.1432037353515625
-1.9772491455078125,-1.2589874267578125,-0.063873291015625
-1.5697021484375,-1.438720703125,0.1484222412109375
-0.8010711669921875,-1.2777557373046875,-0.006256103515625
-0.0688934326171875,-1.071441650390625,-0.2156982421875
0.0959625244140625,-0.790618896484375,-0.2208709716796875
0.144683837890625,-0.5128631591796875,-0.18670654296875
0.2172698974609375,-0.4146270751953125,-0.1506195068359375
-0.0203857421875,-0.47955322265625,-0.024566650390625
-0.8505096435546875,-0.8385009765625,0.2721099853515625
-2.0784149169921875,-1.62652587890625,-0.374176025390625
-3.385101318359375,-1.8968963623046875,-0.4942169189453125
-2.7340545654296875,-1.2610015869140625,-0.48052978515625
-1.551513671875,-0.7098541259765625,-0.5421142578125
-1.176666259765625,-0.3771209716796875,-0.189300537109375
-0.8518218994140625,-0.13836669921875,0.0585784912109375
-0.5203399658203125,0.126220703125,-0.0206756591796875
-0.2740325927734375,0.232757568359375,-0.155609130859375
-0.1428070068359375,0.3991241455078125,-0.016265869140625
0.150665283203125,0.3737030029296875,0.087738037109375
0.3123321533203125,0.244171142578125,0.0862274169921875
0.2067108154296875,0.1152496337890625,0.3092498779296875
-0.490325927734375,0.151580810546875,0.10809326171875
-1.25628662109375,-0.3215484619140625,0.18310546875
-2.18524169921875,-0.44854736328125,0.269744873046875
-2.606552124023437,-0.79998779296875,0.11212158203125
-2.1166229248046875,-1.014801025390625,0.0381927490234375
-1.976654052734375,-1.05645751953125,0.148529052734375
-1.2139892578125,-0.8789825439453125,-0.420379638671875
-0.466583251953125,-0.7846527099609375,-0.4193572998046875
-0.051025390625,-0.686187744140625,-0.20208740234375
-0.0524139404296875,-0.641326904296875,-0.28448486328125
-0.0912017822265625,-0.558563232421875,-0.3187103271484375
-0.1539764404296875,-0.57318115234375,-0.1964874267578125
-0.4273223876953125,-0.57183837890625,-0.209869384765625
-0.8332061767578125,-1.187713623046875,-0.212677001953125
-1.9940338134765625,-1.662017822265625,-0.1649169921875
-3.063507080078125,-1.8016510009765625,-0.0120849609375
-1.89215087890625,-1.0900115966796875,-0.396331787109375
-1.34893798828125,-0.73724365234375,-0.36572265625
-0.962921142578125,-0.2605438232421875,-0.138214111328125
-0.49908447265625,-0.04473876953125,0.030364990234375
-0.37078857421875,0.3623199462890625,-0.1416473388671875
0.0924072265625,0.5114898681640625,-0.0426025390625
0.1343231201171875,0.3816375732421875,0.04071044921875
-0.213470458984375,0.36676025390625,0.0093231201171875
-0.6782989501953125,0.27850341796875,-0.1389007568359375
-1.30938720703125,-0.0103912353515625,0.1626129150390625
-2.044921875,-0.4587860107421875,0.34918212890625
-2.547714233398437,-0.781005859375,0.638275146484375
-2.1835479736328125,-1.1028594970703125,0.3790740966796875
-1.7008819580078125,-1.0989532470703125,0.1392669677734375
-1.1446533203125,-1.1537933349609375,0.0718994140625
-0.4935302734375,-0.9832763671875,-0.2827301025390625
-0.047943115234375,-0.7530517578125,-0.4071044921875
0.2966461181640625,-0.6134796142578125,-0.30072021484375
0.3902587890625,-0.512664794921875,-0.2202301025390625
0.062896728515625,-0.5453948974609375,-0.4354705810546875
-0.9555206298828124,-1.1147613525390625,-0.689788818359375
-3.4102783203125,-1.628631591796875,-0.40277099609375
-3.8259124755859375,-1.35205078125,-0.5628662109375
-2.6765594482421875,-0.355255126953125,-0.1805572509765625
-1.38916015625,-0.1756591796875,0.0811309814453125
-0.7850799560546875,0.221923828125,-0.045013427734375
-0.3703460693359375,0.3619842529296875,-0.1226043701171875
-0.29815673828125,0.4669342041015625,-0.011962890625
0.0553436279296875,0.5019989013671875,-0.0473480224609375
0.2391204833984375,0.3993682861328125,0.053497314453125
-0.0259857177734375,0.3171844482421875,0.1204376220703125
-0.469207763671875,0.3321380615234375,0.1263427734375
-1.7679443359375,-0.05377197265625,0.290771484375
-2.865509033203125,-0.5360565185546875,0.479888916015625
-2.733139038085937,-0.967010498046875,0.2127685546875
-1.7666778564453125,-1.1436614990234375,0.176513671875
-1.017425537109375,-0.976409912109375,-0.0742950439453125
-0.4790802001953125,-0.8293914794921875,-0.2175750732421875
-0.4242095947265625,-0.6999664306640625,-0.1727142333984375
-0.2016754150390625,-0.6951141357421875,-0.19195556640625
-0.0499725341796875,-0.77215576171875,-0.2350921630859375
-0.129730224609375,-0.7283782958984375,-0.332794189453125
-0.682647705078125,-0.8331298828125,-0.4578857421875
-1.512451171875,-1.145050048828125,-0.57958984375
-2.779403686523437,-1.4552459716796875,-0.3145599365234375
-2.7303009033203125,-1.3962249755859375,-0.48681640625
-2.2810516357421875,-0.8842315673828125,-0.2267608642578125
-1.6305999755859375,-0.52520751953125,-0.2266693115234375
-1.108123779296875,-0.136688232421875,-0.2585296630859375
-0.6940460205078125,0.08697509765625,-0.25311279296875
-0.4474029541015625,0.2640838623046875,-0.08056640625
-0.159210205078125,0.3716278076171875,-0.038909912109375
-0.064422607421875,0.4293365478515625,0.0351715087890625
-0.0336761474609375,0.4898223876953125,0.12152099609375
-0.0628814697265625,0.212310791015625,0.04559326171875
-0.450347900390625,0.2008056640625,0.1027679443359375
-0.79437255859375,-0.134124755859375,0.0225067138671875
-1.509307861328125,-0.110015869140625,0.2232666015625
-2.0605010986328125,-0.5398406982421875,0.208648681640625
-2.52496337890625,-0.48516845703125,0.8778533935546875
-2.750640869140625,-0.803253173828125,0.2587432861328125
-2.36749267578125,-0.792022705078125,0.1593780517578125
-1.330718994140625,-0.8671112060546875,-0.1549224853515625
-1.1330413818359375,-1.00885009765625,-0.046173095703125
-0.61199951171875,-0.9392547607421876,-0.3115997314453125
-0.4554901123046875,-0.9855499267578124,-0.3293609619140625
-0.2174530029296875,-0.7633056640625,-0.3088836669921875
0.0198211669921875,-0.5936737060546875,-0.2771148681640625
-0.073516845703125,-0.5306549072265625,0.0835723876953125
-0.4854583740234375,-0.6708984375,-0.0533447265625
-1.524932861328125,-0.940826416015625,-0.38067626953125
-2.230819702148437,-1.3970947265625,-0.03369140625
-2.4925537109375,-1.41998291015625,-0.4735260009765625
-2.562408447265625,-1.206634521484375,-0.10382080078125
-1.9207611083984373,-0.8759613037109375,-0.0654449462890625
-1.5017242431640625,-0.4989166259765625,-0.0264892578125
-0.966064453125,-0.23138427734375,0.006591796875
-0.5586090087890625,-0.1689910888671875,-0.0023345947265625
-0.3619232177734375,0.0985565185546875,-0.0789337158203125
-0.1047821044921875,0.26953125,-0.1050567626953125
-0.0444488525390625,0.2023773193359375,-0.1601104736328125
-0.0164947509765625,0.2760467529296875,-0.0231781005859375
0.1235198974609375,0.271148681640625,0.03179931640625
-0.0388641357421875,0.1810760498046875,0.0281219482421875
-0.581390380859375,0.056915283203125,0.2220001220703125
-1.486480712890625,-0.417266845703125,0.10296630859375
-2.29669189453125,-0.56695556640625,0.346466064453125
-2.6780242919921875,-1.2371826171875,0.151092529296875
-2.581527709960937,-0.9908294677734376,0.453948974609375
-1.5206756591796875,-1.299346923828125,0.2971343994140625
-1.0329132080078125,-1.104583740234375,-0.062103271484375
-0.4410247802734375,-0.9637451171875,-0.1806488037109375
-0.0927734375,-0.80938720703125,0.0130615234375
-0.05731201171875,-0.5926971435546875,-0.0008544921875
-0.1111297607421875,-0.4475250244140625,-0.1331024169921875
-0.27447509765625,-0.4766693115234375,-0.24853515625
-0.787078857421875,-0.6540985107421875,-0.0478515625
-1.0439300537109375,-1.231536865234375,-0.4893646240234375
-2.104736328125,-1.5379180908203125,-0.3701171875
-3.2431793212890625,-1.3495635986328125,-0.5537261962890625
-2.151214599609375,-0.78680419921875,-0.342498779296875
-1.3052215576171875,-0.4020843505859375,-0.304718017578125
-1.051849365234375,-0.17681884765625,-0.2187652587890625
-0.7953948974609375,0.059051513671875,-0.1118011474609375
-0.408294677734375,0.0998687744140625,0.0498504638671875
-0.2574615478515625,0.209075927734375,-0.1082611083984375
-0.1528778076171875,0.2658233642578125,-0.058258056640625
-0.11962890625,-0.0284576416015625,-0.0426788330078125
-0.49151611328125,-0.016265869140625,0.09375
-0.6651763916015625,-0.074310302734375,0.0943603515625
-0.8969573974609375,-0.2681121826171875,0.027557373046875
-1.6815185546875,-0.4179229736328125,0.400970458984375
-1.3508453369140625,-0.5433807373046875,0.368438720703125
-1.227203369140625,-0.679229736328125,0.220916748046875
-1.32952880859375,-0.82342529296875,0.5950775146484375
-0.8090667724609375,-0.9495849609375,-0.076019287109375
-0.59417724609375,-1.0415496826171875,-0.1382293701171875
-0.49310302734375,-0.8782958984375,-0.36956787109375
-0.5886993408203125,-0.922607421875,-0.47076416015625
-1.186767578125,-1.042724609375,-0.44403076171875
-2.315155029296875,-1.733306884765625,-0.539337158203125
-3.102325439453125,-1.6841278076171875,-0.7041168212890625
-2.9364013671875,-1.2742462158203125,-0.2413482666015625
-1.9161529541015625,-0.5151519775390625,-0.176116943359375
-0.9263458251953124,-0.0037078857421875,-0.3177032470703125
-0.392486572265625,0.3581695556640625,-0.17779541015625
-0.2886810302734375,0.6302337646484375,0.0094451904296875
-0.0518646240234375,0.7650299072265625,0.0277252197265625
0.189849853515625,0.6897735595703125,-0.0180511474609375
0.2298126220703125,0.5579376220703125,0.065032958984375
0.1984100341796875,0.356109619140625,0.053558349609375
-0.2351226806640625,0.1998748779296875,0.01531982421875
-0.8064117431640625,-0.134124755859375,0.10736083984375
-1.7160797119140625,-0.5241851806640625,0.1930084228515625
-2.140167236328125,-0.92559814453125,0.6483154296875
-2.4793701171875,-0.99578857421875,0.418243408203125
-1.9270477294921875,-1.0603790283203125,0.03802490234375
-1.7028350830078125,-1.0238189697265625,-0.1204833984375
-1.2090301513671875,-1.088226318359375,-0.1887969970703125
-0.7367706298828125,-0.8505401611328125,-0.2611083984375
-0.16851806640625,-0.7608795166015625,-0.2683258056640625
0.005645751953125,-0.752593994140625,-0.2957611083984375
-0.0821380615234375,-0.6860198974609375,-0.0750885009765625
-0.06475830078125,-0.8190765380859375,0.06365966796875
-0.5937957763671875,-0.834503173828125,-0.1042022705078125
-1.2704010009765625,-1.338623046875,-0.403900146484375
-2.590805053710937,-1.835845947265625,0.1411590576171875
-3.219573974609375,-1.6557464599609375,0.2887115478515625
-1.8298797607421875,-0.8924102783203125,0.0088653564453125
-1.3533477783203125,-0.444122314453125,0.1057281494140625
-0.9223785400390624,-0.037384033203125,-0.0709228515625
-0.527862548828125,0.2379150390625,-0.0814971923828125
-0.2770538330078125,0.3972625732421875,-0.0688323974609375
-0.1582794189453125,0.4781494140625,-0.2436981201171875
-0.10791015625,0.521636962890625,-0.0627899169921875
-0.053314208984375,0.28765869140625,-0.0058135986328125
-0.3682861328125,0.119659423828125,0.0583953857421875
-0.7611083984375,-0.2752838134765625,0.155487060546875
-1.153076171875,-0.8991546630859375,0.2322235107421875
-2.1168975830078125,-0.9391021728515624,0.4094696044921875
-1.6366119384765625,-1.0395355224609375,0.523162841796875
-1.673675537109375,-0.970855712890625,0.586517333984375
-1.3927001953125,-1.1038055419921875,0.238250732421875
-1.07452392578125,-1.03533935546875,-0.13946533203125
-0.45684814453125,-0.91412353515625,-0.38836669921875
-0.1447906494140625,-0.6593017578125,-0.2156524658203125
0.0058441162109375,-0.5304107666015625,-0.1058349609375
-0.288421630859375,-0.645477294921875,-0.090087890625
-0.631866455078125,-1.10150146484375,-0.0838775634765625
-1.7016448974609375,-1.511749267578125,-0.16644287109375
-2.492889404296875,-1.6124725341796875,-0.01324462890625
-2.36187744140625,-1.56231689453125,-0.1000213623046875
-1.79840087890625,-0.97467041015625,-0.0235748291015625
-1.194427490234375,-0.35028076171875,-0.0959014892578125
-0.7462158203125,0.21173095703125,-0.189544677734375
-0.3543853759765625,0.378265380859375,-0.1932830810546875
-0.3200836181640625,0.58319091796875,-0.1502838134765625
-0.087890625,0.648406982421875,-0.1711578369140625
0.063446044921875,0.5536346435546875,-0.1257171630859375
-0.03741455078125,0.444061279296875,-0.05072021484375
-0.4736175537109375,0.0814208984375,0.177642822265625
-1.85321044921875,-0.5191802978515625,0.4267730712890625
-2.2295379638671875,-0.9436187744140624,0.406158447265625
-2.4276275634765625,-1.2952117919921875,0.847686767578125
-2.1168670654296875,-1.2393798828125,0.648040771484375
-1.233123779296875,-0.9887237548828124,0.3563690185546875
-0.67156982421875,-0.8667755126953125,0.367584228515625
-0.4257965087890625,-0.815521240234375,0.0991058349609375
-0.0891265869140625,-0.709625244140625,-0.1584014892578125
-0.0061492919921875,-0.6446990966796875,-0.16424560546875
-0.19171142578125,-0.64532470703125,-0.1565399169921875
-0.414520263671875,-0.7276763916015625,-0.1607208251953125
-1.30419921875,-1.2927398681640625,-0.08355712890625
-2.202987670898437,-1.5730438232421875,-0.082000732421875
-2.663803100585937,-1.5886383056640625,-0.07769775390625
-2.283432006835937,-0.990997314453125,0.013916015625
-1.7014617919921875,-0.5788726806640625,0.0442657470703125
-1.2659149169921875,-0.1940460205078125,0.092864990234375
-0.82965087890625,-0.00933837890625,0.07861328125
-0.4586639404296875,0.1207733154296875,0.008270263671875
-0.2253265380859375,0.1556243896484375,-0.1172332763671875
-0.1909027099609375,0.18023681640625,-0.1085205078125
-0.185333251953125,0.28350830078125,-0.078582763671875
-0.0744171142578125,0.3118743896484375,-0.0298309326171875
-0.2658538818359375,0.2565460205078125,0.0695037841796875
-0.5540008544921875,0.1233367919921875,0.2087249755859375
-1.0701904296875,-0.434600830078125,0.2389984130859375
-1.795013427734375,-0.6066436767578125,0.5813446044921875
-2.251129150390625,-1.20263671875,0.5577545166015625
-2.148300170898437,-1.106842041015625,0.745758056640625
-1.74554443359375,-1.143402099609375,0.2818450927734375
-1.2244720458984375,-0.893646240234375,-0.1265106201171875
-0.67138671875,-0.8840789794921875,0.0473480224609375
-0.5328521728515625,-0.9433135986328124,0.0483856201171875
-0.327362060546875,-0.70623779296875,-0.2122802734375
0.0084381103515625,-0.53729248046875,-0.242706298828125
0.0121917724609375,-0.5120391845703125,-0.11602783203125
-0.2210693359375,-0.617218017578125,-0.1268310546875
-0.6376953125,-0.8815155029296875,-0.2384796142578125
-1.4594573974609375,-1.261444091796875,-0.269989013671875
-1.98663330078125,-1.601531982421875,-0.1507720947265625
-1.9477081298828125,-1.1441192626953125,-0.201568603515625
-1.551910400390625,-0.9913787841796876,-0.1475830078125
-1.7615203857421875,-0.9751434326171876,0.0987548828125
-1.4175872802734375,-0.785675048828125,-0.0712738037109375
-1.3098907470703125,-0.6291961669921875,-0.0028228759765625
-0.9482421875,-0.476959228515625,0.043975830078125
-0.5937042236328125,-0.18194580078125,0.076171875
-0.3326568603515625,-0.071563720703125,0.12786865234375
-0.1377105712890625,0.0306854248046875,0.106048583984375
0.1017303466796875,0.184906005859375,-0.0211029052734375
0.2281646728515625,0.21197509765625,-0.0116119384765625
0.17657470703125,0.1125640869140625,0.0479583740234375
-0.2313385009765625,-0.1491851806640625,0.0462799072265625
-1.076690673828125,-0.233428955078125,0.3079376220703125
-1.4398040771484375,-0.78082275390625,0.30859375
-2.241073608398437,-0.8905029296875,0.691558837890625
-2.06927490234375,-0.7365264892578125,0.445098876953125
-1.80718994140625,-1.213226318359375,0.8094635009765625
-1.5228118896484375,-1.2074432373046875,0.8242340087890625
-0.8166961669921875,-1.0551605224609375,0.0474853515625
-0.4073333740234375,-0.853759765625,-0.192596435546875
-0.192535400390625,-0.838134765625,-0.1921234130859375
-0.2804718017578125,-0.897125244140625,-0.143157958984375
-0.4425506591796875,-0.9987030029296876,-0.1650543212890625
-0.6991729736328125,-0.97357177734375,-0.2880401611328125
-1.5204925537109375,-1.138885498046875,-0.215118408203125
-2.268539428710937,-1.011993408203125,-0.0621795654296875
-2.1952056884765625,-1.0653228759765625,0.099273681640625
-2.0989990234375,-0.9907684326171876,0.2191925048828125
-1.6680145263671875,-0.613372802734375,0.316314697265625
-0.94793701171875,-0.1261444091796875,0.0565643310546875
-0.533477783203125,0.17718505859375,-0.1133270263671875
-0.363677978515625,0.4359893798828125,-0.187164306640625
0.0253753662109375,0.5090179443359375,-0.213348388671875
-0.024200439453125,0.327850341796875,0.0320587158203125
-0.3210296630859375,0.2146759033203125,0.152618408203125
-0.31640625,0.0802459716796875,0.052154541015625
-0.98773193359375,-0.0602874755859375,0.2649078369140625
-1.530364990234375,-0.6233062744140625,0.5260162353515625
-1.7303466796875,-1.04217529296875,0.65155029296875
-1.8350982666015625,-1.09320068359375,0.892822265625
-1.482269287109375,-1.028717041015625,0.7940521240234375
-1.346893310546875,-0.91168212890625,0.4091796875
-0.943817138671875,-0.8715972900390625,0.2656402587890625
-0.7509765625,-0.925445556640625,0.2826385498046875
-0.5467987060546875,-0.92242431640625,0.150421142578125
-0.37432861328125,-0.8332366943359375,0.03167724609375
-0.23858642578125,-0.7468719482421875,0.07952880859375
-0.18988037109375,-0.6966705322265625,0.0680694580078125
-0.3388519287109375,-0.845672607421875,-0.0175628662109375
-1.01995849609375,-1.0544891357421875,-0.0863037109375
-1.33685302734375,-1.10394287109375,-0.0054168701171875
-1.7750701904296875,-1.3023834228515625,-0.0838775634765625
-2.0936737060546875,-1.380279541015625,0.1748504638671875
-1.964385986328125,-1.3335113525390625,0.194091796875
-1.95855712890625,-1.06695556640625,0.1387786865234375
-1.615447998046875,-0.631317138671875,0.1035614013671875
-1.0822906494140625,-0.0643768310546875,0.200927734375
-0.3360137939453125,0.2181854248046875,0.157012939453125
-0.067169189453125,0.248870849609375,0.0013885498046875
-0.0689544677734375,0.3678741455078125,-0.0844268798828125
-0.0744781494140625,0.4749755859375,-0.04193115234375
0.0803375244140625,0.3517913818359375,0.0344390869140625
0.08251953125,0.22882080078125,0.0970611572265625
-0.41851806640625,0.2117767333984375,0.1368865966796875
-1.2706451416015625,-0.18182373046875,0.06634521484375
-2.3227996826171875,-0.51959228515625,0.2867889404296875
-2.419540405273437,-1.4441070556640625,0.394134521484375
-2.43536376953125,-1.2833709716796875,0.605072021484375
-1.6789398193359375,-1.240264892578125,0.4861907958984375
-1.1633758544921875,-1.08746337890625,0.299896240234375
-0.6833343505859375,-0.8712005615234375,0.002410888671875
-0.2474517822265625,-0.65399169921875,-0.2548828125
0.0242462158203125,-0.5832366943359375,-0.0771942138671875
-0.0576934814453125,-0.5821075439453125,-0.059539794921875
-0.1295318603515625,-0.5600128173828125,-0.1780853271484375
-0.540130615234375,-0.7390594482421875,0.072296142578125
-0.909912109375,-0.7950286865234375,-0.210601806640625
-2.237335205078125,-1.561492919921875,-0.1522369384765625
-3.59698486328125,-1.3095245361328125,0.4956512451171875
-2.439315795898437,-0.796234130859375,0.0247039794921875
-1.4842681884765625,-0.3053131103515625,0.0012664794921875
-0.7648773193359375,-0.1558380126953125,-0.038330078125
-0.3861236572265625,0.02838134765625,-0.0478515625
-0.2111968994140625,0.187164306640625,-0.0131072998046875
-0.194183349609375,0.318756103515625,-0.1540679931640625
-0.1887359619140625,0.465545654296875,-0.1647491455078125
-0.0394287109375,0.3924102783203125,-0.1034393310546875
-0.112396240234375,0.3172454833984375,-0.063934326171875
-0.5455474853515625,0.17974853515625,0.2493133544921875
-1.9852142333984373,-0.24700927734375,-0.0697784423828125
-2.770736694335937,-0.8013153076171875,-0.1355133056640625
-2.229705810546875,-1.11956787109375,-0.2880401611328125
-1.9063873291015625,-1.0823211669921875,0.11175537109375
-1.1339263916015625,-0.9993438720703124,0.0243072509765625
-0.711395263671875,-0.86834716796875,-0.0689849853515625
-0.3750762939453125,-0.866943359375,-0.1611785888671875
-0.0594329833984375,-0.75445556640625,-0.03643798828125
-0.1175689697265625,-0.7096099853515625,-0.0564117431640625
-0.1974029541015625,-0.742523193359375,-0.0509033203125
-0.5170745849609375,-0.9365997314453124,-0.429046630859375
-1.283111572265625,-1.120574951171875,-0.5716705322265625
-1.76251220703125,-1.207000732421875,-0.734954833984375
-2.28173828125,-1.3105010986328125,-0.8237762451171875
-2.138046264648437,-0.9305267333984376,-0.608612060546875
-1.2862548828125,-0.5337371826171875,-0.4279022216796875
-0.947509765625,-0.3398284912109375,-0.2806396484375
-0.501678466796875,-0.024017333984375,-0.12054443359375
-0.0957489013671875,0.100341796875,-0.1624603271484375
0.01153564453125,0.2069854736328125,-0.103912353515625
-0.067840576171875,0.2526092529296875,-0.045318603515625
-0.2987823486328125,0.324371337890625,-0.052734375
-0.6820831298828125,0.3027191162109375,-0.0454864501953125
-1.223114013671875,0.188507080078125,0.0291748046875
-1.5944671630859375,-0.26580810546875,-0.2838592529296875
-1.708770751953125,-0.3820648193359375,0.142974853515625
-1.908538818359375,-0.9432373046875,0.202667236328125
-1.72100830078125,-0.8729248046875,0.10595703125
-1.433319091796875,-0.8744049072265625,-0.122802734375
-1.1785888671875,-0.7709808349609375,-0.082244873046875
-0.846649169921875,-0.810150146484375,0.0020599365234375
-0.7933349609375,-0.8066864013671875,-0.0470733642578125
-0.704986572265625,-0.7596893310546875,-0.0471038818359375
-0.7058563232421875,-0.8762054443359375,-0.0340576171875
-1.169097900390625,-1.1287994384765625,-0.4434356689453125
-1.287322998046875,-1.120391845703125,-0.1658935546875
-1.4408721923828125,-1.3521728515625,-0.214324951171875
-2.3896636962890625,-1.0057220458984375,-0.478363037109375
-1.5767669677734375,-0.5124664306640625,-0.5534210205078125
-1.3961029052734375,-0.3221893310546875,-0.407257080078125
-1.03546142578125,-0.2199859619140625,-0.390106201171875
-0.89013671875,-0.0912933349609375,-0.339630126953125
-0.7367706298828125,-0.0115814208984375,-0.275604248046875
-0.5872650146484375,0.0871429443359375,-0.1839599609375
-0.382598876953125,0.2238922119140625,-0.1658935546875
-0.135223388671875,0.171478271484375,-0.3245086669921875
-0.176177978515625,0.1568450927734375,-0.1295928955078125
-0.33087158203125,0.04693603515625,-0.1766204833984375
-0.419158935546875,0.054534912109375,-0.16351318359375
-0.9264678955078124,-0.192230224609375,-0.063323974609375
-1.300567626953125,-0.29046630859375,-0.053192138671875
-1.43487548828125,-0.7623138427734375,0.1089324951171875
-1.8349456787109373,-0.70947265625,0.1776123046875
-1.366485595703125,-0.4428253173828125,0.6433868408203125
-1.795684814453125,-0.544708251953125,0.8212432861328125
-1.2915802001953125,-0.7268829345703125,0.313079833984375
-1.4102325439453125,-0.945159912109375,0.250946044921875
-1.10919189453125,-0.877593994140625,0.028961181640625
-0.8385467529296875,-0.697113037109375,-0.1116790771484375
-0.7939605712890625,-0.4826202392578125,-0.0641632080078125
-0.7550201416015625,-0.405548095703125,-0.1486053466796875
-0.811737060546875,-0.4372100830078125,-0.06610107421875
-0.7945709228515625,-0.626190185546875,-0.207916259765625
-0.710845947265625,-0.8924407958984375,-0.092987060546875
-0.85784912109375,-1.023529052734375,-0.315399169921875
-1.279266357421875,-1.278656005859375,-0.0641021728515625
-1.8716888427734373,-1.2128448486328125,-0.2883758544921875
-2.1820068359375,-0.8180694580078125,-0.3608551025390625
-1.772674560546875,-0.584075927734375,-0.3659820556640625
-1.5035552978515625,-0.47015380859375,-0.37152099609375
-1.1252899169921875,-0.251220703125,-0.211151123046875
-0.685089111328125,-0.1141357421875,-0.2462310791015625
-0.440155029296875,-0.0063629150390625,-0.2480621337890625
-0.2805633544921875,0.001495361328125,-0.1595001220703125
-0.2077789306640625,0.05267333984375,-0.275634765625
-0.1233673095703125,-0.1285552978515625,-0.3995208740234375
-0.508636474609375,-0.228851318359375,-0.4129180908203125
-0.63934326171875,-0.1431427001953125,-0.164581298828125
-0.4410247802734375,-0.20611572265625,-0.0478057861328125
-0.6983642578125,-0.0364532470703125,0.0460662841796875
-1.0269775390625,-0.302276611328125,0.0485992431640625
-1.5844268798828125,-0.5226898193359375,0.3227996826171875
-1.5748748779296875,-0.5376129150390625,0.2056884765625
-1.6222076416015625,-0.575164794921875,0.346466064453125
-1.3551025390625,-0.55963134765625,0.421478271484375
-1.3259429931640625,-0.66485595703125,0.1233673095703125
-1.11566162109375,-0.6515045166015625,0.0271148681640625
-0.9626007080078124,-0.6907958984375,-0.0533599853515625
-0.916259765625,-0.7568817138671875,0.027923583984375
-0.8294830322265625,-0.826873779296875,0.02264404296875
-0.875732421875,-0.8972625732421875,-0.08935546875
-0.8519134521484375,-0.9856414794921876,0.016632080078125
-0.955810546875,-1.053466796875,-0.0462646484375
-0.9862060546875,-1.18695068359375,0.2813262939453125
-1.3869171142578125,-0.9751739501953124,-0.42034912109375
-1.7549285888671875,-0.669525146484375,-0.490142822265625
-1.5206756591796875,-0.7122650146484375,-0.3803558349609375
-1.7699127197265625,-0.64703369140625,-0.2696380615234375
-1.5331268310546875,-0.4111480712890625,-0.3209381103515625
-1.197784423828125,-0.1678619384765625,-0.4226531982421875
-1.111328125,0.0089874267578125,-0.2930145263671875
-0.824462890625,0.096649169921875,-0.3084259033203125
-0.5962982177734375,0.038970947265625,-0.2982330322265625
-0.445098876953125,-0.03668212890625,-0.2810211181640625
-0.3549041748046875,-0.0875396728515625,-0.240814208984375
-0.3149566650390625,-0.1765899658203125,-0.2110443115234375
-0.525848388671875,-0.0914764404296875,-0.0586395263671875
-0.652435302734375,-0.1494293212890625,0.0442352294921875
-0.7583160400390625,-0.0939788818359375,0.1386260986328125
-1.0736541748046875,0.0123443603515625,0.0856170654296875
-1.4288787841796875,-0.36700439453125,0.0676116943359375
-1.6832122802734375,-0.3833770751953125,0.0330657958984375
-1.5772857666015625,-0.5229034423828125,0.0659332275390625
-1.6057281494140625,-0.6279449462890625,0.375823974609375
-1.554718017578125,-0.7772216796875,0.34698486328125
-1.305206298828125,-0.77508544921875,-0.0919342041015625
-1.01824951171875,-0.680145263671875,-0.1509246826171875
-0.7987823486328125,-0.615692138671875,0.0193939208984375
-0.75830078125,-0.6066741943359375,0.251953125
-0.8319244384765625,-0.597686767578125,0.2151031494140625
-1.2541961669921875,-0.554718017578125,-0.0471343994140625
-1.45806884765625,-0.535736083984375,-0.151214599609375
-1.456756591796875,-0.5850372314453125,-0.388916015625
-1.877197265625,-0.7988739013671875,-0.4765472412109375
-2.390243530273437,-0.6980438232421875,-0.6719207763671875
-1.671661376953125,-0.360321044921875,-0.3475799560546875
-1.745941162109375,-0.2916259765625,-0.5503082275390625
-1.407257080078125,-0.113311767578125,-0.5476837158203125
-0.980377197265625,0.050201416015625,-0.502471923828125
-0.648651123046875,0.1464996337890625,-0.3809356689453125
-0.3885650634765625,0.2338104248046875,-0.3162689208984375
-0.22503662109375,0.2235260009765625,-0.2781982421875
-0.1970977783203125,0.1766510009765625,-0.270721435546875
-0.236846923828125,0.0418243408203125,-0.32171630859375
-0.248931884765625,-0.002166748046875,-0.30841064453125
-0.4317474365234375,-0.082305908203125,-0.37896728515625
-0.8037261962890625,-0.193939208984375,-0.510711669921875
-1.0113677978515625,-0.2834014892578125,-0.4467620849609375
-1.1722869873046875,-0.4279327392578125,-0.2885284423828125
-1.4768218994140625,-0.2450408935546875,-0.239654541015625
-1.6710205078125,-0.34979248046875,-0.2535552978515625
-1.632843017578125,-0.528167724609375,-0.032470703125
-1.2692413330078125,-0.7490386962890625,-0.0843353271484375
-1.156890869140625,-0.878082275390625,-0.094512939453125
-0.9556884765625,-0.8641204833984375,-0.178436279296875
-0.8150634765625,-0.8494110107421875,-0.2298736572265625
-0.729705810546875,-0.7724609375,-0.21551513671875
-0.754302978515625,-0.728912353515625,-0.3253021240234375
-0.984832763671875,-0.705413818359375,-0.491546630859375
-1.254425048828125,-0.7241058349609375,-0.448486328125
-1.548431396484375,-0.7818756103515625,-0.511627197265625
-1.925445556640625,-0.924224853515625,-0.5804443359375
-2.0708465576171875,-0.654327392578125,-0.4721221923828125
-1.55108642578125,-0.437530517578125,-0.346710205078125
-1.20672607421875,-0.2555389404296875,-0.2834014892578125
-0.9654388427734376,-0.14111328125,-0.25567626953125
-0.6674041748046875,0.0380401611328125,-0.1741180419921875
-0.3590087890625,0.1575469970703125,-0.13433837890625
-0.2332305908203125,0.25567626953125,-0.1507415771484375
-0.1811370849609375,0.3000946044921875,-0.1278533935546875
-0.195556640625,0.213836669921875,-0.1350555419921875
-0.4558258056640625,0.1374969482421875,-0.1457366943359375
-0.53533935546875,0.0203704833984375,-0.0138397216796875
-0.8839569091796875,0.021575927734375,0.170745849609375
-1.942779541015625,-0.633636474609375,0.1443939208984375
-1.8341217041015625,-0.7895050048828125,0.3192291259765625
-1.90216064453125,-0.6524658203125,0.4019317626953125
-1.73162841796875,-0.525115966796875,0.2985687255859375
-1.463165283203125,-0.4480438232421875,0.146087646484375
-1.403167724609375,-0.435394287109375,0.0559844970703125
-1.2512054443359375,-0.523193359375,0.1280975341796875
-0.9642181396484376,-0.601654052734375,0.200042724609375
-0.727142333984375,-0.627288818359375,0.2465972900390625
-0.6971588134765625,-0.619384765625,0.0409698486328125
-0.6297607421875,-0.5914764404296875,0.07257080078125
-0.66497802734375,-0.514556884765625,-0.044036865234375
-0.8587188720703125,-0.5916748046875,-0.028564453125
-1.216949462890625,-0.5298004150390625,-0.30364990234375
-1.558807373046875,-0.506072998046875,-0.4696197509765625
-1.959930419921875,-0.585052490234375,-0.356842041015625
-2.30316162109375,-0.59722900390625,-0.1663665771484375
-1.8713226318359373,-0.3286285400390625,0.0257720947265625
-1.6700439453125,-0.102935791015625,-0.2202301025390625
-1.345184326171875,0.0175018310546875,-0.081695556640625
-0.9681549072265624,0.1845245361328125,-0.070159912109375
-0.616973876953125,0.3004608154296875,-0.1166229248046875
-0.401275634765625,0.31597900390625,-0.122528076171875
-0.2751007080078125,0.202972412109375,-0.1175994873046875
-0.27545166015625,0.177337646484375,-0.0679168701171875
-0.239959716796875,0.070343017578125,-0.0958709716796875
-0.4143524169921875,0.0191802978515625,-0.116729736328125
-0.8427734375,-0.0612640380859375,-0.0956878662109375
-1.0178070068359375,0.0254058837890625,0.036407470703125
-1.634185791015625,-0.0425567626953125,0.201507568359375
-1.72235107421875,-0.1555633544921875,0.2776641845703125
-2.0343017578125,-0.3979339599609375,0.1634979248046875
-1.67034912109375,-0.4119873046875,0.18023681640625
-1.48797607421875,-0.7260284423828125,-0.001953125
-1.323516845703125,-0.6341400146484375,-0.0225982666015625
-1.0120697021484375,-0.6671905517578125,-0.10687255859375
-0.848663330078125,-0.5366668701171875,-0.09832763671875
-0.7309417724609375,-0.5612640380859375,-0.1153411865234375
-0.8356475830078125,-0.508148193359375,-0.1411895751953125
-0.77471923828125,-0.4846343994140625,-0.2246246337890625
-0.8087005615234375,-0.4339752197265625,-0.1161346435546875
-0.9266510009765624,-0.4823760986328125,-0.0540313720703125
-0.9656524658203124,-0.604888916015625,0.023681640625
-1.18603515625,-0.73419189453125,0.0084991455078125
-1.3012237548828125,-0.81439208984375,-0.1275482177734375
-1.8294677734375,-0.9282379150390624,-0.3840484619140625
-1.7759552001953125,-0.45111083984375,-0.1646881103515625
-1.2078857421875,-0.5364532470703125,-0.400421142578125
-1.705352783203125,-0.6961669921875,-0.190338134765625
-1.4500732421875,-0.45623779296875,-0.014801025390625
-0.7284698486328125,-0.143707275390625,-0.15838623046875
-0.52783203125,-0.05377197265625,-0.1956024169921875
-0.4955902099609375,0.0084228515625,-0.1031646728515625
-0.361480712890625,-0.0188751220703125,-0.0903778076171875
-0.3809814453125,-0.0238189697265625,-0.1011810302734375
-0.459320068359375,-0.1163330078125,-0.0843048095703125
-0.5473480224609375,-0.1720428466796875,-0.0844268798828125
-0.6098785400390625,-0.284027099609375,-0.0659332275390625
-0.896881103515625,-0.31304931640625,0.0623626708984375
-1.1152801513671875,-0.3730621337890625,0.2483062744140625
-1.27789306640625,-0.7096099853515625,0.19976806640625
-1.73126220703125,-0.294952392578125,0.318756103515625
-1.4931640625,-0.628875732421875,0.279632568359375
-1.3827972412109375,-0.581298828125,0.387908935546875
-1.104644775390625,-0.59619140625,0.15087890625
-1.098876953125,-0.612640380859375,0.2007598876953125
-0.9695281982421876,-0.6695098876953125,0.1133270263671875
-0.88037109375,-0.771270751953125,0.095489501953125
-0.8350830078125,-0.790435791015625,0.0759429931640625
-0.8963470458984375,-0.8672943115234375,0.005279541015625
-0.995452880859375,-0.8218994140625,-0.102630615234375
-1.0915985107421875,-0.7686614990234375,-0.18096923828125
-1.219757080078125,-0.74786376953125,-0.19451904296875
-1.3758392333984375,-0.7094268798828125,-0.2461395263671875
-1.2685394287109375,-0.6262054443359375,-0.2368011474609375
-1.621734619140625,-0.788177490234375,-0.12176513671875
-1.6875,-0.666290283203125,0.0258026123046875
-1.3826141357421875,-0.50640869140625,-0.04400634765625
-1.2095489501953125,-0.321136474609375,-0.04681396484375
-0.9268035888671876,-0.1824798583984375,-0.1282501220703125
-0.7165374755859375,-0.1006317138671875,-0.08740234375
-0.48291015625,0.0077972412109375,-0.14459228515625
-0.2972869873046875,0.0361328125,-0.183929443359375
-0.2552032470703125,0.057586669921875,-0.144683837890625
-0.255615234375,0.025665283203125,-0.1331787109375
-0.4774627685546875,0.004486083984375,-0.066558837890625
-0.821685791015625,0.02130126953125,-0.09991455078125
-1.4387359619140625,-0.4998931884765625,0.095672607421875
-1.6119537353515625,-0.2887725830078125,0.1359710693359375
-1.4046173095703125,-0.3890533447265625,0.08612060546875
-1.6361236572265625,-0.5010223388671875,0.30230712890625
-1.472564697265625,-0.56475830078125,0.355224609375
-1.453155517578125,-0.5599822998046875,0.4047393798828125
-1.336517333984375,-0.6079559326171875,0.300567626953125
-1.051177978515625,-0.571929931640625,0.2062835693359375
-0.945281982421875,-0.57647705078125,0.1544189453125
-0.810699462890625,-0.5885772705078125,0.0330047607421875
-0.8662261962890625,-0.5616912841796875,-0.0326080322265625
-0.8378448486328125,-0.5339813232421875,0.01153564453125
-0.8408355712890625,-0.493560791015625,0.031707763671875
-1.0085906982421875,-0.4674835205078125,-0.1125030517578125
-1.06658935546875,-0.61529541015625,0.0200653076171875
-1.43701171875,-0.6980438232421875,-0.2162628173828125
-1.880096435546875,-0.9058990478515624,-0.179168701171875
-1.9855499267578125,-0.7607421875,-0.465484619140625
-1.50506591796875,-0.44598388671875,-0.46539306640625
-1.247406005859375,-0.2921905517578125,-0.5081939697265625
-1.0439605712890625,-0.2120208740234375,-0.440399169921875
-0.8504180908203125,-0.14825439453125,-0.33428955078125
-0.684356689453125,-0.063507080078125,-0.2973785400390625
-0.5546875,0.045196533203125,-0.2784881591796875
-0.4434356689453125,0.0333404541015625,-0.1757659912109375
-0.4123687744140625,-0.0134429931640625,-0.2437591552734375
-0.4826202392578125,-0.0893707275390625,-0.2997283935546875
-0.54718017578125,-0.2011566162109375,-0.2713623046875
-0.5743408203125,-0.2148590087890625,-0.3824615478515625
-0.6215057373046875,-0.193084716796875,-0.3264312744140625
-0.81158447265625,-0.2647705078125,-0.17742919921875
-0.9078521728515624,-0.092437744140625,-0.0984039306640625
-0.9157867431640624,-0.088165283203125,-0.230804443359375
-1.023101806640625,-0.0200958251953125,-0.2560882568359375
-1.298187255859375,-0.02325439453125,-0.3136749267578125
-1.5095062255859375,-0.16802978515625,-0.3797607421875
-1.427978515625,-0.3117828369140625,-0.6211090087890625
-1.4405059814453125,-0.508392333984375,-0.505706787109375
-1.2053680419921875,-0.658843994140625,-0.478240966796875
-1.0408172607421875,-0.682525634765625,-0.4622955322265625
-0.93194580078125,-0.614776611328125,-0.3880462646484375
-0.9168243408203124,-0.5271148681640625,-0.370819091796875
-1.0068359375,-0.4750213623046875,-0.42889404296875
-1.1956634521484375,-0.3783111572265625,-0.51922607421875
-1.3139190673828125,-0.3321075439453125,-0.7388916015625
-1.3201904296875,-0.3350982666015625,-0.5547027587890625
-1.5955963134765625,-0.4074249267578125,-0.6468505859375
-1.605255126953125,-0.268157958984375,-0.48828125
-1.4445953369140625,-0.228790283203125,-0.4361419677734375
-1.4012908935546875,-0.1710205078125,-0.3213653564453125
-1.2310791015625,-0.1746978759765625,-0.2388763427734375
-0.9110870361328124,-0.06396484375,-0.229034423828125
-0.6357421875,0.0380859375,-0.2490081787109375
-0.526214599609375,0.1639404296875,-0.2440643310546875
-0.4029388427734375,0.1156158447265625,-0.22894287109375
-0.4027252197265625,0.16693115234375,-0.0846099853515625
-0.4846649169921875,0.102935791015625,0.0135040283203125
-0.6802825927734375,0.1168060302734375,0.09136962890625
-0.7939300537109375,0.0841522216796875,0.1367645263671875
-1.03375244140625,0.1316375732421875,0.17376708984375
-1.4391632080078125,-0.0616302490234375,0.356109619140625
-1.5719146728515625,-0.127227783203125,0.28277587890625
-1.70355224609375,-0.10906982421875,0.1924285888671875
-1.58404541015625,-0.1471405029296875,0.262939453125
-1.3472137451171875,-0.1865386962890625,0.347137451171875
-1.1959686279296875,-0.233489990234375,0.053955078125
-1.3121337890625,-0.2803192138671875,0.1563720703125
-1.15704345703125,-0.4308319091796875,0.1510009765625
-1.035003662109375,-0.5072174072265625,0.1048736572265625
-0.8399810791015625,-0.4628143310546875,0.1138763427734375
-0.8026885986328125,-0.489837646484375,0.11126708984375
-0.9875640869140624,-0.5158843994140625,0.050262451171875
-1.16851806640625,-0.461029052734375,-0.232818603515625
-1.29681396484375,-0.5237884521484375,-0.23291015625
-1.3465118408203125,-0.4936676025390625,-0.27032470703125
-1.6466827392578125,-0.546356201171875,-0.4217987060546875
-2.0247955322265625,-0.765625,-0.2099761962890625
-1.687042236328125,-0.4089508056640625,-0.06683349609375
-1.5183258056640625,-0.357879638671875,-0.0833892822265625
-1.436676025390625,-0.3765411376953125,-0.0517120361328125
-1.2716064453125,-0.3159027099609375,0.0176239013671875
-1.0542144775390625,-0.1209564208984375,0.0380096435546875
-0.7545318603515625,0.08935546875,-0.08331298828125
-0.52313232421875,0.217864990234375,-0.1343994140625
-0.285064697265625,0.219573974609375,-0.115081787109375
-0.1752777099609375,0.0919952392578125,-0.1231689453125
-0.2733917236328125,0.1171417236328125,-0.129791259765625
-0.358642578125,-0.0099639892578125,-0.0971221923828125
-0.6239776611328125,-0.1262664794921875,-0.0661163330078125
-1.0958404541015625,-0.3925018310546875,-0.038055419921875
-1.333099365234375,-0.6403350830078125,0.0798492431640625
-1.3794097900390625,-0.8126068115234375,0.1601715087890625
-1.32672119140625,-0.9818878173828124,0.280059814453125
-1.1274871826171875,-0.84393310546875,0.0882415771484375
-1.23931884765625,-0.6366729736328125,0.1561431884765625
-1.2807464599609375,-0.5287322998046875,0.216796875
-1.28173828125,-0.4551544189453125,0.13250732421875
-1.36376953125,-0.5950469970703125,0.08154296875
-1.408721923828125,-0.751678466796875,0.037841796875
-1.304290771484375,-0.8976898193359375,-0.095001220703125
-1.2547760009765625,-0.9458465576171876,-0.060943603515625
-1.00653076171875,-0.8103485107421875,-0.1869659423828125
-0.7831878662109375,-0.6786651611328125,-0.2208251953125
-0.410125732421875,-0.4795684814453125,-0.1993255615234375
-0.0800018310546875,-0.1991424560546875,-0.1756744384765625
-0.0895843505859375,-0.379241943359375,-0.173065185546875
-0.996856689453125,-0.49169921875,0.1375732421875
-1.32269287109375,-0.4392242431640625,-0.0161895751953125
-1.56829833984375,-0.69464111328125,-0.4986419677734375
-1.876434326171875,-0.573028564453125,-0.4643707275390625
-1.3728485107421875,-0.396514892578125,-0.4721527099609375
-0.96319580078125,-0.3135833740234375,-0.29638671875
-0.581787109375,-0.3273773193359375,-0.3675689697265625
-0.788238525390625,-0.1493988037109375,-0.067291259765625
-0.6363525390625,-0.1183013916015625,-0.046844482421875
-0.29180908203125,-0.0850982666015625,0.0263824462890625
-0.3465576171875,-0.2169342041015625,0.031890869140625
-0.4699554443359375,-0.0507049560546875,0.0078125
-0.826171875,-0.104522705078125,-0.0313720703125
-1.0763092041015625,-0.08709716796875,-0.267425537109375
-1.473297119140625,-0.2349090576171875,-0.563018798828125
-1.636322021484375,-0.220916748046875,-0.5389556884765625
-1.256317138671875,-0.51416015625,-0.3242950439453125
-0.985565185546875,-0.6614532470703125,-0.4797515869140625
-0.7164459228515625,-0.51116943359375,-0.5766448974609375
-0.4503173828125,-0.441925048828125,-0.636444091796875
-0.3100433349609375,-0.5504302978515625,-0.504730224609375
-0.2959747314453125,-0.6672821044921875,-0.5945587158203125
-0.596221923828125,-0.7791290283203125,-0.4770965576171875
-1.072784423828125,-0.8795928955078125,-0.8748626708984375
-1.901763916015625,-0.579254150390625,-1.1107330322265625
-2.0611572265625,-0.523284912109375,-1.12200927734375
-1.7768402099609375,-0.3085479736328125,-1.3468017578125
-1.21240234375,0.1628265380859375,-1.2549591064453125
-0.7741546630859375,0.55029296875,-1.3182373046875
-0.4742279052734375,0.1383056640625,-1.0597381591796875
-0.228607177734375,-0.1071319580078125,-0.4328460693359375
-0.2872467041015625,0.04339599609375,-0.0908050537109375
-0.2621002197265625,0.0178985595703125,-0.0470733642578125
-0.0528411865234375,0.1230010986328125,-0.55255126953125
-0.273773193359375,0.2111358642578125,-0.58453369140625
-0.1086883544921875,-0.26763916015625,-0.7613067626953125
-0.18817138671875,-0.3525238037109375,-0.862884521484375
-0.048858642578125,-0.20819091796875,-1.4440460205078125
-0.282501220703125,-0.2881317138671875,-1.06671142578125
-0.1515655517578125,-0.256591796875,-1.110870361328125
-0.1924591064453125,-0.2431640625,-0.8255615234375
-0.350677490234375,-0.34326171875,-0.402557373046875
-0.332244873046875,-0.1892242431640625,-0.7062835693359375
-0.346160888671875,-0.3152008056640625,-0.4330596923828125
-0.22882080078125,0.079132080078125,-0.7993927001953125
0.12835693359375,-0.0829925537109375,-1.2481842041015625
0.37310791015625,0.20611572265625,-1.6333465576171875
0.2618255615234375,-0.0908355712890625,-1.308837890625
0.1285858154296875,-0.3039398193359375,-1.39447021484375
0.1276092529296875,-0.392669677734375,-1.2177276611328125
-0.1589202880859375,-0.479248046875,-1.026031494140625
-0.203338623046875,-0.3652496337890625,-1.1923980712890625
0.022247314453125,-0.4572601318359375,-1.0861968994140625
-0.2086639404296875,-0.4741058349609375,-0.57989501953125
-0.1262664794921875,-0.284515380859375,-0.765960693359375
-0.2874603271484375,-0.26275634765625,-0.6185760498046875
-0.263275146484375,-0.3538818359375,-0.5507354736328125
-0.26898193359375,-0.448516845703125,-0.828521728515625
-0.5175628662109375,-0.219024658203125,-1.1323394775390625
-0.2329864501953125,-0.296783447265625,-1.1627655029296875
-0.2623443603515625,-0.348419189453125,-1.021759033203125
-0.3013458251953125,-0.2198486328125,-1.068878173828125
-0.0993804931640625,-0.1006927490234375,-0.9731597900390624
-0.0515594482421875,-0.1893310546875,-0.5978851318359375
-0.172637939453125,-0.3116912841796875,-0.3375244140625
-0.0210418701171875,-0.3360443115234375,-0.3429718017578125
0.0161590576171875,-0.5818328857421875,-0.64862060546875
-0.152130126953125,-0.436004638671875,-1.0865478515625
-0.2227783203125,-0.400238037109375,-1.3291778564453125
-0.02923583984375,-0.4240570068359375,-1.8149261474609373
-0.31890869140625,-0.34283447265625,-1.604736328125
-0.18487548828125,-0.4066009521484375,-1.47369384765625
-0.2249603271484375,-0.38275146484375,-1.1476287841796875
-0.21380615234375,-0.2532958984375,-0.7355194091796875
-0.13165283203125,-0.28436279296875,-0.642791748046875
-0.11102294921875,-0.334991455078125,-0.5596160888671875
-0.0722503662109375,-0.28485107421875,-0.5344085693359375
0.070831298828125,-0.2668914794921875,-0.41827392578125
-0.020477294921875,-0.04559326171875,-0.4152069091796875
-0.0454864501953125,0.0467529296875,-0.4285430908203125
-0.43829345703125,0.277313232421875,-0.17193603515625
-0.964813232421875,0.392852783203125,-0.287506103515625
-1.7132720947265625,0.2062225341796875,-0.1511077880859375
-2.1060791015625,0.07598876953125,-0.3646240234375
-2.325775146484375,-0.4639739990234375,-0.374053955078125
-1.8813018798828125,-0.7076568603515625,-0.5363922119140625
-1.4623260498046875,-0.989471435546875,-0.50048828125
-1.4607696533203125,-1.1008758544921875,-0.34649658203125
-0.946197509765625,-0.97314453125,-0.513427734375
-0.230133056640625,-0.9185638427734376,-0.49810791015625
-0.019073486328125,-0.8253936767578125,-0.3935394287109375
-0.0011749267578125,-0.74896240234375,-0.37396240234375
-0.1185302734375,-0.6695098876953125,-0.408447265625
-0.619110107421875,-0.9188995361328124,-0.5318450927734375
-1.7403564453125,-1.0472259521484375,-0.9075775146484376
-2.34130859375,-0.9521026611328124,-0.990936279296875
-3.3065338134765625,-0.5251922607421875,-0.690032958984375
-2.1544342041015625,-0.0272216796875,0.128204345703125
-1.192108154296875,-0.008575439453125,-0.036956787109375
-0.7943115234375,0.2121734619140625,-0.016693115234375
-0.342681884765625,0.2353363037109375,-0.0709075927734375
-0.111114501953125,0.3033599853515625,-0.1728973388671875
0.1286773681640625,0.2874908447265625,0.006256103515625
0.3363037109375,0.209228515625,0.2113037109375
0.0464324951171875,0.0668792724609375,0.2122650146484375
-0.833740234375,0.127166748046875,0.36224365234375
-1.9473724365234373,-0.5038604736328125,0.1500244140625
-2.685333251953125,-0.488616943359375,0.362152099609375
-1.7668609619140625,-0.872772216796875,-0.16619873046875
-1.4556121826171875,-0.9254608154296876,-0.108856201171875
-0.8120880126953125,-0.9544830322265624,-0.0788726806640625
-0.4777069091796875,-0.8549957275390625,-0.05670166015625
-0.188812255859375,-0.8835601806640625,-0.1450347900390625
0.128753662109375,-1.249053955078125,-0.1175079345703125
-0.7176513671875,-0.9757080078125,-0.374237060546875
-1.1542510986328125,-0.8954620361328125,-0.6187896728515625
-2.4669342041015625,-1.099639892578125,-1.1989288330078125
-3.2352294921875,-0.9780120849609376,-0.6731719970703125
-1.9969024658203125,-0.3719329833984375,-0.0120086669921875
-1.1097564697265625,-0.2164764404296875,-0.3286285400390625
-0.9075927734375,0.0489959716796875,-0.24725341796875
-0.396728515625,0.202484130859375,-0.2023468017578125
-0.0784149169921875,0.219390869140625,-0.2608795166015625
-0.181182861328125,0.314178466796875,-0.0298614501953125
-0.1282196044921875,0.3373565673828125,0.14849853515625
-0.0825653076171875,0.2704925537109375,0.2863616943359375
-0.3492584228515625,0.1760101318359375,0.1832733154296875
-1.39752197265625,-0.195465087890625,0.0224761962890625
-2.619003295898437,-0.8348388671875,0.0754547119140625
-2.6884918212890625,-1.1477203369140625,0.072174072265625
-1.72442626953125,-0.9300384521484376,-0.1528472900390625
-1.0428314208984375,-0.7706756591796875,-0.1724853515625
-0.2394866943359375,-0.68255615234375,0.1051483154296875
0.1724090576171875,-0.6692352294921875,-0.0035858154296875
0.1757354736328125,-0.4116363525390625,0.0093231201171875
0.3084564208984375,-0.5092010498046875,0.0724639892578125
-0.192962646484375,-0.542694091796875,0.0570831298828125
-0.583770751953125,-0.8614349365234375,0.088531494140625
-1.431304931640625,-1.354278564453125,-0.2229461669921875
-2.9690704345703125,-1.75640869140625,0.2059783935546875
-2.8105621337890625,-1.078033447265625,0.265533447265625
-1.6899566650390625,-0.61199951171875,0.1716156005859375
-1.133514404296875,-0.2286834716796875,0.2188720703125
-0.459808349609375,-0.033294677734375,0.1690216064453125
-0.1249847412109375,0.0964508056640625,0.105926513671875
0.0028533935546875,0.320770263671875,0.121307373046875
0.08258056640625,0.3209991455078125,0.064666748046875
-0.064544677734375,0.4586181640625,0.1282196044921875
-0.424224853515625,0.379547119140625,0.06561279296875
-1.2784423828125,0.1796112060546875,0.2953033447265625
-2.1262969970703125,-0.3584442138671875,0.24053955078125
-2.6461334228515625,-0.678863525390625,0.1851959228515625
-2.21759033203125,-0.954833984375,0.3574371337890625
-1.74212646484375,-0.9619293212890624,0.129547119140625
-1.237823486328125,-0.7558135986328125,-0.0077056884765625
-0.7577667236328125,-0.5391998291015625,0.049041748046875
-0.3937835693359375,-0.5264434814453125,0.0332183837890625
-0.199676513671875,-0.432952880859375,-0.0393524169921875
-0.103912353515625,-0.34295654296875,-0.212677001953125
-0.3932037353515625,-0.3755035400390625,-0.202178955078125
-0.705230712890625,-0.5408782958984375,0.1676025390625
-1.1224212646484375,-0.699432373046875,0.17230224609375
-1.6053924560546875,-0.82745361328125,0.459686279296875
-1.9039306640625,-0.689483642578125,0.72735595703125
-1.647216796875,-0.683319091796875,0.5558013916015625
-1.665374755859375,-0.4776153564453125,0.4277496337890625
-1.345550537109375,-0.264617919921875,0.345306396484375
-0.958587646484375,-0.2104644775390625,0.33416748046875
-0.5418548583984375,-0.0294189453125,0.116851806640625
-0.3829803466796875,-0.1686553955078125,0.024261474609375
-0.6434783935546875,-0.2184600830078125,0.1443939208984375
-0.89300537109375,-0.3459930419921875,0.0716552734375
-1.0167999267578125,-0.2239532470703125,0.2698822021484375
-0.982177734375,-0.696319580078125,0.1209259033203125
-1.4065093994140625,-0.554473876953125,-0.0892791748046875
-0.7242584228515625,-0.4424896240234375,-0.039031982421875
-0.235626220703125,-0.3035736083984375,0.06805419921875
-0.1958465576171875,-0.21453857421875,0.0840606689453125
-0.0331573486328125,0.0062255859375,-0.0048980712890625
0.0035247802734375,0.017578125,-0.0027618408203125
0.0033111572265625,0.0184478759765625,-0.005615234375
0.0033111572265625,0.0201416015625,-0.008270263671875
0.00360107421875,0.0207366943359375,-0.0121002197265625
0.00408935546875,0.02154541015625,-0.0194549560546875
0.0050811767578125,0.0222930908203125,-0.026275634765625
0.006103515625,0.024505615234375,-0.0335693359375
0.0059356689453125,0.02374267578125,-0.034820556640625
0.01080322265625,0.0250396728515625,-0.044708251953125
-5.7470703125,5.8572845458984375,-6.93878173828125
-2.609283447265625,-1.543792724609375,-2.688827514648437
-0.1477508544921875,0.1597747802734375,-1.083709716796875
-0.1807098388671875,-0.343017578125,-0.3685760498046875
-0.2017364501953125,-0.5434722900390625,-0.5466461181640625
-0.26727294921875,-0.6774444580078125,-0.7520751953125
0.16363525390625,-0.3273162841796875,-1.103363037109375
-0.1624603271484375,-0.30938720703125,-0.876251220703125
-0.1980743408203125,-0.361846923828125,-0.92431640625
-0.150238037109375,-0.4063873291015625,-0.9300079345703124
-0.1325531005859375,-0.33831787109375,-0.9326171875
-0.156219482421875,-0.363128662109375,-0.9210052490234376
-0.1485595703125,-0.3844451904296875,-0.9233551025390624
-0.146942138671875,-0.3500518798828125,-0.9227752685546876
-0.1501922607421875,-0.375762939453125,-0.92620849609375
-0.150360107421875,-0.3629150390625,-0.924591064453125
-0.1457061767578125,-0.3620758056640625,-0.92437744140625
-0.151458740234375,-0.370147705078125,-0.926025390625
-0.146209716796875,-0.3605194091796875,-0.92547607421875
-0.1494598388671875,-0.3669586181640625,-0.920684814453125
-0.1521759033203125,-0.365386962890625,-0.921600341796875
-0.147613525390625,-0.3687591552734375,-0.92138671875
-0.1495208740234375,-0.3633270263671875,-0.921722412109375
-0.1484832763671875,-0.3668670654296875,-0.9280853271484376
-0.1485595703125,-0.363800048828125,-0.924774169921875
-0.1488189697265625,-0.3656463623046875,-0.9252471923828124
-0.1484527587890625,-0.3638763427734375,-0.9243621826171876
-0.1498260498046875,-0.365142822265625,-0.924072265625
-0.149566650390625,-0.36651611328125,-0.92486572265625
-0.1489410400390625,-0.3641204833984375,-0.9243316650390624
-0.149139404296875,-0.3666229248046875,-0.9245758056640624
-0.148773193359375,-0.36492919921875,-0.923187255859375
-0.1493072509765625,-0.3665924072265625,-0.9253082275390624
-0.148406982421875,-0.3648681640625,-0.91900634765625
-0.1476593017578125,-0.3664093017578125,-0.9287872314453124
-0.1472930908203125,-0.369140625,-0.92889404296875
-0.1464996337890625,-0.3656158447265625,-0.926544189453125
-0.1475677490234375,-0.367340087890625,-0.920257568359375
-0.1453857421875,-0.3641510009765625,-0.924102783203125
-0.185150146484375,-0.389404296875,-0.843780517578125
-0.1043701171875,-0.3785247802734375,-1.0879974365234375
