AccelerationX,AccelerationY,AccelerationZ
-0.4810333251953125,0.6805572509765625,-0.5221099853515625
-0.4508514404296875,0.6937255859375,-0.517852783203125
-0.4824066162109375,0.685699462890625,-0.50360107421875
-0.514801025390625,0.6827392578125,-0.5166015625
-0.4539794921875,0.6820526123046875,-0.5298004150390625
-0.46502685546875,0.678741455078125,-0.5299835205078125
-0.48779296875,0.68597412109375,-0.577484130859375
-0.5096435546875,0.6717987060546875,-0.5603485107421875
-0.5025482177734375,0.6674957275390625,-0.53424072265625
-0.4990386962890625,0.6856842041015625,-0.5301971435546875
-0.486083984375,0.6884613037109375,-0.5408477783203125
-0.5465087890625,0.638153076171875,-0.574188232421875
-0.5214691162109375,0.6369171142578125,-0.40771484375
-0.399810791015625,0.7021942138671875,-0.3352813720703125
-0.42236328125,0.7543792724609375,-0.313140869140625
-0.545654296875,0.780670166015625,-0.3282928466796875
-0.639739990234375,0.73602294921875,-0.29522705078125
-0.7676239013671875,0.722198486328125,-0.077972412109375
-0.7710418701171875,0.6556396484375,-0.0002899169921875
-0.692413330078125,0.6002197265625,0.0876922607421875
-0.687042236328125,0.6286468505859375,0.0081939697265625
-0.803741455078125,0.5982818603515625,0.1421966552734375
-0.996246337890625,0.5787811279296875,0.155059814453125
-1.0076751708984375,0.5526885986328125,0.1933746337890625
-0.998809814453125,0.5492706298828125,0.065338134765625
-1.0045166015625,0.5784759521484375,-0.16741943359375
-1.055755615234375,0.5764923095703125,-0.0847930908203125
-1.087188720703125,0.6247406005859375,-0.0112457275390625
-1.1156768798828125,0.6229400634765625,-0.0892333984375
-1.0414886474609375,0.5606536865234375,-0.1115264892578125
-0.975494384765625,0.6423492431640625,-0.1403656005859375
-0.7709808349609375,0.6798095703125,-0.176910400390625
-0.7422943115234375,0.720367431640625,-0.308685302734375
-0.76177978515625,0.817352294921875,-0.1889495849609375
-0.705169677734375,0.7619476318359375,-0.109039306640625
-0.5396575927734375,0.57586669921875,-0.150482177734375
-0.4662933349609375,0.5809783935546875,-0.1695098876953125
-0.4968109130859375,0.5899658203125,-0.1102752685546875
-0.5457916259765625,0.622467041015625,-0.0294189453125
-0.619232177734375,0.7541351318359375,-0.039947509765625
-0.6219024658203125,0.96209716796875,0.069366455078125
-0.5166473388671875,1.116912841796875,0.152130126953125
-0.5324554443359375,1.1071624755859375,0.2266693115234375
-0.5771942138671875,1.1070709228515625,0.1485595703125
-0.4161224365234375,0.85577392578125,-0.003143310546875
-0.66766357421875,0.8827972412109375,0.0368194580078125
-0.955596923828125,1.0106048583984375,0.1830291748046875
-0.94683837890625,0.9470367431640624,0.236175537109375
-0.76751708984375,0.632537841796875,0.11962890625
-0.6566009521484375,0.482818603515625,0.040985107421875
-0.6138763427734375,0.495147705078125,-0.0244903564453125
-0.6186370849609375,0.54473876953125,0.0234375
-0.7745819091796875,0.6149139404296875,-0.016632080078125
-0.97393798828125,0.86834716796875,-0.10345458984375
-1.06854248046875,0.9991912841796876,-0.0897674560546875
-0.989776611328125,0.88421630859375,-0.0617828369140625
-1.070098876953125,1.0638885498046875,-0.0800018310546875
-0.8499908447265625,1.032989501953125,-0.0321502685546875
-0.884033203125,1.1162567138671875,0.0358123779296875
-0.923095703125,1.17840576171875,-0.04949951171875
-0.82757568359375,1.07330322265625,-0.118408203125
-0.68328857421875,0.9218597412109376,-0.117156982421875
-0.6111602783203125,0.893585205078125,-0.05389404296875
-0.510528564453125,0.9187774658203124,-0.01495361328125
-0.3426055908203125,0.835540771484375,0.0417938232421875
-0.2723541259765625,0.73687744140625,0.089141845703125
-0.2973175048828125,0.7493896484375,0.1137847900390625
-0.2520294189453125,0.7868804931640625,0.0724639892578125
-0.211517333984375,0.6832427978515625,0.0134735107421875
-0.43408203125,0.7934722900390625,0.0691375732421875
-0.3805084228515625,0.7959136962890625,0.06494140625
-0.641387939453125,0.978668212890625,0.1179962158203125
-0.9358062744140624,1.3314056396484375,0.1127777099609375
-1.123809814453125,1.11712646484375,0.02197265625
-1.1320648193359375,0.7808837890625,-0.02862548828125
-1.05291748046875,0.686126708984375,-0.1175079345703125
-0.9493865966796876,0.73553466796875,-0.13671875
-0.777496337890625,0.76116943359375,-0.0674591064453125
-0.723876953125,0.6493682861328125,-0.0159149169921875
-0.9088134765625,0.5915985107421875,-0.093536376953125
-1.0929412841796875,0.7263336181640625,-0.096771240234375
-1.095794677734375,0.79754638671875,-0.09942626953125
-1.1670684814453125,1.041778564453125,-0.3199920654296875
-1.122772216796875,1.1074371337890625,-0.323150634765625
-1.0397186279296875,1.258941650390625,-0.332672119140625
-0.9029693603515624,1.2552642822265625,-0.3545379638671875
-0.697723388671875,1.026092529296875,-0.413543701171875
-0.5761260986328125,0.906829833984375,-0.3672027587890625
-0.545074462890625,0.937591552734375,-0.160797119140625
-0.544281005859375,1.0758819580078125,-0.1813507080078125
-0.4730377197265625,1.1311492919921875,-0.3067779541015625
-0.4827728271484375,1.110015869140625,-0.29400634765625
-0.5140838623046875,1.0582275390625,-0.153350830078125
-0.4250335693359375,0.95208740234375,-0.032379150390625
-0.261444091796875,0.9112091064453124,0.047637939453125
-0.0551300048828125,0.8233642578125,0.0499114990234375
-0.25311279296875,0.837677001953125,0.143768310546875
-0.50543212890625,0.9946136474609376,0.2506866455078125
-0.62713623046875,0.9869537353515624,0.1645660400390625
-0.6631927490234375,0.7718505859375,0.003875732421875
-0.670318603515625,0.69561767578125,-0.05718994140625
-0.7254180908203125,0.77301025390625,0.018890380859375
-0.845672607421875,0.948272705078125,0.0560150146484375
-0.947479248046875,0.9616546630859376,0.0262908935546875
-1.140655517578125,0.9504241943359376,-0.1390838623046875
-1.3316192626953125,0.9685821533203124,-0.297271728515625
-1.2277374267578125,0.84857177734375,-0.391632080078125
-1.197113037109375,1.0622711181640625,-0.2271575927734375
-0.9615478515625,1.0715179443359375,-0.132476806640625
-0.921417236328125,0.87042236328125,-0.0543975830078125
-0.8916473388671875,0.96453857421875,-0.1061248779296875
-0.6976318359375,0.9299468994140624,-0.0890350341796875
-0.62335205078125,0.8906707763671875,-0.1216888427734375
-0.6004791259765625,0.8873748779296875,-0.0666656494140625
-0.556243896484375,0.94891357421875,-0.0321502685546875
-0.508453369140625,0.9913482666015624,-0.0649871826171875
-0.510894775390625,1.03948974609375,-0.0810394287109375
-0.4866790771484375,1.086578369140625,-0.0264434814453125
-0.321563720703125,1.0272369384765625,0.0142822265625
-0.2350311279296875,0.79718017578125,0.0079345703125
-0.2696533203125,1.056854248046875,0.10748291015625
-0.0529937744140625,0.7455291748046875,0.0527191162109375
-0.4217987060546875,0.8831634521484375,0.0577239990234375
-0.5316314697265625,1.1081390380859375,0.0611419677734375
-0.503662109375,1.035614013671875,0.0724334716796875
-0.5452880859375,0.8834381103515625,0.0821533203125
-0.6055755615234375,0.81414794921875,0.0090179443359375
-0.754486083984375,0.81280517578125,-0.032745361328125
-0.871673583984375,0.732635498046875,-0.1142120361328125
-1.0594329833984375,0.82073974609375,-0.20123291015625
-1.231292724609375,0.912200927734375,-0.25006103515625
-1.2363128662109375,0.943389892578125,-0.3324432373046875
-1.1651153564453125,0.9038238525390624,-0.446929931640625
-1.1396484375,1.134857177734375,-0.40032958984375
-0.849884033203125,0.91436767578125,-0.2161712646484375
-0.9486541748046876,1.111114501953125,-0.1737518310546875
-0.854248046875,1.3605499267578125,-0.22119140625
-0.6439361572265625,1.19818115234375,-0.2975616455078125
-0.584869384765625,1.005706787109375,-0.192596435546875
-0.5791168212890625,0.956878662109375,-0.0532989501953125
-0.402740478515625,0.897003173828125,0.072601318359375
-0.2874908447265625,0.785247802734375,0.091094970703125
-0.2485504150390625,0.7108917236328125,0.07330322265625
-0.1686553955078125,0.7385711669921875,0.043701171875
-0.0955657958984375,0.721588134765625,0.0712890625
-0.0644378662109375,0.657470703125,0.125457763671875
-0.3134307861328125,0.8867950439453125,0.1177978515625
-0.2903594970703125,0.9619293212890624,0.064208984375
-0.651947021484375,1.0940093994140625,0.0030364990234375
-0.8299713134765625,1.4277801513671875,-0.0414886474609375
-0.9457855224609376,1.32757568359375,-0.096466064453125
-0.9778289794921876,1.0128936767578125,-0.129852294921875
-0.9838714599609376,0.823455810546875,-0.1177520751953125
-0.8954925537109375,0.8048095703125,-0.1240081787109375
-0.7759552001953125,0.7946929931640625,-0.08428955078125
-0.7528533935546875,0.724578857421875,-0.0579986572265625
-0.8528900146484375,0.7657012939453125,-0.0290985107421875
-0.8845062255859375,0.862945556640625,-0.076171875
-0.88116455078125,0.9202117919921876,-0.18267822265625
-1.01531982421875,1.0407562255859375,-0.2740936279296875
-0.981903076171875,1.16107177734375,-0.371490478515625
-0.896453857421875,1.11053466796875,-0.2182159423828125
-0.8909912109375,1.256591796875,-0.18109130859375
-0.7510223388671875,1.26043701171875,-0.187042236328125
-0.569488525390625,1.0137176513671875,-0.2958526611328125
-0.5429229736328125,0.8616485595703125,-0.2731475830078125
-0.5275421142578125,0.920989990234375,-0.1736602783203125
-0.468048095703125,1.068145751953125,-0.1698150634765625
-0.3846435546875,1.1380462646484375,-0.241729736328125
-0.369049072265625,1.140380859375,-0.2211456298828125
-0.3564605712890625,1.0957183837890625,-0.1150665283203125
-0.2502593994140625,0.9395904541015624,-0.0981597900390625
-0.2458038330078125,0.8576202392578125,-0.014129638671875
-0.07440185546875,0.8647003173828125,0.0576324462890625
-0.3205413818359375,0.80047607421875,0.1550140380859375
-0.5389862060546875,0.9975433349609376,0.219207763671875
-0.6905517578125,1.122100830078125,-0.0115814208984375
-0.6884613037109375,0.8205413818359375,0.1964874267578125
-0.7191314697265625,0.6290435791015625,0.3586273193359375
-0.748016357421875,0.6282958984375,0.2928619384765625
-0.852630615234375,0.71563720703125,0.1963653564453125
-1.0308837890625,0.7085113525390625,0.1583709716796875
-1.1819000244140625,0.7209014892578125,0.1632080078125
-1.29229736328125,0.7460784912109375,0.0278167724609375
-1.270751953125,0.6668548583984375,-0.0931396484375
-1.206756591796875,0.592864990234375,-0.114501953125
-1.2240447998046875,0.827392578125,-0.179290771484375
-1.0624847412109375,0.7539825439453125,-0.175140380859375
-1.0536041259765625,0.8179473876953125,-0.2502593994140625
-1.0424041748046875,0.95361328125,-0.29803466796875
-0.913299560546875,0.9114837646484376,-0.223663330078125
-0.8701324462890625,0.836334228515625,-0.1216278076171875
-0.8547515869140625,0.8681182861328125,-0.080078125
-0.752410888671875,0.9115753173828124,-0.141082763671875
-0.6482696533203125,0.9005889892578125,-0.154052734375
-0.561370849609375,0.91033935546875,-0.1914825439453125
-0.5098724365234375,0.963134765625,-0.185272216796875
-0.393218994140625,0.8757781982421875,-0.1197967529296875
-0.3056640625,0.6721343994140625,-0.0133209228515625
-0.459228515625,0.7957305908203125,0.0522613525390625
-0.234710693359375,0.7721710205078125,-0.0694580078125
-0.5494384765625,0.691497802734375,-0.035430908203125
-0.7450714111328125,0.893280029296875,0.1413726806640625
-0.8978271484375,1.110137939453125,0.0814361572265625
-1.008331298828125,0.9286041259765624,0.0055084228515625
-0.943756103515625,0.7243194580078125,0.024139404296875
-0.9161376953125,0.716400146484375,0.01611328125
-0.8902130126953125,0.75994873046875,0.0078887939453125
-0.89111328125,0.7240142822265625,0.042388916015625
-0.9599761962890624,0.6701507568359375,0.2175140380859375
-1.0386505126953125,0.700531005859375,0.2302398681640625
-1.05938720703125,0.677978515625,0.167510986328125
-1.0699920654296875,0.5488128662109375,0.15570068359375
-1.0795135498046875,0.560394287109375,0.1307525634765625
-1.0197296142578125,0.804931640625,-0.0269012451171875
-0.8941192626953125,0.980926513671875,-0.228271484375
-0.74090576171875,0.9830322265625,-0.2641143798828125
-0.4664306640625,1.023895263671875,-0.3849945068359375
-0.2903900146484375,0.9616851806640624,-0.4840240478515625
-0.275726318359375,0.83416748046875,-0.3425750732421875
-0.270904541015625,0.8583526611328125,-0.381378173828125
-0.1823272705078125,0.9067535400390624,-0.5660400390625
-0.1756744384765625,1.0034942626953125,-0.5706329345703125
-0.329193115234375,1.0553436279296875,-0.4800262451171875
-0.5096435546875,1.002838134765625,-0.39581298828125
-0.648834228515625,1.001068115234375,-0.3444061279296875
-0.729248046875,0.904022216796875,-0.2232818603515625
-0.6651153564453125,0.8629150390625,-0.3112640380859375
-0.6904449462890625,0.9352874755859376,-0.3783416748046875
-0.747589111328125,1.011810302734375,-0.377471923828125
-0.7318878173828125,1.0968475341796875,-0.3459320068359375
-0.746978759765625,1.1833038330078125,-0.4400482177734375
-0.704620361328125,1.298858642578125,-0.3378448486328125
-0.62786865234375,1.3238677978515625,-0.14898681640625
-0.5139617919921875,1.201629638671875,-0.20263671875
-0.340667724609375,1.1016845703125,-0.219268798828125
-0.0438232421875,1.124481201171875,-0.1280364990234375
0.0925445556640625,0.98455810546875,-0.0668487548828125
-0.04132080078125,0.9478302001953124,0.0036468505859375
0.0442962646484375,0.9406585693359376,0.0950775146484375
-0.027618408203125,0.9831390380859376,0.2121429443359375
-0.34832763671875,1.0322265625,0.3170623779296875
-0.5774993896484375,1.05029296875,0.2963104248046875
-0.747100830078125,1.0682373046875,0.2165985107421875
-0.9210357666015624,1.07763671875,0.200775146484375
-1.0078582763671875,1.0860595703125,0.196929931640625
-1.02484130859375,1.029571533203125,0.157989501953125
-1.0254669189453125,0.906768798828125,0.1359100341796875
-1.0037841796875,0.86260986328125,0.0704803466796875
-0.8875885009765625,0.8608245849609375,-0.069671630859375
-0.8965911865234375,0.87164306640625,-0.1737060546875
-0.8864898681640625,0.7526397705078125,-0.107330322265625
-1.00274658203125,0.8466949462890625,-0.1327056884765625
-1.0121307373046875,1.0269775390625,-0.1993560791015625
-0.9546966552734376,1.236297607421875,-0.31280517578125
-0.877655029296875,1.3612518310546875,-0.3399810791015625
-0.7477569580078125,1.4919281005859375,-0.3182373046875
-0.5285491943359375,1.44024658203125,-0.1983184814453125
-0.44989013671875,1.257110595703125,-0.0988922119140625
-0.389556884765625,1.1135101318359375,-0.094879150390625
-0.25946044921875,1.0155792236328125,-0.0500030517578125
-0.035400390625,0.9371795654296876,0.05657958984375
0.1139068603515625,0.8451995849609375,0.102783203125
-0.0899505615234375,0.9077911376953124,0.04888916015625
-0.14166259765625,1.008392333984375,0.027252197265625
-0.424163818359375,1.0920562744140625,-0.071868896484375
-0.560791015625,1.2249755859375,0.1018829345703125
-0.563568115234375,1.19500732421875,0.0159912109375
-0.6315155029296875,1.00830078125,0.0081634521484375
-0.66632080078125,0.907867431640625,0.0226287841796875
-0.6917572021484375,0.9510650634765624,-0.00445556640625
-0.7621612548828125,1.0339508056640625,-0.0574798583984375
-0.8390045166015625,0.9826812744140624,-0.11810302734375
-0.951324462890625,0.987884521484375,-0.174041748046875
-1.011322021484375,1.032257080078125,-0.1763153076171875
-0.9793548583984376,0.9367523193359376,-0.2044677734375
-1.0502166748046875,1.0104827880859375,-0.2352294921875
-0.8437652587890625,0.8720245361328125,-0.13232421875
-0.8715362548828125,0.9066162109375,-0.039947509765625
-0.8830413818359375,1.054656982421875,-0.039794921875
-0.8125457763671875,1.09442138671875,-0.117645263671875
-0.860015869140625,1.050018310546875,-0.2207183837890625
-1.0287322998046875,1.1728973388671875,-0.0327301025390625
-0.8212738037109375,1.2632598876953125,0.2231597900390625
-0.528594970703125,1.1810302734375,0.13873291015625
-0.4202423095703125,1.0127716064453125,-0.00433349609375
-0.3388214111328125,0.9379425048828124,0.0423431396484375
-0.2484893798828125,0.84417724609375,0.0745086669921875
-0.213775634765625,0.70697021484375,0.1820068359375
-0.298919677734375,0.9543304443359376,0.2545013427734375
-0.19781494140625,0.99505615234375,-0.101043701171875
-0.4044189453125,0.9466094970703124,-0.0176849365234375
-0.4314727783203125,1.028167724609375,0.098419189453125
-0.512969970703125,1.0452728271484375,0.00897216796875
-0.6918792724609375,0.91180419921875,-0.2884674072265625
-0.6052398681640625,0.8496246337890625,-0.359466552734375
-0.6531829833984375,0.947509765625,-0.2609405517578125
-0.831298828125,0.846893310546875,-0.4515838623046875
-1.0659027099609375,0.8902130126953125,-0.161407470703125
-1.17388916015625,0.964630126953125,0.023529052734375
-0.755615234375,1.0650787353515625,-0.6072998046875
-1.25,0.698822021484375,0.0458984375
-1.571746826171875,0.6269378662109375,-0.2636871337890625
-1.4371795654296875,0.360931396484375,-0.404510498046875
-1.415069580078125,0.299224853515625,-0.1937713623046875
-1.4330291748046875,0.4532928466796875,-0.1168212890625
-1.2612152099609375,0.6663818359375,-0.261871337890625
-0.9474639892578124,0.7454986572265625,-0.546905517578125
-0.8739776611328125,0.8395843505859375,-0.4268035888671875
-0.81793212890625,0.95416259765625,-0.1599273681640625
-0.73870849609375,1.0265960693359375,-0.11456298828125
-0.73553466796875,1.1998291015625,-0.2213897705078125
-0.44854736328125,1.2372894287109375,-0.0784149169921875
-0.218902587890625,1.1672515869140625,-0.0161285400390625
-0.1700439453125,1.0657958984375,-0.272705078125
-0.1939849853515625,1.0223388671875,0.0023956298828125
-0.1367645263671875,0.8439178466796875,0.173187255859375
-0.5498046875,0.862640380859375,0.331878662109375
-0.794769287109375,1.072174072265625,0.1395721435546875
-0.913055419921875,1.036407470703125,0.0902099609375
-0.74383544921875,0.6908416748046875,0.12579345703125
-0.67144775390625,0.6022186279296875,0.0861358642578125
-0.7251434326171875,0.6008453369140625,0.0953369140625
-0.8489532470703125,0.711029052734375,0.0702056884765625
-0.9575958251953124,0.801605224609375,-0.099334716796875
-1.130096435546875,0.834808349609375,-0.2100982666015625
-1.30047607421875,0.79473876953125,-0.2420501708984375
-1.3597412109375,0.7126922607421875,-0.263336181640625
-1.2712554931640625,0.8158111572265625,-0.2050018310546875
-1.1107025146484375,0.9107208251953124,-0.1623687744140625
-1.01812744140625,0.8768463134765625,-0.1105499267578125
-1.037261962890625,1.033111572265625,-0.1191864013671875
-0.9655609130859376,1.057342529296875,-0.150177001953125
-0.8606109619140625,0.8903656005859375,-0.15948486328125
-0.770355224609375,0.888519287109375,-0.0980224609375
-0.73248291015625,1.00970458984375,-0.048828125
-0.60797119140625,1.031097412109375,-0.1001434326171875
-0.46929931640625,0.9784393310546876,-0.15313720703125
-0.452728271484375,0.9866790771484376,-0.116943359375
-0.3569183349609375,0.9642791748046876,-0.0234527587890625
-0.1350555419921875,0.792694091796875,0.107391357421875
-0.211578369140625,0.7866363525390625,0.041717529296875
-0.2269134521484375,0.8803863525390625,-0.007659912109375
-0.429168701171875,0.93743896484375,-0.1356964111328125
-0.6833343505859375,1.1228179931640625,0.006195068359375
-0.806304931640625,1.2772064208984375,-0.032867431640625
-0.770751953125,1.0368499755859375,-0.1290130615234375
-0.7654266357421875,0.8045806884765625,-0.122406005859375
-0.800262451171875,0.783111572265625,-0.04119873046875
-0.8226165771484375,0.895355224609375,-0.0281982421875
-0.8858489990234375,0.8831024169921875,-0.08111572265625
-0.988616943359375,0.91461181640625,-0.215576171875
-1.0950927734375,0.914215087890625,-0.2807769775390625
-1.138397216796875,0.8598175048828125,-0.23870849609375
-1.0563201904296875,0.8146820068359375,-0.20172119140625
-0.9611053466796876,0.9692535400390624,-0.2391357421875
-0.8189239501953125,0.826171875,-0.1900177001953125
-0.959564208984375,1.0780487060546875,-0.2417449951171875
-0.9682769775390624,1.2642822265625,-0.288543701171875
-0.967803955078125,1.293914794921875,-0.4146728515625
-0.9647064208984376,1.2617034912109375,-0.21881103515625
-0.91705322265625,1.349853515625,0.072296142578125
-0.5958251953125,1.307373046875,0.444091796875
-0.365509033203125,1.1269378662109375,0.39300537109375
-0.1187591552734375,1.071319580078125,0.3308868408203125
0.0864105224609375,1.0540313720703125,0.537139892578125
0.0274658203125,0.9944915771484376,0.23590087890625
-0.2852935791015625,1.010498046875,-0.0342864990234375
-0.4449462890625,1.1621856689453125,-0.04705810546875
-0.501739501953125,1.128387451171875,-0.1719818115234375
-0.6689453125,1.199188232421875,-0.2580413818359375
-0.6945648193359375,1.2425384521484375,-0.32659912109375
-0.6013336181640625,1.0608673095703125,-0.4253387451171875
-0.6640167236328125,0.8426361083984375,-0.373779296875
-0.7023162841796875,0.782928466796875,-0.2597503662109375
-0.6456146240234375,0.8823089599609375,-0.290252685546875
-0.633758544921875,0.977874755859375,-0.4355926513671875
-0.9334869384765624,1.125732421875,-0.386505126953125
-1.1412811279296875,1.1462249755859375,-0.381195068359375
-1.1785430908203125,0.9039154052734376,-0.562744140625
-1.293121337890625,0.620635986328125,-0.6596221923828125
-1.3389739990234375,0.580230712890625,-0.4731292724609375
-1.208038330078125,0.899810791015625,-0.3061065673828125
-0.9901885986328124,1.2267303466796875,-0.36187744140625
-0.8851776123046875,1.3000640869140625,-0.4018096923828125
-0.808502197265625,1.149871826171875,-0.2990264892578125
-0.777496337890625,1.1368255615234375,-0.1824188232421875
-0.6852569580078125,1.21685791015625,-0.0759124755859375
-0.5697784423828125,1.2312774658203125,-0.0814208984375
-0.4362640380859375,1.1897735595703125,-0.131988525390625
-0.3097076416015625,1.109710693359375,-0.15899658203125
-0.137237548828125,0.971649169921875,-0.0365447998046875
0.1991424560546875,0.849212646484375,0.190032958984375
0.076507568359375,0.8524169921875,0.0613250732421875
-0.1127166748046875,0.870849609375,0.0665740966796875
-0.44805908203125,1.082366943359375,-0.0581512451171875
-0.5962371826171875,1.3731689453125,-0.0963592529296875
-0.704620361328125,1.4046783447265625,-0.1187591552734375
-0.7768402099609375,1.1240692138671875,-0.173187255859375
-0.8649139404296875,0.9333343505859376,-0.1412811279296875
-0.8777008056640625,0.946807861328125,-0.08209228515625
-0.8518524169921875,1.0328216552734375,-0.1382904052734375
-0.93524169921875,0.9689178466796876,-0.268463134765625
-1.1887359619140625,0.9282379150390624,-0.3864593505859375
-1.231475830078125,0.811370849609375,-0.33319091796875
-1.065948486328125,0.64923095703125,-0.1807403564453125
-1.0388336181640625,0.822662353515625,-0.1421966552734375
-0.896392822265625,0.868560791015625,-0.1539306640625
-0.8291168212890625,0.8854827880859375,-0.239410400390625
-0.8965301513671875,1.0261993408203125,-0.3069610595703125
-0.93499755859375,1.174163818359375,-0.285675048828125
-0.829193115234375,1.0978851318359375,-0.253204345703125
-0.7922821044921875,1.0648040771484375,-0.279296875
-0.736175537109375,1.1142425537109375,-0.27630615234375
-0.648895263671875,1.164031982421875,-0.2349700927734375
-0.5163421630859375,1.149078369140625,-0.22735595703125
-0.4020843505859375,1.054901123046875,-0.2545318603515625
-0.330902099609375,0.9449005126953124,-0.2572174072265625
-0.2668914794921875,0.8301239013671875,-0.2605438232421875
-0.259521484375,0.781280517578125,-0.2177581787109375
-0.19049072265625,0.756439208984375,-0.1519927978515625
-0.191253662109375,0.6834716796875,-0.11077880859375
-0.3409576416015625,0.801666259765625,0.0098724365234375
-0.49969482421875,0.9827423095703124,0.0748138427734375
-0.65045166015625,1.098388671875,0.1743927001953125
-0.8510284423828125,1.080841064453125,0.315216064453125
-0.90380859375,1.0631103515625,0.189697265625
-0.9742584228515624,1.033355712890625,0.0963134765625
-0.9680328369140624,0.9716796875,0.0903778076171875
-1.0409698486328125,0.92913818359375,0.1806182861328125
-1.0486907958984375,0.8477020263671875,0.169525146484375
-0.9748687744140624,0.6872406005859375,0.1100006103515625
-0.989013671875,0.836456298828125,0.028167724609375
-0.9097137451171876,1.0468902587890625,-0.05328369140625
-0.8322601318359375,1.0272979736328125,-0.1605224609375
-0.7862548828125,0.902496337890625,-0.29736328125
-0.7420806884765625,0.822174072265625,-0.3748931884765625
-0.75567626953125,0.8618011474609375,-0.460601806640625
-0.617919921875,0.9009857177734376,-0.9169769287109376
-0.580596923828125,0.9412078857421876,-1.1024017333984375
-0.6933746337890625,0.90087890625,-0.783843994140625
-0.8393402099609375,0.9086151123046876,-0.746246337890625
-0.7749176025390625,1.052520751953125,-0.8150177001953125
-0.711700439453125,1.2117919921875,-0.7399444580078125
-0.6868438720703125,1.3719329833984375,-0.671295166015625
-0.6004791259765625,1.4334869384765625,-0.60784912109375
-0.3878936767578125,1.363128662109375,-0.386993408203125
0.142852783203125,1.297393798828125,0.000274658203125
0.3412322998046875,1.1217193603515625,0.36834716796875
0.029815673828125,0.957611083984375,0.205169677734375
-0.2289276123046875,1.036285400390625,-0.02886962890625
-0.323089599609375,1.08197021484375,0.1186981201171875
-0.3443603515625,1.109893798828125,0.2740325927734375
-0.4647674560546875,1.082061767578125,0.0901641845703125
-0.563018798828125,1.036529541015625,-0.04248046875
-0.6463775634765625,0.9574737548828124,-0.0953521728515625
-0.69659423828125,0.86737060546875,-0.0740814208984375
-0.7649688720703125,0.88653564453125,-0.0465850830078125
-0.7666778564453125,0.8697967529296875,0.0147705078125
-0.8066253662109375,0.8502960205078125,-0.066436767578125
-0.9066162109375,0.902923583984375,-0.169342041015625
-0.977081298828125,0.9898529052734376,-0.219207763671875
-1.028228759765625,0.997955322265625,-0.299468994140625
-1.1302490234375,1.2244720458984375,-0.3404083251953125
-0.8933563232421875,1.1703338623046875,-0.1836090087890625
-0.9497833251953124,1.31964111328125,-0.135162353515625
-0.931121826171875,1.5872344970703125,-0.259765625
-0.6811676025390625,1.6715087890625,-0.424102783203125
-0.52099609375,1.4468994140625,-0.4658966064453125
-0.4336090087890625,1.263519287109375,-0.327850341796875
-0.3483123779296875,1.0735626220703125,-0.189849853515625
-0.2409210205078125,0.903228759765625,-0.1964874267578125
-0.15106201171875,0.805938720703125,-0.1449127197265625
-0.0922698974609375,0.8097076416015625,-0.0009307861328125
-0.0523529052734375,0.8670501708984375,-0.016510009765625
-0.0474853515625,0.88134765625,-0.0930023193359375
-0.1955413818359375,0.8149871826171875,0.031494140625
-0.401885986328125,0.9394378662109376,0.164581298828125
-0.481658935546875,1.221649169921875,-0.020751953125
-0.6625213623046875,1.6551971435546875,-0.118743896484375
-0.897705078125,1.68048095703125,-0.13323974609375
-1.060943603515625,1.1322479248046875,-0.0803985595703125
-1.0897369384765625,0.779541015625,-0.065521240234375
-0.907073974609375,0.790252685546875,-0.212249755859375
-0.7948455810546875,0.777679443359375,-0.215087890625
-0.7618255615234375,0.8270263671875,-0.2209320068359375
-0.8278350830078125,0.9994354248046876,-0.1898345947265625
-0.84820556640625,1.0743408203125,-0.2630767822265625
-0.889495849609375,0.9340667724609376,-0.439849853515625
-0.919281005859375,0.7747802734375,-0.3396759033203125
-0.96392822265625,1.0670166015625,-0.292938232421875
-0.771392822265625,1.209991455078125,-0.2706146240234375
-0.710113525390625,1.206939697265625,-0.3371429443359375
-0.601409912109375,1.2848358154296875,-0.5083160400390625
-0.34027099609375,1.1360321044921875,-0.7503814697265625
-0.40509033203125,0.9235076904296876,-0.63726806640625
-0.560546875,0.8594970703125,-0.446929931640625
-0.56854248046875,0.892486572265625,-0.372894287109375
-0.545196533203125,1.05706787109375,-0.36859130859375
-0.3958740234375,1.178680419921875,-0.400390625
-0.3146514892578125,1.1540069580078125,-0.4249114990234375
-0.2497100830078125,1.0886993408203125,-0.34307861328125
0.0173797607421875,0.8791351318359375,-0.126495361328125
0.067138671875,0.878265380859375,0.12017822265625
0.23101806640625,0.7800445556640625,0.2845458984375
-0.15753173828125,1.0361480712890625,0.0264739990234375
-0.424591064453125,1.3297576904296875,-0.004425048828125
-0.528717041015625,1.368316650390625,0.0262908935546875
-0.7171478271484375,1.0977630615234375,0.0643768310546875
-0.8284912109375,0.9802398681640624,0.06793212890625
-0.84759521484375,1.044921875,0.0946502685546875
-0.8198699951171875,1.03436279296875,0.0194091796875
-0.87506103515625,1.03656005859375,-0.1807098388671875
-0.992462158203125,1.0632171630859375,-0.2789764404296875
-1.039154052734375,1.0548858642578125,-0.2907562255859375
-0.8911590576171875,0.8450469970703125,-0.2702789306640625
-0.8401336669921875,0.79010009765625,-0.338653564453125
-0.7253570556640625,0.863189697265625,-0.4011077880859375
-0.755859375,1.1016998291015625,-0.300811767578125
-0.8081512451171875,1.2490386962890625,-0.2584686279296875
-0.70977783203125,1.20318603515625,-0.3899688720703125
-0.6471710205078125,1.1316680908203125,-0.6147308349609375
-0.569183349609375,1.25152587890625,-0.424957275390625
-0.5562896728515625,1.3424072265625,-0.165985107421875
-0.5381927490234375,1.315277099609375,-0.126373291015625
-0.4287567138671875,1.2531280517578125,-0.2733001708984375
-0.294830322265625,1.1662445068359375,-0.2200469970703125
-0.1400909423828125,1.0459747314453125,-0.0601654052734375
0.12548828125,0.862823486328125,-0.0113067626953125
0.058441162109375,1.0344085693359375,-0.0517578125
0.0900421142578125,0.984710693359375,-0.0131988525390625
-0.3017578125,1.152496337890625,-0.17724609375
-0.507415771484375,1.290313720703125,-0.15777587890625
-0.499969482421875,1.2744293212890625,-0.1635589599609375
-0.5738983154296875,1.096771240234375,-0.1358795166015625
-0.7016143798828125,0.9683837890625,-0.0352020263671875
-0.748321533203125,0.967437744140625,-0.0773468017578125
-0.698455810546875,1.081451416015625,-0.158050537109375
-0.737823486328125,1.13043212890625,-0.19403076171875
-0.9010009765625,1.13861083984375,-0.3267669677734375
-0.997650146484375,1.0606536865234375,-0.2724456787109375
-1.02508544921875,0.8272705078125,-0.163421630859375
-1.1236724853515625,0.952880859375,-0.081787109375
-0.856689453125,0.98052978515625,-0.04229736328125
-0.865142822265625,1.1425628662109375,-0.2071380615234375
-0.9033355712890624,1.3726043701171875,-0.3242645263671875
-0.7857818603515625,1.38531494140625,-0.3499298095703125
-0.7592926025390625,1.2918243408203125,-0.3085784912109375
-0.7139434814453125,1.346832275390625,-0.1131744384765625
-0.5433807373046875,1.41436767578125,-0.0158843994140625
-0.3359832763671875,1.3206787109375,-0.029937744140625
-0.239105224609375,1.0988006591796875,-0.0025482177734375
-0.1851654052734375,0.9521484375,0.0459442138671875
-0.12493896484375,0.862091064453125,0.07763671875
-0.01922607421875,0.7924041748046875,-0.00482177734375
-0.12139892578125,0.929779052734375,-0.0484619140625
-0.0510711669921875,0.9437103271484376,-0.0675811767578125
-0.347686767578125,0.973236083984375,-0.111602783203125
-0.5538177490234375,1.1646728515625,-0.007659912109375
-0.612457275390625,1.3238372802734375,-0.032379150390625
-0.6496734619140625,1.1726837158203125,-0.164154052734375
-0.6955108642578125,0.944915771484375,-0.213409423828125
-0.759368896484375,0.944488525390625,-0.180084228515625
-0.757965087890625,1.056671142578125,-0.21405029296875
-0.7894287109375,1.0245819091796875,-0.1487274169921875
-0.848785400390625,1.047027587890625,-0.0366058349609375
-0.8991546630859375,1.1563720703125,-0.05267333984375
-0.997039794921875,1.0428924560546875,-0.1851959228515625
-1.021484375,0.8025360107421875,-0.30157470703125
-1.1601104736328125,1.0117645263671875,-0.3797760009765625
-0.883270263671875,1.1267242431640625,-0.2919158935546875
-0.8558349609375,1.1497955322265625,-0.435394287109375
-0.8848114013671875,1.1877593994140625,-0.4739990234375
-0.7650604248046875,1.1380767822265625,-0.43963623046875
-0.66156005859375,1.0276947021484375,-0.409881591796875
-0.6622314453125,1.09722900390625,-0.31005859375
-0.60247802734375,1.26837158203125,-0.22418212890625
-0.4597015380859375,1.328094482421875,-0.2647247314453125
-0.381927490234375,1.3023223876953125,-0.355865478515625
-0.34423828125,1.2092437744140625,-0.337860107421875
-0.3153839111328125,1.096435546875,-0.2848968505859375
-0.1314849853515625,0.9180450439453124,-0.2537689208984375
-0.0888824462890625,0.984710693359375,-0.211578369140625
0.177978515625,0.964447021484375,-0.0572509765625
-0.135498046875,0.922119140625,-0.0294647216796875
-0.406280517578125,1.0576934814453125,0.183929443359375
-0.51983642578125,1.1528778076171875,0.24609375
-0.5966339111328125,1.070648193359375,0.20147705078125
-0.706634521484375,0.9929351806640624,0.197021484375
-0.7831573486328125,1.080047607421875,0.183502197265625
-0.8604278564453125,1.2701873779296875,0.15167236328125
-0.951019287109375,1.1720428466796875,0.15972900390625
-1.0912628173828125,1.0448150634765625,0.2349853515625
-1.1396636962890625,1.021728515625,0.280975341796875
-1.0111846923828125,0.977630615234375,0.24591064453125
-0.8990478515625,0.868499755859375,0.039276123046875
-0.978240966796875,1.0165557861328125,-0.16796875
-0.8221282958984375,0.9782867431640624,-0.1778564453125
-0.9203338623046876,1.1275634765625,-0.21014404296875
-0.9265899658203124,1.2012176513671875,-0.1717987060546875
-0.8026580810546875,1.154052734375,-0.2123260498046875
-0.728424072265625,1.1062164306640625,-0.2490081787109375
-0.7182159423828125,1.1953887939453125,-0.227020263671875
-0.592254638671875,1.271728515625,-0.209442138671875
-0.4893341064453125,1.2599639892578125,-0.221160888671875
-0.3755340576171875,1.233001708984375,-0.205352783203125
-0.260711669921875,1.13775634765625,-0.1734466552734375
-0.12628173828125,1.01483154296875,-0.1353302001953125
-0.0256195068359375,0.8285980224609375,-0.0698089599609375
-0.0889434814453125,0.8690643310546875,0.0674285888671875
-0.1147613525390625,0.858856201171875,0.1408843994140625
-0.334320068359375,0.9642791748046876,0.1101837158203125
-0.6319732666015625,1.2084197998046875,0.1850738525390625
-0.767242431640625,1.3694000244140625,0.1624755859375
-0.7123565673828125,1.177642822265625,0.0394134521484375
-0.73785400390625,0.9893798828125,-0.022979736328125
-0.7876739501953125,0.9745635986328124,-0.025604248046875
-0.7445220947265625,1.022369384765625,0.01788330078125
-0.7728118896484375,1.022064208984375,-0.0494537353515625
-0.8970184326171875,0.98577880859375,-0.10589599609375
-0.989898681640625,1.005523681640625,-0.1421966552734375
-1.0002899169921875,0.879058837890625,-0.0686187744140625
-1.117645263671875,0.7975616455078125,-0.031463623046875
-1.0372314453125,0.920013427734375,0.0173797607421875
-0.9444122314453124,0.953887939453125,-0.02459716796875
-0.9996490478515624,1.0110931396484375,-0.1350555419921875
-1.0644683837890625,1.1236572265625,-0.205078125
-1.054443359375,1.239227294921875,-0.1975555419921875
-1.0409698486328125,1.2252197265625,-0.197662353515625
-0.9823150634765624,1.2346954345703125,-0.245269775390625
-0.879638671875,1.2580718994140625,-0.2949066162109375
-0.6126556396484375,1.1171417236328125,-0.2826080322265625
-0.4784393310546875,0.8448638916015625,-0.1694183349609375
-0.4458160400390625,0.706329345703125,-0.117706298828125
-0.369598388671875,0.6437530517578125,-0.162811279296875
-0.31011962890625,0.6154937744140625,-0.1893463134765625
-0.31097412109375,0.65240478515625,-0.2244873046875
-0.3158416748046875,0.681915283203125,-0.22509765625
-0.408538818359375,0.6583251953125,-0.165496826171875
-0.7009735107421875,0.75048828125,-0.016021728515625
-0.952239990234375,0.976348876953125,-0.0252838134765625
-1.0144500732421875,1.0749053955078125,0.0501861572265625
-1.0804901123046875,0.9343719482421876,0.1774749755859375
-1.17657470703125,0.84954833984375,0.1148834228515625
-1.107208251953125,0.777069091796875,0.1092071533203125
-1.0711517333984375,0.721099853515625,0.1807708740234375
-1.0529937744140625,0.6687469482421875,0.176055908203125
-0.9793701171875,0.6552886962890625,0.126373291015625
-0.92352294921875,0.681976318359375,0.1053466796875
-0.92767333984375,0.78076171875,0.0599822998046875
-0.9688873291015624,0.91094970703125,-0.1268157958984375
-0.840728759765625,0.9527740478515624,-0.46630859375
-0.582061767578125,0.891754150390625,-1.05682373046875
-0.6787261962890625,0.7599639892578125,-0.940155029296875
-0.8171234130859375,0.654205322265625,-0.748626708984375
-0.8646392822265625,0.71539306640625,-0.9595947265625
-0.9027862548828124,0.8062896728515625,-0.8366851806640625
-0.9040374755859376,0.944122314453125,-0.70220947265625
-0.8536529541015625,1.0873260498046875,-0.644195556640625
-0.830047607421875,1.1811370849609375,-0.5238189697265625
-0.767303466796875,1.2479705810546875,-0.5253143310546875
-0.62969970703125,1.26324462890625,-0.5974884033203125
-0.4874114990234375,1.2438507080078125,-0.559783935546875
-0.3419189453125,1.1208648681640625,-0.523223876953125
-0.3102569580078125,1.10040283203125,-0.2755279541015625
0.016387939453125,0.9619140625,-0.104461669921875
0.1598968505859375,1.064971923828125,0.3623809814453125
0.045440673828125,1.07177734375,0.4961395263671875
-0.4335479736328125,1.1373291015625,-0.0662078857421875
-0.4735870361328125,1.134124755859375,0.0504608154296875
-0.5553741455078125,1.0504608154296875,0.22674560546875
-0.692413330078125,0.9721221923828124,0.2958221435546875
-0.7129364013671875,0.947357177734375,0.1551971435546875
-0.7470245361328125,1.0184478759765625,-0.0384674072265625
-0.7833251953125,1.0424957275390625,0.0169677734375
-0.8759002685546875,1.0133514404296875,0.142303466796875
-0.977264404296875,1.028411865234375,-0.03131103515625
-1.0047760009765625,0.9537811279296876,-0.08221435546875
-0.994873046875,0.8255767822265625,-0.1793975830078125
-0.991546630859375,0.7590179443359375,-0.33978271484375
-0.97930908203125,0.6923828125,-0.3076171875
-1.09405517578125,0.9201202392578124,-0.100189208984375
-1.1375274658203125,1.3349609375,-0.1881561279296875
-0.97216796875,1.39990234375,-0.4183807373046875
-0.8507232666015625,1.2421875,-0.4342498779296875
-0.794189453125,1.25628662109375,-0.235321044921875
-0.7162933349609375,1.4024658203125,-0.14044189453125
-0.5504302978515625,1.43792724609375,-0.2288665771484375
-0.410736083984375,1.3202056884765625,-0.2675323486328125
-0.3697967529296875,1.2474365234375,-0.1982421875
-0.2462615966796875,1.1287078857421875,-0.071624755859375
0.095794677734375,0.9394989013671876,0.148193359375
0.215850830078125,0.787322998046875,0.1986541748046875
-0.0060577392578125,0.8322601318359375,0.132659912109375
-0.3079833984375,0.9965362548828124,-0.0666351318359375
-0.488311767578125,1.332794189453125,-0.057861328125
-0.655059814453125,1.4307861328125,-0.1072998046875
-0.76092529296875,1.1590576171875,-0.038330078125
-0.81427001953125,0.9521331787109376,0.0596771240234375
-0.791961669921875,0.9822845458984376,0.0207061767578125
-0.7751922607421875,1.095611572265625,-0.096405029296875
-0.799774169921875,1.0824127197265625,-0.2488555908203125
-0.9134979248046876,1.065673828125,-0.2879638671875
-1.012481689453125,1.0700836181640625,-0.242462158203125
-0.9302215576171876,0.95660400390625,-0.1647796630859375
-0.8729095458984375,0.80230712890625,-0.129302978515625
-0.9155731201171876,0.9366302490234376,-0.122467041015625
-0.746795654296875,0.8498077392578125,-0.1062164306640625
-0.880401611328125,0.9170684814453124,-0.216644287109375
-0.93280029296875,0.990203857421875,-0.1643524169921875
-0.86083984375,1.0725250244140625,-0.252532958984375
-0.844482421875,1.14422607421875,-0.3207550048828125
-1.0007476806640625,1.365081787109375,-0.1337738037109375
-0.8490753173828125,1.59454345703125,0.037017822265625
-0.56524658203125,1.5443572998046875,0.0613861083984375
-0.4050750732421875,1.3304443359375,0.034393310546875
-0.20220947265625,1.133758544921875,0.1839141845703125
0.0297698974609375,0.9285888671875,0.3606719970703125
-0.0087738037109375,0.83062744140625,0.178741455078125
-0.045440673828125,1.005706787109375,0.0829620361328125
-0.2620086669921875,1.0067138671875,-0.150787353515625
-0.4540863037109375,0.9960174560546876,-0.0529327392578125
-0.4984893798828125,1.0416107177734375,-0.0611114501953125
-0.445831298828125,0.9386749267578124,-0.1602630615234375
-0.46697998046875,0.85205078125,-0.2331390380859375
-0.50372314453125,0.8622894287109375,-0.1640777587890625
-0.5627288818359375,1.0205535888671875,-0.1344451904296875
-0.67681884765625,1.14483642578125,-0.277587890625
-0.830841064453125,1.2710723876953125,-0.3734893798828125
-1.13909912109375,1.2936553955078125,-0.2714080810546875
-1.47869873046875,1.1743621826171875,-0.1771240234375
-1.4144744873046875,0.8894805908203125,-0.25286865234375
-1.2544708251953125,0.74261474609375,-0.2452850341796875
-1.070037841796875,0.8336029052734375,-0.1640167236328125
-0.95843505859375,0.831634521484375,-0.2629241943359375
-0.926055908203125,0.96173095703125,-0.400299072265625
-0.9327545166015624,1.2261199951171875,-0.461273193359375
-0.6867828369140625,1.281402587890625,-0.44708251953125
-0.686309814453125,1.22991943359375,-0.41473388671875
-0.7088470458984375,1.3028717041015625,-0.224517822265625
-0.5422821044921875,1.30462646484375,-0.0237884521484375
-0.364410400390625,1.189483642578125,-0.0552978515625
-0.23516845703125,1.0408935546875,-0.0607757568359375
-0.0848388671875,0.9251708984375,0.0534820556640625
0.1291046142578125,0.8793792724609375,0.208160400390625
0.1819305419921875,0.797027587890625,0.1028289794921875
-0.12396240234375,0.9066162109375,0.033355712890625
-0.2786865234375,0.8962249755859375,-0.007354736328125
-0.573822021484375,1.1422119140625,0.072723388671875
-0.68463134765625,1.4310760498046875,0.05419921875
-0.6148223876953125,1.354095458984375,-0.1678314208984375
-0.672698974609375,1.07421875,-0.2277984619140625
-0.78558349609375,0.942657470703125,-0.1504058837890625
-0.80145263671875,1.03350830078125,-0.06488037109375
-0.7262420654296875,1.1048736572265625,-0.0907135009765625
-0.8082275390625,1.1068572998046875,-0.2435302734375
-0.9741973876953124,1.122711181640625,-0.2592010498046875
-1.10498046875,0.9954681396484376,-0.167083740234375
-1.1659698486328125,0.8346405029296875,-0.153411865234375
-1.162750244140625,0.9913787841796876,-0.083526611328125
-0.8402099609375,0.99169921875,-0.1243896484375
-0.869354248046875,1.0319671630859375,-0.2284088134765625
-0.9027099609375,1.284393310546875,-0.22845458984375
-0.869476318359375,1.42437744140625,-0.30181884765625
-0.748687744140625,1.36871337890625,-0.34478759765625
-0.6940460205078125,1.3427734375,-0.360076904296875
-0.6086578369140625,1.3516998291015625,-0.2772674560546875
-0.4254913330078125,1.2836456298828125,-0.1984405517578125
-0.3050994873046875,1.196075439453125,-0.2145233154296875
-0.1783294677734375,1.1204376220703125,-0.17840576171875
-0.039764404296875,1.0175018310546875,-0.0716552734375
0.0832672119140625,0.8731536865234375,0.04620361328125
-0.069732666015625,0.8767547607421875,0.040985107421875
-0.1311492919921875,0.819580078125,-0.0597686767578125
-0.4333953857421875,0.963165283203125,-0.0645751953125
-0.59686279296875,1.24652099609375,0.0612945556640625
-0.6170806884765625,1.42449951171875,-0.0451812744140625
-0.64581298828125,1.1817169189453125,-0.1982269287109375
-0.7286834716796875,0.9340667724609376,-0.1938018798828125
-0.75067138671875,0.891448974609375,-0.113006591796875
-0.729248046875,0.986907958984375,-0.119598388671875
-0.728912353515625,1.0845794677734375,-0.1784515380859375
-0.8060150146484375,1.1626434326171875,-0.3228302001953125
-0.939849853515625,1.174285888671875,-0.3578338623046875
-0.98785400390625,0.9388275146484376,-0.2564849853515625
-1.0646209716796875,0.730865478515625,-0.202117919921875
-1.0552520751953125,0.8677825927734375,-0.114349365234375
-0.9058074951171876,0.9839630126953124,-0.0855712890625
-0.9845428466796876,1.1864013671875,-0.2530517578125
-1.038055419921875,1.3462371826171875,-0.35491943359375
-0.8778533935546875,1.3945159912109375,-0.360198974609375
-0.864227294921875,1.502471923828125,-0.368896484375
-0.7089691162109375,1.5922088623046875,-0.2531890869140625
-0.4954681396484375,1.4329986572265625,-0.108612060546875
-0.318023681640625,1.1302490234375,0.0655517578125
-0.150177001953125,0.987701416015625,0.3922882080078125
-0.00079345703125,1.0481109619140625,0.420379638671875
0.0051116943359375,0.9642486572265624,0.0623931884765625
-0.0437469482421875,0.80596923828125,-0.0848388671875
-0.1943206787109375,0.9880218505859376,-0.04412841796875
-0.3047027587890625,1.1889190673828125,-0.187835693359375
-0.5260467529296875,1.3116607666015625,-0.2572479248046875
-0.71337890625,1.3105926513671875,-0.192962646484375
-0.6971435546875,1.1376800537109375,-0.2341156005859375
-0.6560516357421875,0.9765472412109376,-0.321075439453125
-0.680389404296875,0.834228515625,-0.2299041748046875
-0.685760498046875,0.7843170166015625,-0.212615966796875
-0.7034759521484375,0.913360595703125,-0.3255767822265625
-0.8701324462890625,1.2211151123046875,-0.55889892578125
-0.9694976806640624,1.365203857421875,-0.5978240966796875
-1.05712890625,1.28472900390625,-0.701690673828125
-1.0870208740234375,0.9109039306640624,-0.729156494140625
-1.275970458984375,0.7910919189453125,-0.6638336181640625
-1.1032257080078125,0.5964813232421875,-0.3764190673828125
-1.03680419921875,0.8126373291015625,-0.208343505859375
-0.9385223388671876,1.0485076904296875,-0.1528167724609375
-0.7914276123046875,1.179443359375,-0.33050537109375
-0.7345428466796875,1.1833038330078125,-0.4358367919921875
-0.70635986328125,1.2014007568359375,-0.33477783203125
-0.6275634765625,1.2469329833984375,-0.170135498046875
-0.4419097900390625,1.2076263427734375,-0.155609130859375
-0.3438262939453125,1.113250732421875,-0.1018524169921875
-0.2330474853515625,1.0554962158203125,-0.0830841064453125
-0.0513763427734375,1.0322265625,0.0941009521484375
0.2437286376953125,0.964996337890625,0.1627197265625
0.104522705078125,0.8328094482421875,-0.037353515625
-0.26483154296875,0.9529266357421876,0.0465545654296875
-0.4882965087890625,1.221649169921875,0.02001953125
-0.6237945556640625,1.4945526123046875,-0.0589447021484375
-0.733001708984375,1.483123779296875,-0.1208648681640625
-0.74127197265625,1.165863037109375,-0.139251708984375
-0.8152923583984375,0.9554290771484376,-0.130950927734375
-0.8083038330078125,0.93731689453125,-0.1039276123046875
-0.7332000732421875,1.0122833251953125,-0.090911865234375
-0.739532470703125,1.0712738037109375,-0.1953125
-0.8658905029296875,1.11322021484375,-0.3252410888671875
-1.0129241943359375,1.07220458984375,-0.3003692626953125
-1.0703582763671875,0.8542022705078125,-0.255340576171875
-1.1641082763671875,0.811614990234375,-0.1204071044921875
-0.96771240234375,1.0013885498046875,-0.0894012451171875
-0.758087158203125,1.0264892578125,-0.14208984375
-0.7850341796875,1.12103271484375,-0.288726806640625
-0.845184326171875,1.3042449951171875,-0.2824249267578125
-0.7906036376953125,1.37548828125,-0.2740631103515625
-0.72515869140625,1.3984527587890625,-0.31622314453125
-0.6386566162109375,1.4266357421875,-0.3606719970703125
-0.4483184814453125,1.323150634765625,-0.3344268798828125
-0.2024078369140625,1.10821533203125,-0.259429931640625
-0.1579437255859375,0.882568359375,-0.2334442138671875
-0.168060302734375,0.8331756591796875,-0.194122314453125
-0.1305694580078125,0.7678070068359375,-0.2059173583984375
-0.209320068359375,0.7180328369140625,-0.1742401123046875
-0.263824462890625,0.768829345703125,-0.0510406494140625
-0.1627197265625,0.8302764892578125,-0.0059356689453125
-0.220184326171875,0.8500518798828125,-0.0609893798828125
-0.4737701416015625,0.979766845703125,-0.0092315673828125
-0.614410400390625,1.2308807373046875,-0.004974365234375
-0.6624603271484375,1.3020172119140625,0.0
-0.829193115234375,1.105072021484375,0.11883544921875
-0.92889404296875,1.0345458984375,0.1828460693359375
-0.8901824951171875,1.0491180419921875,0.1591949462890625
-0.8391571044921875,0.9537200927734376,0.174163818359375
-0.9110565185546876,0.8993377685546875,0.1910247802734375
-0.9258270263671876,0.7978363037109375,0.2177276611328125
-0.8782196044921875,0.69256591796875,0.1408843994140625
-0.8395233154296875,0.763397216796875,0.02978515625
-0.818115234375,0.9674530029296876,-0.079803466796875
-0.7534332275390625,1.1696014404296875,-0.2241973876953125
-0.6205596923828125,1.1188201904296875,-0.3427276611328125
-0.4995574951171875,0.9509429931640624,-0.4224853515625
-0.373046875,0.849853515625,-0.4504547119140625
-0.300933837890625,0.88812255859375,-0.659515380859375
-0.289703369140625,0.978271484375,-0.6821746826171875
-0.4307098388671875,1.021026611328125,-0.8323974609375
-0.6125335693359375,0.9759368896484376,-0.846405029296875
-0.6596832275390625,0.8435821533203125,-0.667449951171875
-0.639556884765625,0.82244873046875,-0.653839111328125
-0.634765625,0.9227142333984376,-0.5908660888671875
-0.652069091796875,1.053558349609375,-0.4962921142578125
-0.643310546875,1.185089111328125,-0.4432373046875
-0.5884552001953125,1.2996673583984375,-0.5002593994140625
-0.4922332763671875,1.296112060546875,-0.490692138671875
-0.3728179931640625,1.2143402099609375,-0.4146270751953125
-0.2776641845703125,1.2672576904296875,-0.3466949462890625
0.26214599609375,1.0838470458984375,-0.1768951416015625
0.3694915771484375,1.1458282470703125,-0.010101318359375
-0.04376220703125,0.9885101318359376,-0.0699615478515625
-0.19073486328125,1.1227569580078125,-0.005615234375
0.0064239501953125,1.2142333984375,-0.1027069091796875
-0.18267822265625,1.1149444580078125,0.0496978759765625
-0.5055694580078125,1.07586669921875,0.2271270751953125
-0.6917266845703125,1.035552978515625,0.3331451416015625
-0.7724456787109375,1.052032470703125,0.293914794921875
-0.772979736328125,1.023162841796875,0.1935272216796875
-0.828643798828125,1.020111083984375,0.063323974609375
-0.8674774169921875,1.0381622314453125,-0.019500732421875
-0.80938720703125,1.016082763671875,-0.0349884033203125
-0.7342529296875,0.9363861083984376,-0.1576995849609375
-0.793304443359375,1.0011749267578125,-0.321258544921875
-0.7884521484375,1.0456390380859375,-0.401397705078125
-0.708740234375,0.8754119873046875,-0.3460845947265625
-0.7920989990234375,0.996612548828125,-0.3957672119140625
-0.783660888671875,1.176177978515625,-0.439056396484375
-0.639373779296875,1.06884765625,-0.454681396484375
-0.62841796875,0.9312896728515624,-0.485137939453125
-0.65179443359375,0.98175048828125,-0.3701019287109375
-0.6235809326171875,1.10821533203125,-0.26312255859375
-0.565338134765625,1.2079925537109375,-0.2789154052734375
-0.484100341796875,1.138763427734375,-0.3604583740234375
-0.3798828125,1.0037994384765625,-0.3886566162109375
-0.389129638671875,0.940338134765625,-0.292816162109375
-0.244476318359375,0.8067779541015625,-0.2271575927734375
-0.09490966796875,0.663848876953125,-0.2391357421875
-0.122894287109375,0.6820526123046875,-0.26361083984375
-0.535125732421875,0.845672607421875,-0.2201080322265625
-1.2732086181640625,0.997039794921875,-0.4228668212890625
-1.302459716796875,0.807769775390625,-0.355621337890625
-1.2565460205078125,0.4219207763671875,-0.0464935302734375
-1.614776611328125,0.33184814453125,-0.4210357666015625
-1.62225341796875,0.4599151611328125,-0.5935516357421875
-1.3587646484375,0.6487274169921875,-1.056854248046875
-1.231292724609375,0.787872314453125,-1.0361328125
-1.0938873291015625,0.8881683349609375,-1.1519927978515625
-1.046356201171875,0.985748291015625,-1.2239532470703125
-1.064422607421875,1.0711669921875,-1.38690185546875
-1.0081634521484375,1.341705322265625,-1.6228179931640625
-0.5750885009765625,1.1490325927734375,-1.1719818115234375
-0.3765869140625,0.9261932373046876,-1.292022705078125
-0.36883544921875,0.8702545166015625,-0.8920745849609375
0.1207275390625,0.5306549072265625,-0.311676025390625
0.1307525634765625,0.1555023193359375,-0.2613677978515625
-0.180511474609375,0.021881103515625,-0.30072021484375
-0.1942596435546875,0.039276123046875,-0.750396728515625
-0.0245361328125,0.024932861328125,-0.7167816162109375
0.147430419921875,-0.143310546875,-0.616973876953125
0.141998291015625,-0.2074127197265625,-0.901763916015625
0.1423492431640625,-0.3967742919921875,-0.6334228515625
0.0873565673828125,-0.4886474609375,-0.3511199951171875
0.1015472412109375,-0.669097900390625,-0.520416259765625
0.102142333984375,-0.63641357421875,-0.6023712158203125
0.066741943359375,-0.59283447265625,-0.56005859375
0.165008544921875,-0.5197601318359375,-0.3568572998046875
-0.137908935546875,-0.44317626953125,-0.3879852294921875
0.0264129638671875,-0.566925048828125,-0.6270751953125
0.13726806640625,-0.534393310546875,-0.3506927490234375
0.0754241943359375,-0.642059326171875,-0.28814697265625
-0.0634002685546875,-0.6126708984375,-0.2323760986328125
-0.023040771484375,-0.539215087890625,-0.2047119140625
0.114898681640625,-0.32025146484375,-0.1160736083984375
0.0196685791015625,-0.09454345703125,0.2188720703125
0.264862060546875,0.58648681640625,0.442779541015625
0.2173004150390625,1.4049530029296875,0.7303466796875
-0.0331268310546875,2.3510894775390625,1.3044281005859375
-0.693267822265625,2.065902709960937,1.548126220703125
0.383636474609375,0.475982666015625,-0.193939208984375
0.2963104248046875,0.0740814208984375,-0.0266876220703125
0.3035888671875,0.1501922607421875,0.016387939453125
-7.874176025390625,0.2608489990234375,-6.1715240478515625
0.9846343994140624,0.2962646484375,0.4029693603515625
0.75738525390625,0.010040283203125,0.0959930419921875
0.6452178955078125,-0.0279388427734375,0.0509185791015625
0.609100341796875,-0.077423095703125,0.055572509765625
0.5928192138671875,-0.10443115234375,0.0767364501953125
-0.068450927734375,0.3911895751953125,1.43084716796875
-0.619873046875,0.254119873046875,1.3757781982421875
0.1675262451171875,-0.3497314453125,0.91009521484375
0.1925506591796875,-0.0027923583984375,0.8397064208984375
0.1810150146484375,-0.0422515869140625,1.1656341552734375
0.1793975830078125,-0.03271484375,1.017730712890625
0.1356658935546875,-0.036285400390625,0.9915924072265624
0.1154632568359375,-0.0331878662109375,1.0123443603515625
0.117034912109375,-0.026824951171875,1.0107879638671875
0.124176025390625,-0.044891357421875,0.9988555908203124
0.1137237548828125,-0.0286407470703125,1.0014801025390625
0.11859130859375,-0.04632568359375,1.0004425048828125
0.1017608642578125,-0.0354156494140625,1.0112762451171875
0.1087799072265625,-0.04217529296875,1.0052947998046875
0.1103973388671875,-0.0411834716796875,1.000701904296875
0.1365966796875,-0.0136566162109375,1.0219879150390625
-0.0190277099609375,-0.10577392578125,1.049072265625
0.005126953125,-0.0027313232421875,1.0051116943359375
0.116790771484375,-0.365203857421875,1.210540771484375
-0.0242156982421875,0.1827545166015625,1.4538116455078125
-0.3646087646484375,0.0918426513671875,1.601348876953125
-0.0860137939453125,-0.0536956787109375,0.9142913818359376
-0.3029022216796875,0.248321533203125,0.4971771240234375
0.0062408447265625,0.246490478515625,-0.107147216796875
0.5041961669921875,0.13336181640625,-0.7503204345703125
-0.27642822265625,0.5465240478515625,-1.7867889404296875
-0.44805908203125,0.27471923828125,-1.1517333984375
-0.4029693603515625,0.0840606689453125,-0.8180084228515625
-0.2331390380859375,0.042877197265625,-1.138671875
-0.2835845947265625,0.1180877685546875,-0.8886260986328125
-0.334564208984375,0.0868072509765625,-0.9415283203125
-0.3245697021484375,0.116668701171875,-0.9320526123046876
-0.2990570068359375,0.124969482421875,-0.9563751220703124
-0.2545318603515625,0.1040802001953125,-0.962249755859375
-0.2591552734375,0.113311767578125,-0.944610595703125
-0.2309722900390625,0.089019775390625,-0.9642486572265624
-0.2551727294921875,0.043182373046875,-0.9642486572265624
-0.2462615966796875,0.0836639404296875,-1.00750732421875
-0.2052001953125,0.1401824951171875,-1.1415557861328125
