AccelerationX,AccelerationY,AccelerationZ
-0.2402801513671875,0.6547698974609375,-0.7675933837890625
-0.26470947265625,0.6265411376953125,-0.6807708740234375
-0.2976226806640625,0.6165618896484375,-0.6878662109375
-0.3197174072265625,0.6157073974609375,-0.6866455078125
-0.30633544921875,0.6328582763671875,-0.692413330078125
-0.2998504638671875,0.6096038818359375,-0.6785736083984375
-0.278564453125,0.63818359375,-0.74664306640625
-0.2602386474609375,0.646942138671875,-0.6961212158203125
-0.25531005859375,0.6253204345703125,-0.7388763427734375
-0.2999267578125,0.6416473388671875,-0.6793670654296875
-0.28558349609375,0.6526336669921875,-0.657623291015625
-0.267852783203125,0.651092529296875,-0.716156005859375
-0.2479705810546875,0.665863037109375,-0.705718994140625
-0.2397308349609375,0.6524810791015625,-0.718017578125
-0.2637481689453125,0.6442718505859375,-0.685455322265625
-0.2669677734375,0.649932861328125,-0.7027740478515625
-0.2240447998046875,0.6635284423828125,-0.721282958984375
-0.2039642333984375,0.645660400390625,-0.7537384033203125
-0.223541259765625,0.635345458984375,-0.746917724609375
-0.247528076171875,0.645355224609375,-0.7219390869140625
-0.2414093017578125,0.6415863037109375,-0.7022247314453125
-0.2322845458984375,0.6400604248046875,-0.725677490234375
-0.2124176025390625,0.655731201171875,-0.765960693359375
-0.1751556396484375,0.63653564453125,-0.710174560546875
-0.1945648193359375,0.6259918212890625,-0.72357177734375
-0.23583984375,0.610687255859375,-0.716583251953125
-0.223052978515625,0.62371826171875,-0.7405853271484375
-0.210540771484375,0.6269378662109375,-0.7588958740234375
-0.216949462890625,0.6275634765625,-0.7461700439453125
-0.1812591552734375,0.630279541015625,-0.710052490234375
-0.1656951904296875,0.6590728759765625,-0.7645263671875
-0.2039337158203125,0.657806396484375,-0.752899169921875
-0.225830078125,0.624786376953125,-0.7493743896484375
-0.238861083984375,0.6063232421875,-0.7347412109375
-0.2359161376953125,0.5640716552734375,-0.7401123046875
-0.1956787109375,0.5491790771484375,-0.671295166015625
-0.202667236328125,0.5884246826171875,-0.6738433837890625
-0.2156829833984375,0.695770263671875,-0.715240478515625
-0.300445556640625,0.8135986328125,-0.8061981201171875
-0.343536376953125,0.7223968505859375,-0.6033477783203125
-0.2179718017578125,0.6278839111328125,-0.3904571533203125
-0.176177978515625,0.58551025390625,-0.67425537109375
-0.364837646484375,0.683868408203125,-0.5556488037109375
-0.46820068359375,0.8494110107421875,-0.6074371337890625
-0.451324462890625,0.7786407470703125,-0.7001495361328125
-0.4756317138671875,0.6129302978515625,-0.666778564453125
-0.5175628662109375,0.619354248046875,-0.55096435546875
-0.5706939697265625,0.6747894287109375,-0.3607940673828125
-0.692901611328125,0.6784515380859375,-0.381195068359375
-0.69427490234375,0.665435791015625,-0.2382354736328125
-0.707763671875,0.718505859375,-0.1902618408203125
-0.77105712890625,0.715545654296875,-0.1239471435546875
-0.715545654296875,0.74639892578125,-0.09222412109375
-0.7339324951171875,0.680694580078125,-0.1751556396484375
-0.685302734375,0.720916748046875,-0.2395782470703125
-0.7279815673828125,0.7909393310546875,-0.1513824462890625
-0.739776611328125,0.874420166015625,-0.2740325927734375
-0.6878814697265625,0.7608489990234375,-0.3688812255859375
-0.609832763671875,0.7791900634765625,-0.362548828125
-0.5162506103515625,0.8905029296875,-0.3380126953125
-0.5530853271484375,0.9364166259765624,-0.3412322998046875
-0.5271148681640625,0.822418212890625,-0.2895660400390625
-0.4735870361328125,0.7098541259765625,-0.0973663330078125
-0.4973297119140625,0.7331390380859375,-0.1988983154296875
-0.445037841796875,0.766571044921875,-0.2066497802734375
-0.4487152099609375,0.72052001953125,-0.022430419921875
-0.4640655517578125,0.7189788818359375,0.019866943359375
-0.5003509521484375,0.7555694580078125,0.0366363525390625
-0.530670166015625,0.8868408203125,0.0810394287109375
-0.557769775390625,0.898406982421875,0.0402069091796875
-0.5820770263671875,0.92333984375,-0.0343475341796875
-0.631744384765625,1.0355377197265625,-0.0893402099609375
-0.6163330078125,0.949951171875,-0.15252685546875
-0.6796875,0.7210540771484375,-0.0314483642578125
-0.747894287109375,0.68939208984375,0.0601654052734375
-0.7225189208984375,0.830078125,-0.0160369873046875
-0.6380767822265625,0.8156890869140625,-0.0689849853515625
-0.6561279296875,0.7090606689453125,-0.0527496337890625
-0.625274658203125,0.7499847412109375,-0.021636962890625
-0.561309814453125,0.727783203125,0.048797607421875
-0.5393829345703125,0.69952392578125,0.127593994140625
-0.58062744140625,0.751251220703125,0.0979766845703125
-0.639373779296875,0.8116912841796875,0.0537567138671875
-0.7288360595703125,0.8939971923828125,-0.0399322509765625
-0.7097320556640625,0.9166107177734376,-0.0927886962890625
-0.6983489990234375,0.94781494140625,-0.0657806396484375
-0.7771759033203125,1.1363677978515625,-0.0059661865234375
-0.685211181640625,0.9696197509765624,-0.081939697265625
-0.7785491943359375,0.826873779296875,-0.0079345703125
-0.7373809814453125,0.984405517578125,0.0130767822265625
-0.537689208984375,1.0394134521484375,-0.0400390625
-0.40643310546875,0.833953857421875,-0.031097412109375
-0.4081573486328125,0.71820068359375,-0.00384521484375
-0.340667724609375,0.681396484375,-0.0198211669921875
-0.265228271484375,0.694854736328125,0.01727294921875
-0.2581329345703125,0.6802825927734375,0.092926025390625
-0.37451171875,0.7001953125,0.1229248046875
-0.49859619140625,0.7860565185546875,0.14373779296875
-0.569671630859375,0.8921356201171875,0.09918212890625
-0.6026763916015625,0.9144287109375,0.0138397216796875
-0.7347412109375,0.9703521728515624,0.02716064453125
-0.7538909912109375,1.1304779052734375,0.022735595703125
-0.65667724609375,0.821441650390625,-0.1402740478515625
-0.809173583984375,0.6897735595703125,-0.0490570068359375
-0.837860107421875,0.767578125,-0.017303466796875
-0.817901611328125,0.7499847412109375,-0.01153564453125
-0.77923583984375,0.684051513671875,-0.1188812255859375
-0.697174072265625,0.7168731689453125,-0.2131805419921875
-0.588897705078125,0.76123046875,-0.174102783203125
-0.5761566162109375,0.7258148193359375,-0.1293182373046875
-0.6044921875,0.75238037109375,-0.058074951171875
-0.656951904296875,0.8037567138671875,-0.0366363525390625
-0.704681396484375,0.8304290771484375,-0.079345703125
-0.700592041015625,0.8593902587890625,-0.1040496826171875
-0.65557861328125,0.896270751953125,-0.1084747314453125
-0.6768951416015625,1.0599517822265625,-0.1034088134765625
-0.641082763671875,1.0292510986328125,-0.280120849609375
-0.66412353515625,0.9204254150390624,-0.294708251953125
-0.6049652099609375,0.9909515380859376,-0.22247314453125
-0.5153961181640625,0.9973297119140624,-0.18310546875
-0.4584197998046875,0.808258056640625,-0.1939697265625
-0.4610443115234375,0.7201080322265625,-0.1770172119140625
-0.4363555908203125,0.7334442138671875,-0.094482421875
-0.4041900634765625,0.7928314208984375,-0.043182373046875
-0.3858642578125,0.8473663330078125,-0.066497802734375
-0.3588714599609375,0.9014739990234376,0.0089263916015625
-0.3554840087890625,0.970672607421875,0.0799102783203125
-0.404815673828125,0.97900390625,0.01837158203125
-0.503814697265625,0.9389190673828124,-0.0411834716796875
-0.5907745361328125,1.122711181640625,0.100860595703125
-0.4074554443359375,0.8160552978515625,0.022216796875
-0.53466796875,0.7565155029296875,0.02557373046875
-0.591278076171875,0.8463134765625,0.043670654296875
-0.59234619140625,0.86981201171875,0.035369873046875
-0.6087188720703125,0.78363037109375,0.00274658203125
-0.6190185546875,0.7241668701171875,0.015045166015625
-0.6324310302734375,0.7191925048828125,-0.0112762451171875
-0.611785888671875,0.727783203125,-0.0105133056640625
-0.6661376953125,0.737060546875,0.0113677978515625
-0.70050048828125,0.811920166015625,0.0416717529296875
-0.7571868896484375,0.8305511474609375,-0.0135650634765625
-0.756317138671875,0.811126708984375,0.014068603515625
-0.7575225830078125,0.862335205078125,-0.0162353515625
-0.7683563232421875,1.168060302734375,-0.067108154296875
-0.6096343994140625,0.99578857421875,-0.110809326171875
-0.701263427734375,0.8123931884765625,-0.0703582763671875
-0.6901397705078125,0.867828369140625,-0.118804931640625
-0.546539306640625,0.9690399169921876,-0.1226959228515625
-0.4769287109375,0.886016845703125,-0.0626983642578125
-0.5382537841796875,0.756866455078125,0.0010223388671875
-0.51031494140625,0.720062255859375,-0.0334625244140625
-0.422760009765625,0.736602783203125,-0.0318450927734375
-0.4075775146484375,0.7313690185546875,-0.01995849609375
-0.42535400390625,0.7143096923828125,0.0226287841796875
-0.4561767578125,0.7587738037109375,-0.0118865966796875
-0.4971923828125,0.8363494873046875,-0.005462646484375
-0.537322998046875,0.856964111328125,0.03765869140625
-0.6410064697265625,0.8432769775390625,0.0213165283203125
-0.5987701416015625,1.038055419921875,0.03558349609375
-0.500762939453125,0.8332366943359375,-0.106689453125
-0.6336669921875,0.7020721435546875,-0.0931396484375
-0.7119140625,0.8245391845703125,0.0181884765625
-0.648651123046875,0.8565673828125,0.0684356689453125
-0.596099853515625,0.739288330078125,0.02099609375
-0.573699951171875,0.6667938232421875,-0.0021820068359375
-0.5461273193359375,0.671844482421875,0.041595458984375
-0.53961181640625,0.7181396484375,0.0316619873046875
-0.612518310546875,0.75665283203125,0.00567626953125
-0.6678314208984375,0.797882080078125,0.005828857421875
-0.72393798828125,0.8250732421875,0.0010223388671875
-0.762451171875,0.85076904296875,-0.017547607421875
-0.750457763671875,0.8441314697265625,-0.0498046875
-0.776153564453125,1.00482177734375,-0.0162200927734375
-0.715911865234375,1.1063995361328125,-0.07891845703125
-0.683074951171875,0.905853271484375,-0.1099700927734375
-0.72991943359375,0.7763824462890625,-0.085174560546875
-0.6630859375,0.844970703125,-0.1154632568359375
-0.5545654296875,0.938385009765625,-0.071807861328125
-0.48626708984375,0.8408355712890625,-0.0362396240234375
-0.4936676025390625,0.7376251220703125,-0.0400238037109375
-0.4484100341796875,0.71282958984375,-0.0487213134765625
-0.391815185546875,0.718780517578125,-0.0158843994140625
-0.3624420166015625,0.7085418701171875,0.0079345703125
-0.3846435546875,0.7151336669921875,0.0483551025390625
-0.4274444580078125,0.7761077880859375,0.0067901611328125
-0.4589691162109375,0.927947998046875,-0.0118865966796875
-0.4814605712890625,0.9198760986328124,-0.0401763916015625
-0.66571044921875,0.9238739013671876,-0.0647430419921875
-0.6603546142578125,0.9999847412109376,-0.0754852294921875
-0.5730743408203125,0.8360443115234375,-0.16717529296875
-0.714752197265625,0.750701904296875,-0.0847930908203125
-0.7310943603515625,0.8172149658203125,-0.0498046875
-0.7286529541015625,0.79864501953125,-0.08258056640625
-0.7175445556640625,0.6666412353515625,-0.072906494140625
-0.722991943359375,0.6347198486328125,-0.0065155029296875
-0.6144866943359375,0.685699462890625,0.0224609375
-0.5228729248046875,0.6930694580078125,0.0222930908203125
-0.5654754638671875,0.71875,-0.035552978515625
-0.6915130615234375,0.7619171142578125,-0.069366455078125
-0.7947845458984375,0.85546875,-0.0483245849609375
-0.807952880859375,0.871002197265625,-0.0810394287109375
-0.8231964111328125,0.81719970703125,-0.082611083984375
-0.8962860107421875,1.0043182373046875,-0.10296630859375
-0.76904296875,1.01513671875,-0.1567535400390625
-0.6536712646484375,0.8113250732421875,-0.1432952880859375
-0.6728668212890625,0.8606109619140625,-0.1619873046875
-0.5794830322265625,0.95623779296875,-0.221588134765625
-0.4317474365234375,0.7966156005859375,-0.257781982421875
-0.4876708984375,0.6436767578125,-0.19921875
-0.5130615234375,0.6248321533203125,-0.1046142578125
-0.4314422607421875,0.710235595703125,-0.098724365234375
-0.3703460693359375,0.7802886962890625,-0.0650634765625
-0.3484344482421875,0.8612823486328125,0.0537109375
-0.3843536376953125,0.9860992431640624,0.0936737060546875
-0.417144775390625,0.997161865234375,0.0216217041015625
-0.546234130859375,0.9802093505859376,0.08184814453125
-0.4987030029296875,1.0488128662109375,0.163665771484375
-0.469482421875,0.7942657470703125,0.09765625
-0.696075439453125,0.7625274658203125,0.1626129150390625
-0.678253173828125,0.9511260986328124,0.1952667236328125
-0.625946044921875,0.96051025390625,0.0760040283203125
-0.6963043212890625,0.7515869140625,-0.0181732177734375
-0.723724365234375,0.6525726318359375,-0.0779876708984375
-0.6945037841796875,0.6699981689453125,-0.1210479736328125
-0.6367340087890625,0.7105712890625,-0.040618896484375
-0.68621826171875,0.743621826171875,-0.0185089111328125
-0.739013671875,0.7827911376953125,-0.0084991455078125
-0.757659912109375,0.8253631591796875,-0.04937744140625
-0.7365875244140625,0.8814697265625,-0.080322265625
-0.6951141357421875,0.8545989990234375,-0.0701141357421875
-0.7552490234375,0.9532318115234376,-0.052642822265625
-0.7189788818359375,1.0894775390625,-0.1135711669921875
-0.6657257080078125,0.8903961181640625,-0.0707244873046875
-0.74578857421875,0.9371185302734376,0.0116729736328125
-0.6949920654296875,1.007904052734375,-0.035980224609375
-0.5601043701171875,0.9234161376953124,-0.0722503662109375
-0.5484161376953125,0.82122802734375,-0.0309295654296875
-0.5395355224609375,0.8185882568359375,-0.0066375732421875
-0.4629669189453125,0.82525634765625,-0.03485107421875
-0.3797454833984375,0.79083251953125,-0.0171051025390625
-0.357818603515625,0.755035400390625,0.0362701416015625
-0.3435516357421875,0.7827911376953125,0.0413818359375
-0.33538818359375,0.8610382080078125,0.01104736328125
-0.3221282958984375,0.832977294921875,0.0366058349609375
-0.512542724609375,0.9349365234375,0.10302734375
-0.4800567626953125,1.0257568359375,0.058685302734375
-0.53338623046875,0.8726043701171875,-0.0040130615234375
-0.719451904296875,0.9188079833984376,-0.040802001953125
-0.775421142578125,0.977386474609375,-0.064849853515625
-0.752960205078125,0.8665008544921875,-0.0090484619140625
-0.7295074462890625,0.7159423828125,0.0114593505859375
-0.6984405517578125,0.68829345703125,-0.051361083984375
-0.57452392578125,0.718170166015625,-0.033905029296875
-0.558349609375,0.72247314453125,-0.03546142578125
-0.5967864990234375,0.7265777587890625,-0.0479583740234375
-0.6512908935546875,0.7462005615234375,-0.045806884765625
-0.7589111328125,0.8152618408203125,-0.0264892578125
-0.8141021728515625,0.8259429931640625,-0.0358123779296875
-0.8404998779296875,0.8210296630859375,-0.0706634521484375
-0.8857421875,1.0241241455078125,-0.1393890380859375
-0.791900634765625,1.0680084228515625,-0.1396026611328125
-0.731536865234375,0.888427734375,-0.0732879638671875
-0.7643280029296875,0.9067230224609376,-0.1280059814453125
-0.715789794921875,1.02496337890625,-0.1679840087890625
-0.6113128662109375,1.043792724609375,-0.212615966796875
-0.5523223876953125,0.94561767578125,-0.164337158203125
-0.540374755859375,0.898468017578125,-0.0820465087890625
-0.433807373046875,0.8675079345703125,-0.104339599609375
-0.352142333984375,0.806610107421875,-0.0775909423828125
-0.30096435546875,0.7481689453125,0.0413970947265625
-0.24029541015625,0.7292633056640625,0.09063720703125
-0.23944091796875,0.7413330078125,0.00347900390625
-0.3370513916015625,0.7534942626953125,-0.023406982421875
-0.4399261474609375,0.751434326171875,0.04388427734375
-0.5852203369140625,0.9913177490234376,0.095703125
-0.5779571533203125,1.0302734375,0.0865325927734375
-0.754486083984375,0.8950347900390625,0.01898193359375
-0.8620758056640625,0.74859619140625,0.04034423828125
-0.8912353515625,0.8448944091796875,0.082916259765625
-0.917327880859375,0.9595794677734376,0.0189666748046875
-0.9120330810546876,0.8316497802734375,-0.010406494140625
-0.838775634765625,0.729400634765625,-0.0749969482421875
-0.6892852783203125,0.69085693359375,-0.1312408447265625
-0.6265106201171875,0.6910247802734375,-0.119293212890625
-0.6323394775390625,0.741607666015625,-0.1020660400390625
-0.6405029296875,0.7851409912109375,-0.101898193359375
-0.6275177001953125,0.8223114013671875,-0.1209564208984375
-0.5675506591796875,0.8632965087890625,-0.1590728759765625
-0.4745635986328125,0.8913421630859375,-0.1775054931640625
-0.4384765625,0.9514007568359376,-0.14337158203125
-0.3876190185546875,0.9292449951171876,-0.2081298828125
-0.3888702392578125,0.91070556640625,-0.250823974609375
-0.3986053466796875,0.8956451416015625,-0.2012786865234375
-0.439422607421875,0.852508544921875,-0.2015838623046875
-0.488433837890625,0.8149566650390625,-0.238861083984375
-0.4883575439453125,0.839385986328125,-0.3143463134765625
-0.497039794921875,0.847412109375,-0.3458709716796875
-0.5396881103515625,0.851226806640625,-0.1876220703125
-0.5540924072265625,0.8699951171875,-0.2026519775390625
-0.521392822265625,0.90362548828125,-0.310150146484375
-0.5746917724609375,0.871429443359375,-0.274261474609375
-0.6411285400390625,0.794464111328125,-0.136077880859375
-0.68310546875,0.7785186767578125,-0.21124267578125
-0.7036285400390625,0.8387451171875,-0.268035888671875
-0.6521453857421875,0.902435302734375,-0.25323486328125
-0.6569976806640625,0.9664306640625,-0.27203369140625
-0.621978759765625,0.9582061767578124,-0.2259674072265625
-0.5497894287109375,0.9010467529296876,-0.16925048828125
-0.4903106689453125,0.8878326416015625,-0.171661376953125
-0.472503662109375,0.90106201171875,-0.154632568359375
-0.3995513916015625,0.84234619140625,-0.0720062255859375
-0.3732757568359375,0.7889251708984375,-0.0653533935546875
-0.4179534912109375,0.7282562255859375,-0.096832275390625
-0.428192138671875,0.7800140380859375,0.002777099609375
-0.39990234375,0.857879638671875,0.02532958984375
-0.3748321533203125,0.82275390625,0.205291748046875
-0.4057464599609375,0.8206634521484375,0.325347900390625
-0.482940673828125,0.8392181396484375,0.1173248291015625
-0.5196990966796875,0.8335723876953125,0.0016937255859375
-0.5184783935546875,0.8177490234375,0.040557861328125
-0.55560302734375,0.8229217529296875,0.0787811279296875
-0.6305389404296875,0.828704833984375,0.0951385498046875
-0.669830322265625,0.80511474609375,0.099578857421875
-0.703155517578125,0.8105010986328125,-0.0058135986328125
-0.687744140625,0.86871337890625,-0.086090087890625
-0.7310638427734375,0.8398895263671875,-0.11724853515625
-0.8357391357421875,0.959442138671875,-0.0545501708984375
-0.8472747802734375,1.046112060546875,-0.08575439453125
-0.75146484375,0.791412353515625,-0.0733184814453125
-0.7523956298828125,0.7872161865234375,-0.030853271484375
-0.646209716796875,0.912078857421875,-0.112762451171875
-0.540191650390625,0.9094085693359376,-0.174774169921875
-0.566375732421875,0.78277587890625,-0.1805572509765625
-0.5998992919921875,0.73974609375,-0.151031494140625
-0.5494537353515625,0.78790283203125,-0.148590087890625
-0.5007476806640625,0.8353729248046875,-0.095367431640625
-0.4539642333984375,0.854217529296875,-0.02337646484375
-0.416473388671875,0.8817291259765625,0.0032806396484375
-0.4167938232421875,0.9317779541015624,-0.0196075439453125
-0.37847900390625,0.920135498046875,-0.0292205810546875
-0.3883514404296875,0.870941162109375,-0.0469512939453125
-0.4137115478515625,0.9317626953125,0.0067138671875
-0.395660400390625,0.9145355224609376,-0.0613861083984375
-0.4951171875,0.786773681640625,-0.0745391845703125
-0.663330078125,0.831817626953125,0.0666046142578125
-0.688232421875,0.8595123291015625,0.068145751953125
-0.6107177734375,0.76800537109375,-0.005828857421875
-0.5784454345703125,0.6923828125,-6.103515625e-05
-0.5258026123046875,0.7210845947265625,0.0164031982421875
-0.50762939453125,0.7475433349609375,-0.0186309814453125
-0.545989990234375,0.7419891357421875,-0.0150604248046875
-0.6084136962890625,0.77874755859375,0.0025482177734375
-0.6948699951171875,0.868408203125,-0.0521697998046875
-0.75384521484375,0.9150848388671876,-0.0562286376953125
-0.771942138671875,0.8533782958984375,-0.065399169921875
-0.7727508544921875,0.8525848388671875,-0.1065521240234375
-0.7369232177734375,1.0583343505859375,-0.1384429931640625
-0.65350341796875,1.0675506591796875,-0.116607666015625
-0.6772613525390625,0.8520355224609375,-0.1025848388671875
-0.6851806640625,0.8233642578125,-0.1572418212890625
-0.5778350830078125,0.867706298828125,-0.1446380615234375
-0.5190887451171875,0.8376922607421875,-0.116424560546875
-0.54425048828125,0.8101959228515625,-0.0625
-0.480926513671875,0.8184967041015625,-0.0761566162109375
-0.3707427978515625,0.8183135986328125,-0.0877227783203125
-0.3288421630859375,0.7875823974609375,-0.0231475830078125
-0.33477783203125,0.7866668701171875,0.03656005859375
-0.3461456298828125,0.819427490234375,0.0153656005859375
-0.3394622802734375,0.8569183349609375,-0.0251312255859375
-0.3387298583984375,0.8300933837890625,-0.073516845703125
-0.466339111328125,0.8291778564453125,-0.0677642822265625
-0.53106689453125,1.14154052734375,-0.0072174072265625
-0.453460693359375,1.0784149169921875,-0.218658447265625
-0.582763671875,0.9125823974609376,-0.2825927734375
-0.7418365478515625,0.841888427734375,-0.2254180908203125
-0.802703857421875,0.815093994140625,-0.1566314697265625
-0.757415771484375,0.75323486328125,-0.0721893310546875
-0.72320556640625,0.700897216796875,-0.0613250732421875
-0.689910888671875,0.7302703857421875,-0.0247955322265625
-0.6156463623046875,0.748321533203125,-0.03033447265625
-0.5884246826171875,0.762451171875,-0.033355712890625
-0.640655517578125,0.7391815185546875,0.0796966552734375
-0.73577880859375,0.8458251953125,0.086578369140625
-0.7781524658203125,0.9088592529296876,0.02960205078125
-0.7864837646484375,0.9444122314453124,-0.008697509765625
-0.7542877197265625,0.9146881103515624,0.0475616455078125
-0.6839599609375,0.860565185546875,-0.0474090576171875
-0.643585205078125,0.986236572265625,-0.04327392578125
-0.53466796875,0.8712921142578125,0.015472412109375
-0.5731964111328125,0.7723236083984375,0.079193115234375
-0.5941162109375,0.8885650634765625,0.0596466064453125
-0.46966552734375,0.95697021484375,-0.088104248046875
-0.3960418701171875,0.781707763671875,-0.170623779296875
-0.4421539306640625,0.6590423583984375,-0.1493377685546875
-0.4304351806640625,0.6240692138671875,-0.1439361572265625
-0.39508056640625,0.641571044921875,-0.089752197265625
-0.46331787109375,0.66998291015625,-0.0536956787109375
-0.6101531982421875,0.7005767822265625,-0.08587646484375
-0.6099853515625,0.780303955078125,-0.067047119140625
-0.567169189453125,0.817108154296875,-0.090087890625
-0.603485107421875,0.8253173828125,-0.1134796142578125
-0.6648101806640625,1.0400238037109375,-0.127288818359375
-0.6346893310546875,0.800201416015625,-0.1176300048828125
-0.7177886962890625,0.651214599609375,-0.05535888671875
-0.62884521484375,0.7524261474609375,-0.113616943359375
-0.5337677001953125,0.8176727294921875,-0.084930419921875
-0.54498291015625,0.75372314453125,-0.10223388671875
-0.6353302001953125,0.71343994140625,-0.066314697265625
-0.743621826171875,0.7481536865234375,-0.0412139892578125
-0.762176513671875,0.715667724609375,-0.0323486328125
-0.79388427734375,0.7242279052734375,-0.058746337890625
-0.7882843017578125,0.7675933837890625,-0.0906524658203125
-0.7967529296875,0.8060150146484375,-0.0829315185546875
-0.7519378662109375,0.89288330078125,-0.1086883544921875
-0.672271728515625,0.9020843505859376,-0.1440277099609375
-0.6700439453125,1.031097412109375,-0.168426513671875
-0.6130218505859375,1.1542510986328125,-0.2011566162109375
-0.5998382568359375,0.9302215576171876,-0.1237030029296875
-0.6594085693359375,0.8849639892578125,-0.0330657958984375
-0.5485992431640625,0.9488983154296876,-0.16265869140625
-0.399017333984375,0.9166717529296876,-0.1579437255859375
-0.386871337890625,0.7820281982421875,-0.070526123046875
-0.3995513916015625,0.704803466796875,-0.0461578369140625
-0.325775146484375,0.7047119140625,-0.07489013671875
-0.2937774658203125,0.71539306640625,-0.0119781494140625
-0.28472900390625,0.738433837890625,0.0671234130859375
-0.3477325439453125,0.798736572265625,0.0674896240234375
-0.46112060546875,0.9109039306640624,0.0595245361328125
-0.46533203125,1.0050048828125,0.07464599609375
-0.62860107421875,1.0973968505859375,-0.0015411376953125
-0.6455078125,1.194366455078125,-0.051239013671875
-0.7027130126953125,0.932830810546875,-0.127349853515625
-0.8639678955078125,0.732421875,-0.083221435546875
-0.8885345458984375,0.7891082763671875,-0.0553436279296875
-0.68798828125,0.8457489013671875,-0.046051025390625
-0.5212249755859375,0.7354736328125,-0.0672760009765625
-0.4989776611328125,0.668792724609375,-0.0883026123046875
-0.548309326171875,0.639129638671875,-0.0413055419921875
-0.59393310546875,0.603363037109375,0.0319671630859375
-0.746673583984375,0.6773834228515625,0.0391693115234375
-0.814849853515625,0.7870330810546875,0.09820556640625
-0.8798828125,0.8912200927734375,-0.0209503173828125
-0.86285400390625,0.94342041015625,-0.1190643310546875
-0.7878570556640625,0.96453857421875,-0.112030029296875
-0.7315521240234375,1.128997802734375,-0.057342529296875
-0.577545166015625,1.1837158203125,-0.11541748046875
-0.45745849609375,0.8890228271484375,-0.103546142578125
-0.528350830078125,0.8061676025390625,-0.005279541015625
-0.4398040771484375,0.909515380859375,-0.0487213134765625
-0.325439453125,0.8865203857421875,-0.064422607421875
-0.3610687255859375,0.72821044921875,0.0048065185546875
-0.415924072265625,0.64947509765625,-0.0098114013671875
-0.3759307861328125,0.6672515869140625,-0.037445068359375
-0.365447998046875,0.6802215576171875,0.0114288330078125
-0.45318603515625,0.667205810546875,0.0770416259765625
-0.5089263916015625,0.7421417236328125,0.0598297119140625
-0.5337066650390625,0.8813323974609375,-0.0408477783203125
-0.5792694091796875,0.957794189453125,-0.0654296875
-0.6737213134765625,0.8887939453125,-0.083343505859375
-0.7834625244140625,1.0973358154296875,-0.0522308349609375
-0.588104248046875,1.1111602783203125,-0.2407684326171875
-0.613525390625,0.8054962158203125,-0.28094482421875
-0.769561767578125,0.7239532470703125,-0.14422607421875
-0.8010406494140625,0.771881103515625,-0.10308837890625
-0.7258758544921875,0.7304534912109375,-0.0492095947265625
-0.651641845703125,0.6231689453125,-0.0650634765625
-0.5919342041015625,0.6676483154296875,-0.058624267578125
-0.570404052734375,0.7486724853515625,-0.0539398193359375
-0.5714874267578125,0.756622314453125,-0.0387115478515625
-0.6307830810546875,0.7569732666015625,-0.0113067626953125
-0.6722412109375,0.8469696044921875,-0.0088348388671875
-0.7022705078125,0.9408721923828124,-0.0407867431640625
-0.707305908203125,0.893798828125,-0.0277099609375
-0.6816558837890625,0.8221282958984375,0.0408172607421875
-0.6532440185546875,1.0173187255859375,-0.0436248779296875
-0.49432373046875,1.0835723876953125,-0.1566162109375
-0.5843353271484375,0.8035430908203125,-0.050872802734375
-0.7263031005859375,0.8448333740234375,-0.03240966796875
-0.661529541015625,0.9531097412109376,-0.029296875
-0.589630126953125,0.884674072265625,-0.031036376953125
-0.583038330078125,0.7940826416015625,-0.02984619140625
-0.5108184814453125,0.77960205078125,-0.0142974853515625
-0.3694000244140625,0.78338623046875,0.003326416015625
-0.274993896484375,0.7408294677734375,0.029510498046875
-0.290771484375,0.712310791015625,0.068603515625
-0.4532012939453125,0.73297119140625,-0.0356903076171875
-0.5798492431640625,0.76458740234375,-0.1298370361328125
-0.62579345703125,0.7751312255859375,-0.127197265625
-0.6437835693359375,0.7678985595703125,-0.1510467529296875
-0.624542236328125,0.97015380859375,-0.1340179443359375
-0.5029449462890625,0.9573516845703124,-0.228790283203125
-0.620697021484375,0.730194091796875,-0.2107696533203125
-0.7452239990234375,0.74798583984375,-0.1142425537109375
-0.7081298828125,0.8141326904296875,-0.1533355712890625
-0.6153106689453125,0.7489166259765625,-0.1072845458984375
-0.5998382568359375,0.6828765869140625,-0.082550048828125
-0.5604400634765625,0.7260589599609375,-0.0628204345703125
-0.5547637939453125,0.732177734375,-0.0482177734375
-0.5947265625,0.7122344970703125,-0.03570556640625
-0.69012451171875,0.733856201171875,0.016693115234375
-0.785919189453125,0.8667755126953125,-0.045684814453125
-0.826446533203125,0.9201202392578124,-0.0531463623046875
-0.8060302734375,0.8319091796875,-0.1129913330078125
-0.794219970703125,0.9416046142578124,-0.1473388671875
-0.7245635986328125,1.0849609375,-0.098236083984375
-0.6584930419921875,0.8724517822265625,-0.0961456298828125
-0.72412109375,0.861419677734375,-0.1497802734375
-0.6399078369140625,0.9568939208984376,-0.207305908203125
-0.4994964599609375,0.981781005859375,-0.19317626953125
-0.4730224609375,0.84527587890625,-0.143402099609375
-0.46405029296875,0.7667999267578125,-0.1169281005859375
-0.386932373046875,0.7559356689453125,-0.0950775146484375
-0.3299407958984375,0.7375030517578125,-0.0357666015625
-0.3089447021484375,0.726043701171875,0.01666259765625
-0.3118438720703125,0.76275634765625,0.05572509765625
-0.3689727783203125,0.886962890625,-0.004852294921875
-0.378631591796875,0.972869873046875,-0.03106689453125
-0.504547119140625,0.9213714599609376,-0.0697784423828125
-0.6158447265625,1.11090087890625,0.0164794921875
-0.4992828369140625,1.0683441162109375,-0.1403350830078125
-0.5649261474609375,0.7745513916015625,-0.194549560546875
-0.74981689453125,0.76708984375,-0.083343505859375
-0.7141876220703125,0.856109619140625,0.0182952880859375
-0.6104583740234375,0.8008575439453125,-0.0517425537109375
-0.5750732421875,0.705352783203125,-0.118743896484375
-0.541656494140625,0.7136383056640625,-0.1007232666015625
-0.5498504638671875,0.7119598388671875,-0.0686187744140625
-0.593902587890625,0.704254150390625,-0.043670654296875
-0.6284027099609375,0.74310302734375,-0.0399322509765625
-0.70220947265625,0.8457794189453125,-0.079315185546875
-0.742828369140625,0.906036376953125,-0.0892486572265625
-0.753753662109375,0.8597412109375,-0.1168670654296875
-0.6902313232421875,0.82965087890625,-0.0776214599609375
-0.6958160400390625,0.987030029296875,-0.0652923583984375
-0.5924530029296875,0.9825439453125,-0.087005615234375
-0.642364501953125,0.82086181640625,-0.08148193359375
-0.6529998779296875,0.865631103515625,-0.124298095703125
-0.57666015625,0.9788818359375,-0.190948486328125
-0.4925384521484375,0.9213104248046876,-0.214019775390625
-0.5086212158203125,0.7901763916015625,-0.1680755615234375
-0.535552978515625,0.7719573974609375,-0.16668701171875
-0.4531402587890625,0.7758941650390625,-0.1152496337890625
-0.3920745849609375,0.7545928955078125,-0.0537261962890625
-0.36474609375,0.76422119140625,-0.0425262451171875
-0.343475341796875,0.808990478515625,0.003936767578125
-0.35137939453125,0.795867919921875,0.0560455322265625
-0.402496337890625,0.783355712890625,0.06512451171875
-0.4945220947265625,0.8551483154296875,0.06414794921875
-0.61346435546875,1.0406951904296875,0.070892333984375
-0.60968017578125,1.019012451171875,0.044708251953125
-0.73681640625,0.812225341796875,-0.0146026611328125
-0.80499267578125,0.662139892578125,0.032745361328125
-0.8287200927734375,0.7350311279296875,0.0287933349609375
-0.8244781494140625,0.8866424560546875,-0.030853271484375
-0.8175201416015625,0.860260009765625,-0.1003570556640625
-0.77740478515625,0.807098388671875,-0.2027587890625
-0.67791748046875,0.771484375,-0.2673797607421875
-0.573883056640625,0.745574951171875,-0.1920166015625
-0.575408935546875,0.7826385498046875,-0.04559326171875
-0.5172271728515625,0.799346923828125,-0.0830078125
-0.5188140869140625,0.831787109375,-0.2017059326171875
-0.501739501953125,0.8410797119140625,-0.2443389892578125
-0.507080078125,0.876251220703125,-0.15460205078125
-0.481719970703125,0.9375,-0.1164093017578125
-0.450592041015625,1.0235137939453125,-0.1433258056640625
-0.4070281982421875,0.972564697265625,-0.10552978515625
-0.44732666015625,0.8737945556640625,-0.0045318603515625
-0.43829345703125,0.81463623046875,0.0758056640625
-0.4808502197265625,0.7319793701171875,-0.1230316162109375
-0.543609619140625,0.6988983154296875,-0.3242645263671875
-0.496124267578125,0.748260498046875,-0.29205322265625
-0.5144195556640625,0.848419189453125,-0.285888671875
-0.587127685546875,0.8970184326171875,-0.3290252685546875
-0.6215362548828125,0.89630126953125,-0.3955230712890625
-0.62469482421875,0.87237548828125,-0.291168212890625
-0.6555938720703125,0.8428802490234375,-0.1696014404296875
-0.6826934814453125,0.82513427734375,-0.13677978515625
-0.70172119140625,0.8516387939453125,-0.188201904296875
-0.6866912841796875,0.8820037841796875,-0.2337799072265625
-0.6742095947265625,0.9123992919921876,-0.2350616455078125
-0.6534881591796875,0.9371795654296876,-0.23760986328125
-0.5920867919921875,0.9503631591796876,-0.2368316650390625
-0.5019989013671875,0.895904541015625,-0.227142333984375
-0.4538421630859375,0.840087890625,-0.126739501953125
-0.435272216796875,0.8933258056640625,-0.03814697265625
-0.331024169921875,0.9350433349609376,-0.023406982421875
-0.3259735107421875,0.7814788818359375,-0.0347137451171875
-0.4431915283203125,0.70916748046875,0.03741455078125
-0.525054931640625,0.7906494140625,0.0157470703125
-0.51043701171875,0.943023681640625,-0.04949951171875
-0.455169677734375,0.939788818359375,-0.1013031005859375
-0.417694091796875,0.8706817626953125,0.085296630859375
-0.387786865234375,0.813720703125,0.0374755859375
-0.432373046875,0.8127899169921875,0.053741455078125
-0.451995849609375,0.836761474609375,0.1095428466796875
-0.4241790771484375,0.8618621826171875,0.1423187255859375
-0.54010009765625,0.8507537841796875,0.0465087890625
-0.6735076904296875,0.8240509033203125,0.0109405517578125
-0.7871246337890625,0.8032989501953125,0.0106353759765625
-0.8045806884765625,0.8139801025390625,-0.0019378662109375
-0.742340087890625,0.8586883544921875,-0.03656005859375
-0.7275238037109375,0.8671112060546875,-0.057464599609375
-0.7810516357421875,0.9918975830078124,-0.1056976318359375
-0.77288818359375,1.013275146484375,-0.163909912109375
-0.713470458984375,0.7896270751953125,-0.11846923828125
-0.7204742431640625,0.79400634765625,-0.101043701171875
-0.672088623046875,0.9265594482421876,-0.1056976318359375
-0.5894927978515625,0.98870849609375,-0.1257781982421875
-0.528045654296875,0.886016845703125,-0.14483642578125
-0.5225982666015625,0.8268890380859375,-0.124298095703125
-0.47906494140625,0.8395538330078125,-0.0712890625
-0.4043121337890625,0.840087890625,-0.0258331298828125
-0.322052001953125,0.79803466796875,0.0030670166015625
-0.2841339111328125,0.7769317626953125,0.05108642578125
-0.32452392578125,0.856414794921875,0.0507659912109375
-0.3215484619140625,0.90460205078125,0.0124664306640625
-0.48516845703125,0.8793792724609375,-0.0121002197265625
-0.620880126953125,1.004669189453125,0.068145751953125
-0.4934539794921875,0.971343994140625,-0.1259918212890625
-0.5260009765625,0.84967041015625,-0.09405517578125
-0.64007568359375,0.8715972900390625,0.0419464111328125
-0.6998138427734375,0.90234375,0.0228729248046875
-0.711822509765625,0.81805419921875,-0.0232696533203125
-0.7194061279296875,0.713531494140625,-0.0030670166015625
-0.681640625,0.687774658203125,-0.0043792724609375
-0.63140869140625,0.6726837158203125,0.049041748046875
-0.6413726806640625,0.6526947021484375,-0.010284423828125
-0.68084716796875,0.704803466796875,-0.052215576171875
-0.7582244873046875,0.8416290283203125,-0.0277252197265625
-0.78472900390625,0.91033935546875,-0.0230865478515625
-0.7755584716796875,0.8903045654296875,-0.086822509765625
-0.761993408203125,0.8834228515625,-0.062713623046875
-0.8654022216796875,1.1478729248046875,-0.0306854248046875
-0.7480926513671875,1.064971923828125,-0.047760009765625
-0.61761474609375,0.835235595703125,-0.0997314453125
-0.528533935546875,0.855865478515625,-0.072601318359375
-0.3673248291015625,0.8441619873046875,-0.0893707275390625
-0.468780517578125,0.7659149169921875,-0.21099853515625
-0.660614013671875,0.6379547119140625,-0.132080078125
-0.6912078857421875,0.6249237060546875,-0.1339263916015625
-0.5311126708984375,0.694061279296875,-0.113616943359375
-0.4508209228515625,0.6824188232421875,-0.0633697509765625
-0.4623260498046875,0.67559814453125,0.0264739990234375
-0.4447784423828125,0.727691650390625,0.0465850830078125
-0.4201507568359375,0.78265380859375,0.0492095947265625
-0.4674072265625,0.80474853515625,0.09979248046875
-0.60296630859375,0.842803955078125,0.146240234375
-0.62030029296875,1.0753631591796875,0.087188720703125
-0.561187744140625,0.8485107421875,-0.1855926513671875
-0.798858642578125,0.7585601806640625,-0.0301971435546875
-0.782562255859375,0.8064727783203125,0.0699920654296875
-0.68499755859375,0.83819580078125,-0.0630340576171875
-0.62677001953125,0.777191162109375,-0.1570281982421875
-0.6031341552734375,0.7622528076171875,-0.2225341796875
-0.6024017333984375,0.80670166015625,-0.2644500732421875
-0.5931854248046875,0.771331787109375,-0.185455322265625
-0.6557159423828125,0.7421722412109375,-0.1131591796875
-0.69635009765625,0.761566162109375,-0.04931640625
-0.70623779296875,0.782623291015625,-0.0456695556640625
-0.6662750244140625,0.832794189453125,-0.1248931884765625
-0.6189117431640625,0.8824462890625,-0.1717987060546875
-0.62384033203125,0.90301513671875,-0.161041259765625
-0.6206817626953125,1.0982818603515625,-0.1840362548828125
-0.5501861572265625,1.04595947265625,-0.235382080078125
-0.606903076171875,0.9532012939453124,-0.224151611328125
-0.56182861328125,0.9727020263671876,-0.2782440185546875
-0.4761505126953125,0.9766387939453124,-0.277069091796875
-0.450836181640625,0.8897705078125,-0.219207763671875
-0.437255859375,0.8155670166015625,-0.173095703125
-0.4013824462890625,0.810302734375,-0.1685028076171875
-0.36016845703125,0.773651123046875,-0.1092987060546875
-0.3436737060546875,0.77960205078125,-0.03778076171875
-0.3446197509765625,0.8018798828125,0.0097198486328125
-0.38140869140625,0.896270751953125,-0.012908935546875
-0.3592071533203125,0.94049072265625,-0.068878173828125
-0.4306640625,0.86212158203125,-0.1162109375
-0.6125640869140625,1.010894775390625,-0.0178070068359375
-0.5297698974609375,1.094573974609375,0.0279998779296875
-0.518890380859375,0.7984619140625,-0.1499786376953125
-0.649932861328125,0.793212890625,-0.1700897216796875
-0.6224822998046875,0.890289306640625,-0.10906982421875
-0.5776214599609375,0.8672943115234375,-0.1331787109375
-0.5853271484375,0.755401611328125,-0.1371307373046875
-0.5862579345703125,0.6898040771484375,-0.087890625
-0.533447265625,0.7216644287109375,-0.1221466064453125
-0.4981842041015625,0.710418701171875,-0.11956787109375
-0.5568389892578125,0.7398223876953125,-0.0651092529296875
-0.6519775390625,0.816986083984375,-0.0467681884765625
-0.7149658203125,0.86187744140625,-0.0584259033203125
-0.7394866943359375,0.90228271484375,-0.0882110595703125
-0.7464599609375,0.8526458740234375,-0.097564697265625
-0.7863006591796875,0.9108123779296876,-0.0904541015625
-0.71783447265625,1.124603271484375,-0.107421875
-0.61456298828125,0.85711669921875,-0.1543731689453125
-0.7254486083984375,0.8189849853515625,-0.1237945556640625
-0.6732635498046875,0.9895172119140624,-0.1289215087890625
-0.557403564453125,1.0138702392578125,-0.140655517578125
-0.4830322265625,0.8824462890625,-0.178741455078125
-0.528350830078125,0.7689971923828125,-0.169281005859375
-0.453857421875,0.7861480712890625,-0.0905609130859375
-0.332977294921875,0.7863922119140625,-0.0736846923828125
-0.2580413818359375,0.7583160400390625,-0.0616455078125
-0.254547119140625,0.736358642578125,-0.02423095703125
-0.3043975830078125,0.770782470703125,-0.002410888671875
-0.38458251953125,0.838592529296875,-0.0082550048828125
-0.4631805419921875,0.9103546142578124,-0.0438995361328125
-0.667999267578125,0.9387054443359376,0.02325439453125
-0.629638671875,1.148895263671875,0.081756591796875
-0.452117919921875,0.872894287109375,-0.262420654296875
-0.6559906005859375,0.83843994140625,-0.20068359375
-0.6519927978515625,0.893585205078125,0.0005645751953125
-0.6243743896484375,0.888916015625,-0.01214599609375
-0.631256103515625,0.7415771484375,-0.112274169921875
-0.666717529296875,0.6856689453125,-0.1211395263671875
-0.6246795654296875,0.6962127685546875,-0.1082305908203125
-0.5438232421875,0.69989013671875,-0.0903167724609375
-0.53466796875,0.7479705810546875,-0.1048736572265625
-0.5670928955078125,0.799041748046875,-0.0910186767578125
-0.651947021484375,0.847869873046875,-0.06109619140625
-0.6982879638671875,0.881011962890625,-0.074859619140625
-0.7138519287109375,0.8707427978515625,-0.150787353515625
-0.7786407470703125,1.06121826171875,-0.1183929443359375
-0.7286834716796875,1.057037353515625,-0.073211669921875
-0.651458740234375,0.931854248046875,-0.077789306640625
-0.6763916015625,0.8805084228515625,-0.092559814453125
-0.5934600830078125,0.9777679443359376,-0.076324462890625
-0.482421875,1.0196990966796875,-0.040618896484375
-0.3982696533203125,0.8927764892578125,-0.0621490478515625
-0.43206787109375,0.73431396484375,-0.0818634033203125
-0.4145050048828125,0.7066497802734375,0.0069732666015625
-0.3872528076171875,0.73504638671875,-0.0013580322265625
-0.3948974609375,0.749267578125,0.0004119873046875
-0.46435546875,0.734832763671875,-0.05596923828125
-0.4717559814453125,0.7643585205078125,-0.0522003173828125
-0.4908905029296875,0.8379364013671875,-0.02264404296875
-0.4986572265625,0.8969879150390625,-0.0430908203125
-0.606109619140625,0.952362060546875,-0.0389556884765625
-0.5256195068359375,1.02850341796875,-0.0835418701171875
-0.4522857666015625,0.873687744140625,-0.2343902587890625
-0.5771484375,0.7234954833984375,-0.1613616943359375
-0.67999267578125,0.795745849609375,0.0303192138671875
-0.697174072265625,0.892791748046875,-0.117950439453125
-0.6830596923828125,0.7791900634765625,-0.192779541015625
-0.718017578125,0.71075439453125,-0.214141845703125
-0.659912109375,0.738311767578125,-0.1289825439453125
-0.5798187255859375,0.75067138671875,-0.0637969970703125
-0.5575714111328125,0.765777587890625,-0.0518035888671875
-0.5621185302734375,0.768524169921875,0.0008087158203125
-0.6806488037109375,0.8603363037109375,0.004180908203125
-0.723907470703125,0.8644866943359375,-0.0190582275390625
-0.730438232421875,0.8356170654296875,-0.1184539794921875
-0.6981201171875,0.9027862548828124,-0.148834228515625
-0.59088134765625,1.0688323974609375,-0.1700897216796875
-0.57159423828125,0.818206787109375,-0.207000732421875
-0.715576171875,0.8451690673828125,-0.1446533203125
-0.6719970703125,1.0258941650390625,-0.249053955078125
-0.4983062744140625,0.935882568359375,-0.3467559814453125
-0.46783447265625,0.7197723388671875,-0.3708953857421875
-0.485260009765625,0.6821441650390625,-0.2693328857421875
-0.3918914794921875,0.72998046875,-0.13482666015625
-0.3234100341796875,0.76092529296875,-0.0825042724609375
-0.2864990234375,0.7767181396484375,0.0144805908203125
-0.340850830078125,0.8681640625,0.0762939453125
-0.4423828125,0.98529052734375,0.0312652587890625
-0.5456695556640625,0.961700439453125,-0.063995361328125
-0.657501220703125,1.0079345703125,-0.078460693359375
-0.56982421875,1.0747833251953125,-0.0361480712890625
-0.49102783203125,0.8020477294921875,-0.140106201171875
-0.5944366455078125,0.6623687744140625,-0.029754638671875
-0.641265869140625,0.820159912109375,0.1443328857421875
-0.5738372802734375,0.9366302490234376,0.03857421875
-0.600433349609375,0.797119140625,-0.1020355224609375
-0.6094512939453125,0.6624298095703125,-0.0909576416015625
-0.6301422119140625,0.664459228515625,-0.1020965576171875
-0.59765625,0.688385009765625,-0.054534912109375
-0.639404296875,0.71929931640625,-0.033355712890625
-0.6602020263671875,0.788177490234375,-0.0654144287109375
-0.6771392822265625,0.8420867919921875,-0.10333251953125
-0.700225830078125,0.9060516357421876,-0.1453704833984375
-0.67462158203125,0.9187164306640624,-0.1604461669921875
-0.6587371826171875,0.925506591796875,-0.1159820556640625
-0.6562042236328125,1.0941162109375,-0.132843017578125
-0.5931549072265625,0.9905242919921876,-0.1259002685546875
-0.7070159912109375,0.8739166259765625,-0.039398193359375
-0.7344818115234375,0.9273223876953124,-0.0707550048828125
-0.6055145263671875,0.9609222412109376,-0.1042327880859375
-0.49212646484375,0.857391357421875,-0.1695556640625
-0.478118896484375,0.7573699951171875,-0.1843719482421875
-0.40985107421875,0.7543792724609375,-0.1396331787109375
-0.32281494140625,0.7663116455078125,-0.076690673828125
-0.27520751953125,0.7464447021484375,-0.001556396484375
-0.26904296875,0.7610321044921875,0.0491943359375
-0.32391357421875,0.8350677490234375,0.067718505859375
-0.3811798095703125,0.9173126220703124,-0.0062103271484375
-0.486968994140625,0.9057769775390624,-0.0551300048828125
-0.6290130615234375,1.076629638671875,0.011627197265625
-0.5758209228515625,1.1304931640625,-0.0583038330078125
-0.5645599365234375,0.8430633544921875,-0.1361083984375
-0.726470947265625,0.809783935546875,-0.103363037109375
-0.7484588623046875,0.8605804443359375,-0.0058135986328125
-0.680938720703125,0.794708251953125,-0.0346832275390625
-0.600738525390625,0.68682861328125,-0.0919342041015625
-0.5083770751953125,0.7145843505859375,-0.1140289306640625
-0.4588470458984375,0.738677978515625,-0.0628662109375
-0.4515533447265625,0.7350616455078125,-0.0251922607421875
-0.51495361328125,0.7446441650390625,-0.0557403564453125
-0.610687255859375,0.787261962890625,-0.09918212890625
-0.708770751953125,0.8643646240234375,-0.1170501708984375
-0.7645263671875,0.8674774169921875,-0.126617431640625
-0.803863525390625,0.89862060546875,-0.1302032470703125
-0.757415771484375,1.0932769775390625,-0.1519775390625
-0.6670074462890625,1.0745849609375,-0.15423583984375
-0.6616363525390625,0.8451385498046875,-0.1106414794921875
-0.690826416015625,0.897430419921875,-0.146392822265625
-0.600677490234375,1.00079345703125,-0.1250762939453125
-0.4702911376953125,0.9755096435546876,-0.142852783203125
-0.4620819091796875,0.8598785400390625,-0.18011474609375
-0.461517333984375,0.804718017578125,-0.1678924560546875
-0.3610687255859375,0.801971435546875,-0.1050567626953125
-0.291900634765625,0.7877655029296875,-0.07208251953125
-0.2750396728515625,0.7803955078125,-0.038360595703125
-0.301025390625,0.8006134033203125,-0.063262939453125
-0.355377197265625,0.8348388671875,-0.046783447265625
-0.40960693359375,0.844146728515625,-0.0218505859375
-0.4915924072265625,0.8531036376953125,-0.005706787109375
-0.581390380859375,1.0161590576171875,0.0553436279296875
-0.53509521484375,1.0097808837890625,-0.023345947265625
-0.6199951171875,0.7926483154296875,-0.0432586669921875
-0.75103759765625,0.7119140625,0.0674896240234375
-0.7772064208984375,0.865081787109375,0.1115875244140625
-0.7857818603515625,0.93804931640625,0.0046844482421875
-0.756866455078125,0.843902587890625,-0.109710693359375
-0.7263031005859375,0.7476654052734375,-0.158233642578125
-0.6192169189453125,0.7363739013671875,-0.1226806640625
-0.5463104248046875,0.72149658203125,-0.1102447509765625
-0.54669189453125,0.76007080078125,-0.153656005859375
-0.584686279296875,0.7850341796875,-0.1087493896484375
-0.62811279296875,0.841461181640625,-0.0560302734375
-0.602447509765625,0.860137939453125,-0.1217193603515625
-0.5759124755859375,0.886474609375,-0.1495361328125
-0.5500030517578125,0.9340362548828124,-0.1600341796875
-0.5188751220703125,0.9320220947265624,-0.1892852783203125
-0.5031890869140625,0.8825225830078125,-0.13232421875
-0.4842987060546875,0.782012939453125,-0.1309051513671875
-0.4635162353515625,0.751434326171875,-0.236358642578125
-0.34197998046875,0.8134918212890625,-0.28326416015625
-0.2706756591796875,0.8852081298828125,-0.2589874267578125
-0.3530426025390625,0.898284912109375,-0.2391815185546875
-0.463714599609375,0.8731689453125,-0.223236083984375
-0.5655670166015625,0.8708343505859375,-0.242889404296875
-0.6701507568359375,0.9158172607421876,-0.231781005859375
-0.6779327392578125,0.9017791748046876,-0.2903900146484375
-0.6811065673828125,0.8659820556640625,-0.3153839111328125
-0.7047271728515625,0.8150177001953125,-0.2484893798828125
-0.731842041015625,0.8115081787109375,-0.174591064453125
-0.701385498046875,0.8380126953125,-0.149169921875
-0.6595306396484375,0.874176025390625,-0.1810150146484375
-0.5958099365234375,0.893585205078125,-0.229705810546875
-0.538177490234375,0.9009857177734376,-0.2135772705078125
-0.4722900390625,0.8586578369140625,-0.1758575439453125
-0.4513092041015625,0.8973846435546875,-0.1776580810546875
-0.375518798828125,0.921630859375,-0.195281982421875
-0.3659515380859375,0.8585662841796875,-0.179107666015625
-0.418060302734375,0.8251800537109375,-0.0538330078125
-0.44903564453125,0.7662200927734375,-0.0080108642578125
-0.427734375,0.8757171630859375,-0.045684814453125
-0.3048553466796875,0.9470672607421876,-0.0710296630859375
-0.31915283203125,0.9189453125,0.0422821044921875
-0.393951416015625,0.8746337890625,0.136871337890625
-0.46051025390625,0.8515625,0.085479736328125
-0.4638671875,0.85791015625,0.0839691162109375
-0.50531005859375,0.8572540283203125,0.0265960693359375
-0.614471435546875,0.847930908203125,0.0080718994140625
-0.6945037841796875,0.834197998046875,0.0392608642578125
-0.71734619140625,0.776458740234375,0.0657196044921875
-0.7220001220703125,0.8324127197265625,-0.005950927734375
-0.683349609375,0.8908843994140625,-0.12457275390625
-0.755706787109375,0.927337646484375,-0.19635009765625
-0.83349609375,0.9808502197265624,-0.192138671875
-0.8091278076171875,0.78094482421875,-0.1155242919921875
-0.8077850341796875,0.896331787109375,-0.1461029052734375
-0.6264190673828125,1.072784423828125,-0.1746978759765625
-0.543914794921875,0.99664306640625,-0.1915435791015625
-0.6043853759765625,0.839202880859375,-0.18536376953125
-0.629730224609375,0.8108367919921875,-0.198822021484375
-0.52349853515625,0.9093475341796876,-0.2108001708984375
-0.397613525390625,0.943115234375,-0.1021881103515625
-0.3221893310546875,0.9187774658203124,-0.0435028076171875
-0.257354736328125,0.876129150390625,-0.022216796875
-0.2579345703125,0.875091552734375,0.0015869140625
-0.293731689453125,0.8944549560546875,-0.0050506591796875
-0.3618011474609375,0.8160552978515625,-0.02337646484375
-0.52423095703125,0.9660797119140624,0.0542449951171875
-0.379730224609375,1.034027099609375,0.0043792724609375
-0.4729461669921875,0.83099365234375,-0.14935302734375
-0.7261199951171875,0.839630126953125,-0.056121826171875
-0.73760986328125,0.9161376953125,0.049835205078125
-0.6339111328125,0.8539886474609375,-0.0875396728515625
-0.576019287109375,0.7246856689453125,-0.142364501953125
-0.545196533203125,0.68927001953125,-0.1555633544921875
-0.4843902587890625,0.7037506103515625,-0.0860748291015625
-0.493011474609375,0.7060394287109375,-0.0561676025390625
-0.52911376953125,0.7193145751953125,-0.032806396484375
-0.6049041748046875,0.807769775390625,-0.061004638671875
-0.699462890625,0.888702392578125,-0.1018829345703125
-0.7469482421875,0.93377685546875,-0.12567138671875
-0.774566650390625,0.873687744140625,-0.1357269287109375
-0.8541107177734375,1.000762939453125,-0.143524169921875
-0.73419189453125,1.0916748046875,-0.161651611328125
-0.678436279296875,0.8702392578125,-0.1625518798828125
-0.7352752685546875,0.86090087890625,-0.141357421875
-0.619171142578125,0.948455810546875,-0.140350341796875
-0.5038299560546875,0.9798431396484376,-0.14654541015625
-0.4733428955078125,0.90032958984375,-0.1778717041015625
-0.469573974609375,0.8196563720703125,-0.14129638671875
-0.3919525146484375,0.7871551513671875,-0.072479248046875
-0.3217010498046875,0.75115966796875,-0.0160675048828125
-0.2611846923828125,0.7063446044921875,0.03125
-0.24847412109375,0.715057373046875,0.0204315185546875
-0.3167266845703125,0.7912445068359375,-0.007354736328125
-0.4669647216796875,0.8689117431640625,-0.014373779296875
-0.5526580810546875,0.8643798828125,-0.123016357421875
-0.6685028076171875,0.8975830078125,-0.2306365966796875
-0.549224853515625,1.1233367919921875,-0.2293701171875
-0.442962646484375,1.0183563232421875,-0.373931884765625
-0.6106719970703125,0.8344879150390625,-0.278778076171875
-0.7131805419921875,0.8419647216796875,-0.1583404541015625
-0.6226043701171875,0.875396728515625,-0.1030426025390625
-0.559356689453125,0.7646331787109375,-0.1283721923828125
-0.563507080078125,0.69281005859375,-0.0774688720703125
-0.5774993896484375,0.7003631591796875,-0.0386810302734375
-0.5779266357421875,0.7210540771484375,-0.0578155517578125
-0.6157684326171875,0.7297821044921875,-0.07696533203125
-0.6837921142578125,0.82220458984375,-0.0467529296875
-0.7287139892578125,0.8945770263671875,-0.0801849365234375
-0.748809814453125,0.9050750732421876,-0.0592498779296875
-0.735321044921875,0.909912109375,-0.01318359375
-0.6774444580078125,0.8670501708984375,0.017120361328125
-0.6653594970703125,1.0060882568359375,-0.0478515625
-0.577545166015625,1.0458526611328125,-0.2046356201171875
-0.517120361328125,0.8246612548828125,-0.1702117919921875
-0.562225341796875,0.752105712890625,-0.1733551025390625
-0.586395263671875,0.854949951171875,-0.2352142333984375
-0.5320281982421875,0.9016876220703124,-0.191131591796875
-0.5284271240234375,0.766998291015625,-0.1046295166015625
-0.5097808837890625,0.7321319580078125,-0.11346435546875
-0.430267333984375,0.7753143310546875,-0.1136016845703125
-0.3724517822265625,0.7699432373046875,-0.111663818359375
-0.364013671875,0.7523345947265625,-0.0617828369140625
-0.3832550048828125,0.781951904296875,-0.0388336181640625
-0.4007568359375,0.8471832275390625,-0.008056640625
-0.4412994384765625,0.912109375,0.0268402099609375
-0.5076904296875,0.9165191650390624,0.0187530517578125
-0.677154541015625,1.0882720947265625,-0.0160369873046875
-0.609832763671875,1.0583343505859375,-0.07318115234375
-0.5876312255859375,0.76019287109375,-0.176239013671875
-0.7147674560546875,0.759490966796875,-0.142181396484375
-0.6900482177734375,0.818328857421875,-0.0899658203125
-0.5900421142578125,0.7559967041015625,-0.1121826171875
-0.5472564697265625,0.6675567626953125,-0.17120361328125
-0.5376129150390625,0.70684814453125,-0.1659393310546875
-0.536895751953125,0.7379150390625,-0.1371917724609375
-0.6090087890625,0.7236785888671875,-0.109405517578125
-0.6534271240234375,0.769439697265625,-0.1049957275390625
-0.6844024658203125,0.8267669677734375,-0.12841796875
-0.6616668701171875,0.902587890625,-0.135162353515625
-0.617706298828125,0.9251251220703124,-0.12835693359375
-0.6250457763671875,0.965972900390625,-0.1072235107421875
-0.63232421875,1.132049560546875,-0.162384033203125
-0.5281219482421875,0.96087646484375,-0.1597747802734375
-0.6522064208984375,0.89813232421875,-0.0898590087890625
-0.6381378173828125,0.984771728515625,-0.1003875732421875
-0.51806640625,1.007171630859375,-0.1499481201171875
-0.4143829345703125,0.863616943359375,-0.1736297607421875
-0.3922271728515625,0.7541656494140625,-0.12054443359375
-0.3394012451171875,0.72198486328125,-0.095458984375
-0.3115234375,0.729156494140625,-0.0535125732421875
-0.2911224365234375,0.7303466796875,0.026214599609375
-0.311004638671875,0.747772216796875,0.046417236328125
-0.3899688720703125,0.8081512451171875,-0.0030670166015625
-0.3990936279296875,0.93585205078125,0.0040740966796875
-0.450439453125,0.9658355712890624,-0.087310791015625
-0.5571441650390625,1.1781768798828125,-0.055084228515625
-0.529205322265625,1.128692626953125,-0.145599365234375
-0.6113433837890625,0.82147216796875,-0.1816253662109375
-0.7667083740234375,0.8614044189453125,-0.1379547119140625
-0.750701904296875,0.92132568359375,-0.0659942626953125
-0.6847076416015625,0.7626190185546875,-0.121917724609375
-0.624114990234375,0.6756591796875,-0.1551666259765625
-0.5193023681640625,0.71484375,-0.1884918212890625
-0.4750213623046875,0.72320556640625,-0.106597900390625
-0.465087890625,0.7306671142578125,-0.076080322265625
-0.4951629638671875,0.7615966796875,-0.1063232421875
-0.5693359375,0.832122802734375,-0.097259521484375
-0.649749755859375,0.9404449462890624,-0.11517333984375
-0.67486572265625,0.9419708251953124,-0.1451873779296875
-0.6964569091796875,0.9096832275390624,-0.1156768798828125
-0.6772918701171875,1.061737060546875,-0.1019744873046875
-0.6128997802734375,1.1031951904296875,-0.10589599609375
-0.5638275146484375,0.8605194091796875,-0.1466064453125
-0.69488525390625,0.8108062744140625,-0.142364501953125
-0.633941650390625,0.95782470703125,-0.095703125
-0.4588470458984375,0.9666900634765624,-0.1188507080078125
-0.4375762939453125,0.7985382080078125,-0.1838531494140625
-0.4619293212890625,0.711822509765625,-0.161102294921875
-0.373992919921875,0.742767333984375,-0.075286865234375
-0.279388427734375,0.736785888671875,-0.023956298828125
-0.2283935546875,0.7048187255859375,-0.0066986083984375
-0.26025390625,0.73455810546875,0.0129547119140625
-0.3753662109375,0.8209381103515625,-0.006744384765625
-0.441070556640625,0.935089111328125,0.00439453125
-0.510833740234375,0.94757080078125,-0.0500030517578125
-0.6707611083984375,1.2235870361328125,-0.062042236328125
-0.556732177734375,1.1904754638671875,-0.216949462890625
-0.5903472900390625,0.93701171875,-0.312225341796875
-0.747161865234375,0.7678070068359375,-0.2063140869140625
-0.79669189453125,0.8076019287109375,-0.098419189453125
-0.787689208984375,0.7910919189453125,-0.07843017578125
-0.653167724609375,0.7133026123046875,-0.1308135986328125
-0.52105712890625,0.7034454345703125,-0.1499176025390625
-0.425811767578125,0.7111968994140625,-0.10247802734375
-0.3721923828125,0.682464599609375,-0.082916259765625
-0.375,0.666961669921875,-0.012725830078125
-0.4998931884765625,0.7494659423828125,0.02044677734375
-0.644744873046875,0.92864990234375,-0.0072021484375
-0.7382659912109375,0.9789886474609376,-0.053466796875
-0.7854766845703125,0.899444580078125,-0.096649169921875
-0.84454345703125,0.9717864990234376,-0.0809478759765625
-0.7165374755859375,1.116485595703125,-0.06658935546875
-0.611083984375,0.9288787841796876,-0.1319122314453125
-0.7034759521484375,0.7982025146484375,-0.1336212158203125
-0.6637420654296875,0.883758544921875,-0.07623291015625
-0.5665435791015625,0.975616455078125,-0.031463623046875
-0.4931488037109375,0.9018707275390624,-0.079010009765625
-0.4840240478515625,0.773101806640625,-0.143890380859375
-0.461883544921875,0.7674713134765625,-0.09454345703125
-0.40673828125,0.7981109619140625,-0.0171051025390625
-0.35736083984375,0.784912109375,0.0059356689453125
-0.343414306640625,0.75640869140625,0.009521484375
-0.34844970703125,0.769439697265625,-0.023101806640625
-0.36090087890625,0.8388519287109375,-0.01513671875
-0.3919219970703125,0.8895721435546875,-0.083251953125
-0.478759765625,0.8898773193359375,-0.13983154296875
-0.6224212646484375,1.02691650390625,-0.0971527099609375
-0.54864501953125,1.04693603515625,-0.1627960205078125
-0.6119232177734375,1.0040283203125,-0.26519775390625
-0.6978912353515625,0.83087158203125,-0.210113525390625
-0.7662506103515625,0.7977142333984375,-0.165252685546875
-0.7440948486328125,0.801788330078125,-0.265167236328125
-0.636627197265625,0.747314453125,-0.2911224365234375
-0.5314178466796875,0.7315826416015625,-0.1470184326171875
-0.4991302490234375,0.7317047119140625,-0.1205596923828125
-0.5097808837890625,0.6917572021484375,-0.0757904052734375
-0.6913604736328125,0.6738739013671875,-0.1258392333984375
-0.8828887939453125,0.683807373046875,-0.2301177978515625
-0.9659576416015624,0.6834564208984375,-0.431915283203125
-1.06646728515625,0.6389312744140625,-0.5131683349609375
-1.0516510009765625,0.634674072265625,-0.631805419921875
-0.983001708984375,0.5606842041015625,-0.7554473876953125
-0.9454498291015624,0.6943206787109375,-0.8455657958984375
-0.7645111083984375,0.696014404296875,-0.83270263671875
-0.6943817138671875,0.5375213623046875,-0.9232635498046876
-0.616363525390625,0.5917510986328125,-0.9292449951171876
-0.4482421875,0.5860443115234375,-0.73138427734375
-0.4444732666015625,0.5083465576171875,-0.69281005859375
-0.4883880615234375,0.401458740234375,-0.7276458740234375
-0.4393768310546875,0.380523681640625,-0.7577056884765625
-0.3154449462890625,0.2941131591796875,-0.7234954833984375
-0.2698516845703125,0.1743927001953125,-0.801116943359375
-0.3182373046875,0.0423431396484375,-1.1009521484375
-0.3305816650390625,0.026702880859375,-1.2826385498046875
-0.3038482666015625,0.01104736328125,-1.278533935546875
-0.2389678955078125,-0.02471923828125,-1.1140899658203125
-0.1949462890625,-0.0692138671875,-1.18115234375
-0.194091796875,-0.033050537109375,-1.1712493896484375
-0.1759490966796875,-0.0618133544921875,-0.88629150390625
-0.168060302734375,-0.19049072265625,-0.7378997802734375
-0.048553466796875,-0.24609375,-0.880828857421875
-0.1255645751953125,-0.261016845703125,-0.9998626708984376
-0.3221893310546875,-0.232818603515625,-0.9705352783203124
-0.3253173828125,-0.263946533203125,-0.8122100830078125
-0.2134552001953125,-0.2303466796875,-0.8467864990234375
-0.1332244873046875,-0.188232421875,-1.05670166015625
-0.0709228515625,-0.2719879150390625,-1.0413818359375
0.055389404296875,-0.34735107421875,-0.9015655517578124
0.0323638916015625,-0.34503173828125,-0.858642578125
-0.170501708984375,-0.226226806640625,-0.6927032470703125
-0.210357666015625,-0.249603271484375,-0.8225250244140625
-0.2095947265625,-0.3106231689453125,-0.6822052001953125
-0.2614898681640625,-0.3733062744140625,-0.6097412109375
-0.2637786865234375,-0.3775482177734375,-0.6085662841796875
-0.156585693359375,-0.4262847900390625,-0.6721343994140625
-0.166656494140625,-0.5160675048828125,-0.4250946044921875
-0.2126312255859375,-0.4785919189453125,-0.39410400390625
-0.1873016357421875,-0.464752197265625,-0.663238525390625
-0.0863037109375,-0.47039794921875,-0.6107177734375
-0.069244384765625,-0.538787841796875,-0.6252593994140625
-0.1672821044921875,-0.634185791015625,-0.6117706298828125
-0.2334442138671875,-0.646331787109375,-0.6148529052734375
-0.31463623046875,-0.6569976806640625,-0.712127685546875
-0.31103515625,-0.6183013916015625,-0.822174072265625
-0.2020263671875,-0.5213470458984375,-1.10870361328125
-0.1959075927734375,-0.5061492919921875,-0.933563232421875
-0.074310302734375,-0.5172576904296875,-0.8693695068359375
-0.1613616943359375,-0.4777069091796875,-0.8081817626953125
-0.2040863037109375,-0.4736175537109375,-0.8302459716796875
-0.156646728515625,-0.4185638427734375,-0.7436370849609375
-0.0200653076171875,-0.3780975341796875,-0.6245880126953125
0.0821685791015625,-0.2389678955078125,-0.16595458984375
0.006500244140625,-0.0066986083984375,0.0045166015625
0.0057830810546875,-0.006500244140625,0.003082275390625
0.00628662109375,-0.0054931640625,-0.000946044921875
0.008087158203125,-0.0037078857421875,-0.00311279296875
0.0064544677734375,-0.004058837890625,-0.012298583984375
0.0052642822265625,-0.004302978515625,-0.0136566162109375
0.0062713623046875,-0.003662109375,-0.0222625732421875
0.0067901611328125,-0.0043487548828125,-0.0311279296875
0.007049560546875,-0.00396728515625,-0.0377349853515625
0.0087890625,-0.003021240234375,-0.0511627197265625
-1.8644256591796875,-2.017929077148437,-1.6150665283203125
0.511474609375,2.6654205322265625,-7.1353912353515625
-0.036346435546875,0.743682861328125,0.1210479736328125
0.0155792236328125,0.0010223388671875,0.01263427734375
0.01751708984375,-0.00396728515625,0.0054931640625
0.01715087890625,-0.0033416748046875,0.0013427734375
0.01934814453125,0.3842315673828125,0.0962982177734375
0.208709716796875,1.09222412109375,-2.7099151611328125
0.7198944091796875,0.6585540771484375,-1.57843017578125
0.07647705078125,0.373443603515625,-0.5217437744140625
0.1741790771484375,0.3256683349609375,-0.6737823486328125
0.226776123046875,0.5466156005859375,-1.089324951171875
0.1599884033203125,0.3909454345703125,-0.7596588134765625
0.1871337890625,0.4710540771484375,-0.893707275390625
0.158477783203125,0.4171295166015625,-0.865570068359375
0.1834564208984375,0.4624786376953125,-0.9020233154296876
0.1627197265625,0.427093505859375,-0.8652496337890625
0.176666259765625,0.4512786865234375,-0.86920166015625
0.1685638427734375,0.4353179931640625,-0.8676605224609375
0.17388916015625,0.4441986083984375,-0.877105712890625
0.18096923828125,0.448272705078125,-0.888153076171875
0.1714630126953125,0.4391632080078125,-0.8648223876953125
0.16876220703125,0.43927001953125,-0.874755859375
0.168365478515625,0.445098876953125,-0.8716888427734375
0.1665802001953125,0.4301605224609375,-0.8659820556640625
0.1725616455078125,0.457305908203125,-0.8817901611328125
0.1634368896484375,0.432098388671875,-0.8575592041015625
0.1912384033203125,0.4564361572265625,-0.968170166015625
0.086517333984375,0.42608642578125,-0.758819580078125
0.1886444091796875,0.392425537109375,-0.89666748046875
0.1416778564453125,0.486175537109375,-0.879974365234375
0.16741943359375,0.4237213134765625,-0.8526763916015625
0.1534271240234375,0.448638916015625,-0.863555908203125
0.1630401611328125,0.4455413818359375,-0.883758544921875
0.1545257568359375,0.441375732421875,-0.8750152587890625
0.1534423828125,0.446563720703125,-0.8724365234375
0.1586761474609375,0.4419403076171875,-0.8669586181640625
0.1629638671875,0.44989013671875,-0.882476806640625
0.153656005859375,0.4525299072265625,-0.876617431640625
0.15673828125,0.44451904296875,-0.8726959228515625
0.150054931640625,0.4427337646484375,-0.87115478515625
0.15802001953125,0.441802978515625,-0.8768310546875
0.1576080322265625,0.454620361328125,-0.8768463134765625
0.1545562744140625,0.44671630859375,-0.8712310791015625
0.1566925048828125,0.444732666015625,-0.919647216796875
0.14849853515625,0.47515869140625,-0.8929443359375
0.1399078369140625,0.42791748046875,-0.8563995361328125
0.1505279541015625,0.4601593017578125,-0.8830413818359375
0.1507110595703125,0.438720703125,-0.8588714599609375
0.1486053466796875,0.4487457275390625,-0.86871337890625
0.1480712890625,0.4486083984375,-0.8751678466796875
0.1487274169921875,0.449554443359375,-0.8765869140625
0.14361572265625,0.452392578125,-0.8737335205078125
0.1508941650390625,0.4494171142578125,-0.8767242431640625
0.1418304443359375,0.4449005126953125,-0.86248779296875
0.1631011962890625,0.4019317626953125,-0.891265869140625
0.084442138671875,0.4964752197265625,-0.8275909423828125
