AccelerationX,AccelerationY,AccelerationZ
0.1386566162109375,-0.4482421875,-1.0119476318359375
0.1012115478515625,-0.41552734375,-0.957061767578125
0.1508331298828125,-0.3656463623046875,-0.9257049560546876
0.1480712890625,-0.3572845458984375,-0.8758087158203125
0.1434326171875,-0.4058990478515625,-0.8444671630859375
0.086944580078125,-0.430419921875,-0.7463531494140625
0.078216552734375,-0.4224395751953125,-0.7477874755859375
0.0732269287109375,-0.333221435546875,-0.9035491943359376
0.0358123779296875,-0.4345245361328125,-0.8660736083984375
0.026031494140625,-0.3637542724609375,-0.7969512939453125
0.110107421875,-0.3697509765625,-0.87493896484375
0.18023681640625,-0.3354339599609375,-0.94500732421875
0.2007598876953125,-0.36114501953125,-0.942657470703125
0.2252960205078125,-0.3457489013671875,-0.93353271484375
0.1561126708984375,-0.327728271484375,-0.9339447021484376
0.2594146728515625,-0.219818115234375,-0.9422607421875
0.2456817626953125,-0.2073211669921875,-0.9649658203125
0.189300537109375,-0.24505615234375,-0.9752044677734376
0.2042083740234375,-0.2403564453125,-0.896636962890625
0.19915771484375,-0.2410430908203125,-0.872894287109375
0.1301116943359375,-0.2167205810546875,-0.9009857177734376
0.140533447265625,-0.20849609375,-1.03155517578125
0.0814208984375,-0.2119140625,-1.0149688720703125
0.0347442626953125,-0.1607513427734375,-1.0378265380859375
0.038299560546875,-0.1908721923828125,-1.05804443359375
0.02093505859375,-0.2015380859375,-1.02587890625
0.0410614013671875,-0.1702880859375,-1.050048828125
0.1398468017578125,-0.234771728515625,-1.088958740234375
0.15533447265625,-0.1802978515625,-1.035797119140625
0.2113189697265625,-0.2011566162109375,-0.967681884765625
0.2707366943359375,-0.17529296875,-0.978302001953125
0.3301849365234375,-0.21551513671875,-0.9990081787109376
0.2951507568359375,-0.2227020263671875,-0.9615936279296876
0.2925567626953125,-0.21234130859375,-0.9562530517578124
0.241943359375,-0.235748291015625,-0.9625701904296876
0.2289276123046875,-0.2563018798828125,-0.947357177734375
0.3154144287109375,-0.248016357421875,-0.9630279541015624
0.3568267822265625,-0.237579345703125,-0.9352264404296876
0.4365997314453125,-0.2271270751953125,-0.817626953125
0.496917724609375,-0.1279449462890625,-0.7650909423828125
0.6210784912109375,-0.1595306396484375,-0.7513885498046875
0.686004638671875,-0.248291015625,-0.7289886474609375
0.6616973876953125,-0.1670684814453125,-0.60693359375
0.5250244140625,-0.05133056640625,-0.5006256103515625
0.490997314453125,-0.0409088134765625,-0.5135498046875
0.4604034423828125,-0.016815185546875,-0.549346923828125
0.5203399658203125,0.0648345947265625,-0.6825103759765625
0.622314453125,0.0948333740234375,-0.7635040283203125
0.7058563232421875,0.1967010498046875,-0.8503875732421875
0.6164703369140625,0.19049072265625,-0.8056793212890625
0.56109619140625,0.3370513916015625,-0.835693359375
0.5416259765625,0.261810302734375,-0.8379974365234375
0.525390625,0.2884368896484375,-0.9617462158203124
0.54547119140625,0.29498291015625,-1.038299560546875
0.544281005859375,0.3721466064453125,-1.0684967041015625
0.49835205078125,0.7429656982421875,-1.309295654296875
0.4889678955078125,0.3631439208984375,-1.01318359375
0.463623046875,0.3130340576171875,-0.9667816162109376
0.4404754638671875,0.24932861328125,-0.9955902099609376
0.430328369140625,0.2512969970703125,-1.0579833984375
0.4614105224609375,0.2545166015625,-1.099700927734375
0.4985809326171875,0.27923583984375,-1.1092529296875
0.523162841796875,0.410858154296875,-1.2062225341796875
0.4746246337890625,0.3212432861328125,-1.138031005859375
0.4474029541015625,0.22686767578125,-0.988922119140625
0.4263153076171875,0.1172332763671875,-0.8245697021484375
0.3885040283203125,0.0067291259765625,-0.7189178466796875
0.3914031982421875,0.0650482177734375,-0.7642364501953125
0.4020843505859375,0.2963409423828125,-0.9232635498046876
0.447662353515625,0.5936126708984375,-0.9940338134765624
0.4915771484375,0.677215576171875,-0.918060302734375
0.49774169921875,0.5915374755859375,-0.83367919921875
0.48492431640625,0.5702362060546875,-0.8224945068359375
0.47149658203125,0.6127471923828125,-0.811004638671875
0.4608001708984375,0.6520233154296875,-0.7661590576171875
0.4259033203125,0.62872314453125,-0.738616943359375
0.39727783203125,0.5763397216796875,-0.7240447998046875
0.3757476806640625,0.554931640625,-0.6998748779296875
0.35394287109375,0.5579071044921875,-0.6511688232421875
0.326751708984375,0.3830108642578125,-0.51446533203125
0.3139801025390625,0.53424072265625,-0.6337890625
0.3261566162109375,0.492828369140625,-0.6891632080078125
0.282623291015625,0.4768218994140625,-0.803497314453125
0.244293212890625,0.4629669189453125,-0.8660736083984375
0.2314910888671875,0.4027099609375,-0.905029296875
0.28582763671875,0.5810546875,-1.0460968017578125
0.3117828369140625,0.7534332275390625,-1.084716796875
0.33990478515625,0.3890838623046875,-0.9372711181640624
0.330963134765625,0.321868896484375,-0.8617706298828125
0.3948974609375,0.292816162109375,-0.677703857421875
0.5026397705078125,0.442779541015625,-0.709503173828125
0.5832672119140625,0.5147705078125,-0.77764892578125
0.6685791015625,0.44561767578125,-0.791748046875
0.6980438232421875,0.4300689697265625,-0.7034149169921875
0.714691162109375,0.487091064453125,-0.6417999267578125
0.7207794189453125,0.6332550048828125,-0.73138427734375
0.8066864013671875,0.673553466796875,-0.7495269775390625
0.826446533203125,0.5386810302734375,-0.6336517333984375
0.7655181884765625,0.457427978515625,-0.5973052978515625
0.675689697265625,0.4934844970703125,-0.6706390380859375
0.6440887451171875,0.505706787109375,-0.7231292724609375
0.62725830078125,0.591461181640625,-0.74951171875
0.6253814697265625,0.523590087890625,-0.656036376953125
0.5775909423828125,0.501220703125,-0.6302337646484375
0.5115509033203125,0.4342041015625,-0.6083831787109375
0.4990997314453125,0.4262237548828125,-0.683929443359375
0.468597412109375,0.5921478271484375,-0.8435516357421875
0.41583251953125,0.5505828857421875,-0.8486175537109375
0.3890838623046875,0.4673309326171875,-0.740997314453125
0.33013916015625,0.3446502685546875,-0.719451904296875
0.33258056640625,0.3446197509765625,-0.870208740234375
0.368133544921875,0.428924560546875,-0.8401947021484375
0.4018707275390625,0.4801025390625,-0.6869964599609375
0.4611968994140625,0.43621826171875,-0.663909912109375
0.4870758056640625,0.34588623046875,-0.7247314453125
0.466552734375,0.393768310546875,-0.8300628662109375
0.518829345703125,0.353851318359375,-0.957427978515625
0.5669097900390625,0.3421173095703125,-1.0028076171875
0.5359344482421875,0.228546142578125,-0.9689178466796876
0.5464019775390625,0.1625213623046875,-0.9283447265625
0.5278472900390625,0.152374267578125,-0.8749847412109375
0.517120361328125,0.14599609375,-0.8673553466796875
0.5532379150390625,0.159515380859375,-0.8739776611328125
0.5610198974609375,0.18511962890625,-0.8487091064453125
0.544921875,0.22705078125,-0.7903594970703125
0.621429443359375,0.3897552490234375,-0.8110504150390625
0.7380828857421875,0.5372161865234375,-0.885162353515625
0.7257232666015625,0.3300933837890625,-0.8349609375
0.7495269775390625,0.41510009765625,-0.9138946533203124
0.71490478515625,0.4324951171875,-0.82476806640625
0.8095855712890625,0.553253173828125,-0.7510833740234375
0.8453216552734375,0.641265869140625,-0.7086029052734375
0.877166748046875,0.6327056884765625,-0.743743896484375
0.855316162109375,0.60546875,-0.7806549072265625
0.784088134765625,0.599609375,-0.759674072265625
0.6968231201171875,0.6182098388671875,-0.7094573974609375
0.6307525634765625,0.6169891357421875,-0.6777191162109375
0.5641937255859375,0.5593414306640625,-0.636871337890625
0.479034423828125,0.5243072509765625,-0.642822265625
0.402191162109375,0.521026611328125,-0.615936279296875
0.350677490234375,0.48284912109375,-0.5947418212890625
0.2981414794921875,0.4730072021484375,-0.602325439453125
0.2423858642578125,0.4420013427734375,-0.65423583984375
0.228240966796875,0.3967437744140625,-0.71087646484375
0.2212982177734375,0.429595947265625,-0.79791259765625
0.298492431640625,0.5042266845703125,-0.9243621826171876
0.5489501953125,0.6907806396484375,-1.1558685302734375
0.622039794921875,0.6041259765625,-0.99298095703125
0.5765838623046875,0.4345245361328125,-0.760528564453125
0.4784698486328125,0.499267578125,-0.7657928466796875
0.489837646484375,0.4383697509765625,-0.825347900390625
0.5773162841796875,0.352508544921875,-0.8825531005859375
0.66571044921875,0.3238525390625,-0.887054443359375
0.7037353515625,0.3933258056640625,-0.917572021484375
0.7055206298828125,0.4267120361328125,-0.9404449462890624
0.6030120849609375,0.3334197998046875,-0.850006103515625
0.493804931640625,0.2534637451171875,-0.828094482421875
0.4264678955078125,0.2664337158203125,-0.8625030517578125
0.44769287109375,0.3203887939453125,-0.865875244140625
0.4871368408203125,0.3595428466796875,-0.8607025146484375
0.5100250244140625,0.3452301025390625,-0.863006591796875
0.498321533203125,0.3546905517578125,-0.8670806884765625
0.5543365478515625,0.40185546875,-0.84033203125
0.636871337890625,0.4812164306640625,-0.8492584228515625
0.64013671875,0.4852752685546875,-0.77252197265625
0.61346435546875,0.469024658203125,-0.717742919921875
0.57666015625,0.4943084716796875,-0.6978302001953125
0.5411529541015625,0.4940032958984375,-0.6649017333984375
0.5541229248046875,0.4774169921875,-0.6483154296875
0.573516845703125,0.5342864990234375,-0.6688995361328125
0.5853424072265625,0.58563232421875,-0.690338134765625
0.608367919921875,0.5645599365234375,-0.7204742431640625
0.6586456298828125,0.5471343994140625,-0.74798583984375
0.714569091796875,0.4794769287109375,-0.7306976318359375
0.7749176025390625,0.42547607421875,-0.687042236328125
0.80401611328125,0.4347991943359375,-0.650726318359375
0.7509918212890625,0.505950927734375,-0.604705810546875
0.67889404296875,0.55206298828125,-0.5920867919921875
0.62078857421875,0.5377960205078125,-0.6066436767578125
0.5517578125,0.58349609375,-0.73797607421875
0.4761810302734375,0.553741455078125,-0.8019866943359375
0.4559173583984375,0.4553680419921875,-0.7817840576171875
0.4219512939453125,0.42852783203125,-0.791961669921875
0.414306640625,0.527587890625,-0.8856353759765625
0.4302978515625,0.6781158447265625,-0.94073486328125
0.4102935791015625,0.622802734375,-0.813751220703125
0.375885009765625,0.49810791015625,-0.77105712890625
0.3031158447265625,0.370697021484375,-0.8595123291015625
0.2707977294921875,0.2990264892578125,-0.8818817138671875
0.2860107421875,0.3432159423828125,-0.8670196533203125
0.345367431640625,0.4376373291015625,-0.8081512451171875
0.45623779296875,0.55572509765625,-0.822998046875
0.5169219970703125,0.529937744140625,-0.7915496826171875
0.5155029296875,0.4079132080078125,-0.7007293701171875
0.4631805419921875,0.3762664794921875,-0.695068359375
0.3880767822265625,0.4675140380859375,-0.7515106201171875
0.399444580078125,0.495849609375,-0.7117767333984375
0.4422607421875,0.4861297607421875,-0.6619873046875
0.4788970947265625,0.4730987548828125,-0.67864990234375
0.45379638671875,0.457183837890625,-0.7689361572265625
0.4557647705078125,0.453826904296875,-0.833587646484375
0.474456787109375,0.4139404296875,-0.8408203125
0.476837158203125,0.3723907470703125,-0.839447021484375
0.48773193359375,0.3754425048828125,-0.869171142578125
0.5074615478515625,0.3876495361328125,-0.90576171875
0.5623321533203125,0.4214630126953125,-0.9470672607421876
0.656280517578125,0.5362701416015625,-0.987335205078125
0.6293487548828125,0.37548828125,-0.8876953125
0.6371612548828125,0.4853973388671875,-0.936279296875
0.601165771484375,0.4841766357421875,-0.8420867919921875
0.5205535888671875,0.318023681640625,-0.6442108154296875
0.4927978515625,0.390380859375,-0.658447265625
0.4960784912109375,0.625946044921875,-0.779144287109375
0.5589599609375,0.6268310546875,-0.7886962890625
0.5972442626953125,0.5105133056640625,-0.7738037109375
0.5447235107421875,0.5088348388671875,-0.7913818359375
0.5162353515625,0.55426025390625,-0.756805419921875
0.56085205078125,0.5972442626953125,-0.7061004638671875
0.5834808349609375,0.603790283203125,-0.6527252197265625
0.582550048828125,0.574798583984375,-0.6160888671875
0.5526123046875,0.554351806640625,-0.60308837890625
0.531890869140625,0.557647705078125,-0.5790557861328125
0.5079498291015625,0.5359954833984375,-0.5469818115234375
0.4477996826171875,0.5074462890625,-0.5438690185546875
0.40203857421875,0.4806671142578125,-0.6051788330078125
0.369232177734375,0.518524169921875,-0.73736572265625
0.38763427734375,0.63201904296875,-0.91729736328125
0.4105072021484375,0.6315765380859375,-0.909912109375
0.4033050537109375,0.45269775390625,-0.8047027587890625
0.3840789794921875,0.334136962890625,-0.8419647216796875
0.378814697265625,0.249542236328125,-0.8939666748046875
0.4441986083984375,0.420257568359375,-0.9544525146484376
0.5322113037109375,0.6566314697265625,-0.8941192626953125
0.5208587646484375,0.5994873046875,-0.7023162841796875
0.4392852783203125,0.42816162109375,-0.7112274169921875
0.3501434326171875,0.4239044189453125,-0.81988525390625
0.3457183837890625,0.4366912841796875,-0.86285400390625
0.4046630859375,0.47467041015625,-0.830352783203125
0.4778289794921875,0.470794677734375,-0.8040924072265625
0.531951904296875,0.4343109130859375,-0.786376953125
0.5511016845703125,0.4091949462890625,-0.765716552734375
0.5699615478515625,0.4212799072265625,-0.7272796630859375
0.600677490234375,0.4477691650390625,-0.6821441650390625
0.6243896484375,0.467132568359375,-0.6399383544921875
0.6509552001953125,0.4893798828125,-0.61602783203125
0.664215087890625,0.5254669189453125,-0.6337432861328125
0.6974945068359375,0.662994384765625,-0.77294921875
0.7010498046875,0.7207183837890625,-0.7768707275390625
0.6866607666015625,0.5995330810546875,-0.715545654296875
0.6214141845703125,0.6438751220703125,-0.770416259765625
0.5430755615234375,0.578521728515625,-0.6705780029296875
0.5347747802734375,0.511383056640625,-0.5916290283203125
0.511993408203125,0.6397857666015625,-0.6620025634765625
0.5073394775390625,0.711700439453125,-0.7138671875
0.5557708740234375,0.6649322509765625,-0.6752166748046875
0.594390869140625,0.567779541015625,-0.575927734375
0.5404205322265625,0.5728302001953125,-0.546142578125
0.5063018798828125,0.56878662109375,-0.5923309326171875
0.5216827392578125,0.545745849609375,-0.656829833984375
0.503143310546875,0.5498199462890625,-0.688018798828125
0.49041748046875,0.5441436767578125,-0.69317626953125
0.466094970703125,0.52069091796875,-0.6844329833984375
0.43017578125,0.479949951171875,-0.6557464599609375
0.3896331787109375,0.4759979248046875,-0.6702728271484375
0.35614013671875,0.51556396484375,-0.69012451171875
0.4087982177734375,0.54302978515625,-0.6866302490234375
0.445709228515625,0.5694427490234375,-0.7063751220703125
0.4439849853515625,0.5456085205078125,-0.7238006591796875
0.427032470703125,0.5002288818359375,-0.7756805419921875
0.4708709716796875,0.4944000244140625,-0.8254241943359375
0.57928466796875,0.637115478515625,-0.956817626953125
0.692840576171875,0.896942138671875,-1.07342529296875
0.65625,0.5332489013671875,-0.8377227783203125
0.695526123046875,0.4186248779296875,-0.972320556640625
0.620941162109375,0.193084716796875,-0.9285125732421876
0.5884857177734375,-0.061492919921875,-0.726409912109375
0.5691680908203125,0.155242919921875,-0.7295379638671875
0.616668701171875,0.4726715087890625,-0.8205718994140625
0.7964019775390625,0.67364501953125,-0.930999755859375
0.9439239501953124,0.721405029296875,-0.8717193603515625
0.878997802734375,0.67254638671875,-0.60357666015625
0.7623291015625,0.7034759521484375,-0.5822906494140625
0.72235107421875,0.8007659912109375,-0.623046875
0.60955810546875,0.7718353271484375,-0.64349365234375
0.5565948486328125,0.7244873046875,-0.6217193603515625
0.495819091796875,0.6338348388671875,-0.61090087890625
0.4720001220703125,0.5759124755859375,-0.6401214599609375
0.440704345703125,0.540191650390625,-0.681610107421875
0.44403076171875,0.52703857421875,-0.6905975341796875
0.423248291015625,0.5067596435546875,-0.664520263671875
0.4040679931640625,0.5220794677734375,-0.675933837890625
0.3708038330078125,0.494354248046875,-0.681610107421875
0.3565216064453125,0.497802734375,-0.7043914794921875
0.330657958984375,0.5162353515625,-0.73956298828125
0.353759765625,0.487060546875,-0.80963134765625
0.43597412109375,0.445892333984375,-0.8263092041015625
0.42535400390625,0.4781036376953125,-0.7585296630859375
0.388671875,0.5386199951171875,-0.799896240234375
0.417266845703125,0.5915069580078125,-0.834014892578125
0.502105712890625,0.703125,-0.9349517822265624
0.50238037109375,0.521575927734375,-0.8495941162109375
0.5465087890625,0.4278411865234375,-0.8888702392578125
0.56512451171875,0.33984375,-0.909393310546875
0.5648345947265625,0.319793701171875,-0.8444366455078125
0.5280914306640625,0.400665283203125,-0.7997283935546875
0.4732666015625,0.437957763671875,-0.7327117919921875
0.4432525634765625,0.438873291015625,-0.6935272216796875
0.4594268798828125,0.51654052734375,-0.70953369140625
0.519317626953125,0.694091796875,-0.8389434814453125
0.5401458740234375,0.606292724609375,-0.878204345703125
0.5565338134765625,0.4554290771484375,-0.876556396484375
0.508087158203125,0.3803253173828125,-0.820281982421875
0.4816131591796875,0.444091796875,-0.73797607421875
0.4975738525390625,0.584564208984375,-0.6883087158203125
0.499420166015625,0.6400299072265625,-0.6689300537109375
0.4666290283203125,0.6839141845703125,-0.6686248779296875
0.4525909423828125,0.6612091064453125,-0.5870819091796875
0.4706878662109375,0.53277587890625,-0.630126953125
0.478515625,0.44708251953125,-0.6853790283203125
0.495147705078125,0.471588134765625,-0.7616729736328125
0.4441986083984375,0.407958984375,-0.7955169677734375
0.337890625,0.5189666748046875,-0.846527099609375
0.34014892578125,0.5382537841796875,-0.7878875732421875
0.4312286376953125,0.4539031982421875,-0.8010101318359375
0.47802734375,0.4259033203125,-0.77410888671875
0.48382568359375,0.394012451171875,-0.7619781494140625
0.4026641845703125,0.432342529296875,-0.7930755615234375
0.38165283203125,0.454559326171875,-0.770416259765625
0.42633056640625,0.4346923828125,-0.768035888671875
0.467803955078125,0.4282684326171875,-0.7811126708984375
0.4993743896484375,0.41326904296875,-0.7600250244140625
0.4954376220703125,0.3898773193359375,-0.75244140625
0.524871826171875,0.5640411376953125,-0.8686370849609375
0.5543365478515625,0.5819244384765625,-0.8511962890625
0.512298583984375,0.3407745361328125,-0.6450042724609375
0.478363037109375,0.31195068359375,-0.665313720703125
0.5020904541015625,0.3431396484375,-0.78790283203125
0.5644073486328125,0.4017791748046875,-0.8212738037109375
0.579803466796875,0.419708251953125,-0.752838134765625
0.5697021484375,0.4187774658203125,-0.7042388916015625
0.518157958984375,0.4287109375,-0.703033447265625
0.512359619140625,0.52447509765625,-0.7650604248046875
0.51318359375,0.6468658447265625,-0.8072662353515625
0.4963531494140625,0.620208740234375,-0.7830047607421875
0.4477996826171875,0.497650146484375,-0.744140625
0.3877716064453125,0.4501495361328125,-0.7393951416015625
0.36572265625,0.4903717041015625,-0.7484283447265625
0.3657989501953125,0.556182861328125,-0.741607666015625
0.384979248046875,0.517913818359375,-0.7104949951171875
0.4021453857421875,0.440521240234375,-0.7193603515625
0.405914306640625,0.4166259765625,-0.7541046142578125
0.4246368408203125,0.4254302978515625,-0.7871551513671875
0.4652252197265625,0.4403533935546875,-0.8121337890625
0.5093231201171875,0.4732666015625,-0.8252716064453125
0.4846649169921875,0.47149658203125,-0.845855712890625
0.4492950439453125,0.47454833984375,-0.8810577392578125
0.48797607421875,0.55560302734375,-0.9420928955078124
0.4781951904296875,0.425628662109375,-0.8301239013671875
0.4859161376953125,0.4254913330078125,-0.8081817626953125
0.494842529296875,0.5080718994140625,-0.794189453125
0.4928436279296875,0.4444732666015625,-0.6775665283203125
0.506561279296875,0.3719940185546875,-0.6324615478515625
0.4729156494140625,0.3334808349609375,-0.589996337890625
0.46868896484375,0.416748046875,-0.6649169921875
0.5465087890625,0.618804931640625,-0.783966064453125
0.6557464599609375,0.6197509765625,-0.8270111083984375
0.697021484375,0.5194244384765625,-0.796234130859375
0.719818115234375,0.39111328125,-0.750640869140625
0.71954345703125,0.4611968994140625,-0.7304229736328125
0.671295166015625,0.6022186279296875,-0.68603515625
0.6448211669921875,0.6797027587890625,-0.681976318359375
0.5948028564453125,0.702880859375,-0.683929443359375
0.5602264404296875,0.64990234375,-0.6256256103515625
0.561279296875,0.589263916015625,-0.604644775390625
0.53350830078125,0.5715179443359375,-0.6130828857421875
0.5006103515625,0.5446929931640625,-0.612060546875
0.4580078125,0.5193939208984375,-0.6431121826171875
0.396942138671875,0.5536956787109375,-0.71044921875
0.3517608642578125,0.635009765625,-0.8453216552734375
0.3476715087890625,0.783111572265625,-0.92523193359375
0.3226470947265625,0.659271240234375,-0.779266357421875
0.2914581298828125,0.532684326171875,-0.70855712890625
0.26513671875,0.3881072998046875,-0.7572021484375
0.2796173095703125,0.28985595703125,-0.8168182373046875
0.394134521484375,0.3923187255859375,-0.8892669677734375
0.5425872802734375,0.602752685546875,-0.905731201171875
0.579986572265625,0.60675048828125,-0.8038482666015625
0.5412139892578125,0.446258544921875,-0.75592041015625
0.4754180908203125,0.37939453125,-0.8488616943359375
0.4306488037109375,0.4483642578125,-0.90771484375
0.46319580078125,0.499664306640625,-0.810150146484375
0.5132293701171875,0.4870147705078125,-0.7383575439453125
0.501678466796875,0.4377288818359375,-0.7523345947265625
0.506622314453125,0.386016845703125,-0.79541015625
0.54010009765625,0.381072998046875,-0.81231689453125
0.567291259765625,0.3966522216796875,-0.7631683349609375
0.5850677490234375,0.4281005859375,-0.7062530517578125
0.5858001708984375,0.481048583984375,-0.66180419921875
0.591339111328125,0.53973388671875,-0.6334381103515625
0.6583099365234375,0.64849853515625,-0.683990478515625
0.7453155517578125,0.7972564697265625,-0.7768402099609375
0.7661285400390625,0.681488037109375,-0.71209716796875
0.75909423828125,0.63458251953125,-0.6539154052734375
0.677886962890625,0.65625,-0.5767974853515625
0.6309967041015625,0.6216583251953125,-0.51171875
0.6391143798828125,0.827301025390625,-0.6568756103515625
0.6035308837890625,0.87237548828125,-0.6876068115234375
0.604156494140625,0.7538909912109375,-0.6680755615234375
0.59967041015625,0.6508331298828125,-0.5997772216796875
0.52862548828125,0.6383514404296875,-0.56231689453125
0.49530029296875,0.638214111328125,-0.583587646484375
0.512237548828125,0.6122894287109375,-0.629974365234375
0.5078582763671875,0.57330322265625,-0.6655426025390625
0.484771728515625,0.60076904296875,-0.697113037109375
0.455078125,0.5677032470703125,-0.7021942138671875
0.3983001708984375,0.5417938232421875,-0.669036865234375
0.359100341796875,0.4968109130859375,-0.627166748046875
0.313079833984375,0.5052947998046875,-0.6540679931640625
0.2915496826171875,0.5443267822265625,-0.703399658203125
0.3172454833984375,0.5285186767578125,-0.743927001953125
0.337493896484375,0.5235443115234375,-0.797760009765625
0.3597412109375,0.53314208984375,-0.8065032958984375
0.4353485107421875,0.602264404296875,-0.7796783447265625
0.5131072998046875,0.650634765625,-0.7646484375
0.603363037109375,0.6541595458984375,-0.8028564453125
0.7778472900390625,0.8383026123046875,-1.0520477294921875
0.84002685546875,0.7477569580078125,-1.0698089599609375
0.796417236328125,0.5696868896484375,-0.9287872314453124
0.73126220703125,0.4130401611328125,-0.844573974609375
0.64581298828125,0.1214599609375,-0.7238922119140625
0.5737762451171875,0.0279541015625,-0.6701507568359375
0.5262298583984375,0.216217041015625,-0.695892333984375
0.6053466796875,0.490692138671875,-0.7935333251953125
0.71539306640625,0.7097015380859375,-0.8381500244140625
0.717803955078125,0.75628662109375,-0.7388916015625
0.6700897216796875,0.6930999755859375,-0.6264801025390625
0.6465301513671875,0.712738037109375,-0.6189727783203125
0.61334228515625,0.7729644775390625,-0.6397247314453125
0.5743408203125,0.81439208984375,-0.6073150634765625
0.538726806640625,0.7904510498046875,-0.563201904296875
0.5379180908203125,0.7219696044921875,-0.53643798828125
0.51324462890625,0.66387939453125,-0.5413055419921875
0.489776611328125,0.63262939453125,-0.56268310546875
0.4635467529296875,0.596710205078125,-0.5790252685546875
0.4466552734375,0.5634918212890625,-0.5830078125
0.4191741943359375,0.528350830078125,-0.5819091796875
0.3817291259765625,0.5134124755859375,-0.6251068115234375
0.3464202880859375,0.5569000244140625,-0.6832733154296875
0.363800048828125,0.57464599609375,-0.752197265625
0.4361114501953125,0.712310791015625,-0.877166748046875
0.478363037109375,0.6754150390625,-0.8134765625
0.534637451171875,0.590911865234375,-0.762969970703125
0.566497802734375,0.5462799072265625,-0.759063720703125
0.5507965087890625,0.4676055908203125,-0.7064361572265625
0.5560760498046875,0.43121337890625,-0.6817779541015625
0.593994140625,0.5203857421875,-0.7665863037109375
0.6166229248046875,0.5935516357421875,-0.8532562255859375
0.6405029296875,0.569488525390625,-0.8383636474609375
0.6102752685546875,0.4694671630859375,-0.7327728271484375
0.5122222900390625,0.456878662109375,-0.6837921142578125
0.44354248046875,0.50439453125,-0.68597412109375
0.4253082275390625,0.5318145751953125,-0.7068328857421875
0.4734039306640625,0.5797576904296875,-0.742950439453125
0.49090576171875,0.6092376708984375,-0.7519073486328125
0.4787445068359375,0.61407470703125,-0.714111328125
0.47967529296875,0.627227783203125,-0.6896209716796875
0.4555816650390625,0.6331024169921875,-0.694580078125
0.4710235595703125,0.71319580078125,-0.7391204833984375
0.4743499755859375,0.7695159912109375,-0.763275146484375
0.4886932373046875,0.77728271484375,-0.702362060546875
0.50140380859375,0.744964599609375,-0.593109130859375
0.4611358642578125,0.6023406982421875,-0.43206787109375
0.5052490234375,0.514068603515625,-0.4862060546875
0.54376220703125,0.5480194091796875,-0.69403076171875
0.539794921875,0.5643463134765625,-0.760528564453125
0.58685302734375,0.5921630859375,-0.6850433349609375
0.6260833740234375,0.6548919677734375,-0.6019287109375
0.6565704345703125,0.6750030517578125,-0.554107666015625
0.6634674072265625,0.6599273681640625,-0.502471923828125
0.6876373291015625,0.6417694091796875,-0.5011749267578125
0.745880126953125,0.62408447265625,-0.51458740234375
0.7669525146484375,0.6258392333984375,-0.498565673828125
0.78662109375,0.6152801513671875,-0.5212554931640625
0.80029296875,0.5633697509765625,-0.5319366455078125
0.7904815673828125,0.525421142578125,-0.5554351806640625
0.7113800048828125,0.522064208984375,-0.574676513671875
0.6605682373046875,0.5131988525390625,-0.6052093505859375
0.615020751953125,0.49554443359375,-0.627197265625
0.57958984375,0.491455078125,-0.619384765625
0.5858001708984375,0.5302581787109375,-0.638946533203125
0.6620025634765625,0.62042236328125,-0.74212646484375
0.6889190673828125,0.5869140625,-0.7777557373046875
0.6907501220703125,0.4946746826171875,-0.796539306640625
0.6840362548828125,0.4144287109375,-0.8044281005859375
0.61761474609375,0.404388427734375,-0.8326416015625
0.5715484619140625,0.4890899658203125,-0.8779144287109375
0.5217742919921875,0.53851318359375,-0.8474273681640625
0.5125579833984375,0.5444793701171875,-0.7660980224609375
0.5145111083984375,0.46771240234375,-0.685028076171875
0.4976348876953125,0.459320068359375,-0.654693603515625
0.4714202880859375,0.4899749755859375,-0.6557769775390625
0.46124267578125,0.517059326171875,-0.64923095703125
0.483917236328125,0.5621795654296875,-0.6493682861328125
0.5263824462890625,0.57501220703125,-0.6334991455078125
0.523956298828125,0.5019989013671875,-0.6133880615234375
0.5079498291015625,0.4659576416015625,-0.6396636962890625
0.5063629150390625,0.439849853515625,-0.6640625
0.5174407958984375,0.4414520263671875,-0.6717681884765625
0.523284912109375,0.54815673828125,-0.6936492919921875
0.59893798828125,0.77813720703125,-0.842193603515625
0.6504974365234375,0.8585205078125,-0.8928070068359375
0.6577606201171875,0.6100616455078125,-0.740570068359375
0.5323333740234375,0.4044647216796875,-0.6634674072265625
0.4434051513671875,0.2552032470703125,-0.7263946533203125
0.4246673583984375,0.2819976806640625,-0.7964019775390625
0.48846435546875,0.5185089111328125,-0.826080322265625
0.539520263671875,0.7043304443359375,-0.703460693359375
0.560699462890625,0.71368408203125,-0.5326385498046875
0.5424652099609375,0.5616607666015625,-0.420806884765625
0.5063018798828125,0.4994354248046875,-0.4933624267578125
0.487152099609375,0.5548858642578125,-0.6130828857421875
0.4912109375,0.5934600830078125,-0.648345947265625
0.5498046875,0.60137939453125,-0.6086578369140625
0.5610198974609375,0.5844573974609375,-0.616546630859375
0.521759033203125,0.5446319580078125,-0.6548309326171875
0.50445556640625,0.517333984375,-0.6957244873046875
0.48193359375,0.515106201171875,-0.6996612548828125
0.463958740234375,0.5095367431640625,-0.655517578125
0.4737396240234375,0.5055389404296875,-0.633209228515625
0.48779296875,0.5159149169921875,-0.663543701171875
0.5040740966796875,0.5225830078125,-0.6927642822265625
0.5319976806640625,0.5545654296875,-0.7325592041015625
0.5619354248046875,0.536865234375,-0.7258758544921875
0.574737548828125,0.60516357421875,-0.7698822021484375
0.5833740234375,0.7370452880859375,-0.8219146728515625
0.60113525390625,0.49066162109375,-0.70635986328125
0.5760955810546875,0.426422119140625,-0.693115234375
0.49017333984375,0.3949127197265625,-0.624114990234375
0.5194091796875,0.591552734375,-0.6671600341796875
0.5951385498046875,0.7396392822265625,-0.7054290771484375
0.7037200927734375,0.623626708984375,-0.690826416015625
0.7460784912109375,0.545379638671875,-0.621795654296875
0.70135498046875,0.5589141845703125,-0.561920166015625
0.635284423828125,0.679229736328125,-0.5880279541015625
0.638336181640625,0.70416259765625,-0.588287353515625
0.6740264892578125,0.66632080078125,-0.5807037353515625
0.6855316162109375,0.6286773681640625,-0.5515594482421875
0.6875,0.63311767578125,-0.5170135498046875
0.6349945068359375,0.6455841064453125,-0.522491455078125
0.5859222412109375,0.6417236328125,-0.53497314453125
0.5078582763671875,0.6241302490234375,-0.5268402099609375
0.4312591552734375,0.6123809814453125,-0.559417724609375
0.4158935546875,0.5255126953125,-0.644989013671875
0.3853912353515625,0.561279296875,-0.6698455810546875
0.39935302734375,0.5932159423828125,-0.74609375
0.430694580078125,0.64080810546875,-0.8644256591796875
0.459228515625,0.572418212890625,-0.82049560546875
0.475860595703125,0.5167999267578125,-0.8000946044921875
0.444122314453125,0.3824920654296875,-0.783050537109375
0.465179443359375,0.3104705810546875,-0.8006744384765625
0.529266357421875,0.47607421875,-0.8379058837890625
0.56829833984375,0.6123046875,-0.8079833984375
0.5975494384765625,0.5392303466796875,-0.702056884765625
0.575592041015625,0.3640594482421875,-0.6443023681640625
0.496307373046875,0.352752685546875,-0.71063232421875
0.5010986328125,0.3903045654296875,-0.7515106201171875
0.553497314453125,0.4803466796875,-0.7443389892578125
0.58746337890625,0.4709320068359375,-0.7318572998046875
0.6061859130859375,0.3898162841796875,-0.749847412109375
0.594207763671875,0.3634796142578125,-0.751800537109375
0.56292724609375,0.425506591796875,-0.726226806640625
0.5555572509765625,0.4838714599609375,-0.691070556640625
0.555267333984375,0.488525390625,-0.6687164306640625
0.546539306640625,0.5071258544921875,-0.66253662109375
0.5298919677734375,0.5402374267578125,-0.68341064453125
0.62347412109375,0.6954345703125,-0.8432464599609375
0.6547088623046875,0.6486968994140625,-0.7812347412109375
0.637176513671875,0.489410400390625,-0.68939208984375
0.6418609619140625,0.5838775634765625,-0.731842041015625
0.5942535400390625,0.63079833984375,-0.6535491943359375
0.5560455322265625,0.5208740234375,-0.5127716064453125
0.5604400634765625,0.5873260498046875,-0.5533447265625
0.550933837890625,0.7773895263671875,-0.6953125
0.640960693359375,0.718994140625,-0.777618408203125
0.6814727783203125,0.5831298828125,-0.699127197265625
0.628753662109375,0.541656494140625,-0.564422607421875
0.5164947509765625,0.622894287109375,-0.5215606689453125
0.4488067626953125,0.6352386474609375,-0.512786865234375
0.443634033203125,0.6497955322265625,-0.54595947265625
0.4369354248046875,0.6303253173828125,-0.5449066162109375
0.4282073974609375,0.6118316650390625,-0.5466766357421875
0.4131927490234375,0.6043701171875,-0.6051177978515625
0.408660888671875,0.5787506103515625,-0.675506591796875
0.413055419921875,0.5492706298828125,-0.710357666015625
0.4281463623046875,0.5266876220703125,-0.7330780029296875
0.4023895263671875,0.523895263671875,-0.7548675537109375
0.372283935546875,0.5148468017578125,-0.7518463134765625
0.4332275390625,0.500396728515625,-0.77508544921875
0.479827880859375,0.5245361328125,-0.812774658203125
0.5563201904296875,0.6313629150390625,-0.918731689453125
0.6434478759765625,0.6600189208984375,-0.92596435546875
0.686767578125,0.5417938232421875,-0.8728179931640625
0.7174835205078125,0.45068359375,-0.8427734375
0.623992919921875,0.3032684326171875,-0.6950225830078125
0.4965057373046875,0.1439666748046875,-0.56439208984375
0.42254638671875,0.332366943359375,-0.7332611083984375
0.5117340087890625,0.5916595458984375,-0.9520111083984376
0.5664215087890625,0.75341796875,-0.9571380615234376
0.55029296875,0.6429901123046875,-0.82586669921875
0.621337890625,0.46368408203125,-0.7291717529296875
0.6412811279296875,0.5742034912109375,-0.70526123046875
0.5986785888671875,0.7166290283203125,-0.7080535888671875
0.5622711181640625,0.7151641845703125,-0.69720458984375
0.512725830078125,0.625701904296875,-0.6885223388671875
0.4988861083984375,0.547271728515625,-0.71099853515625
0.5302886962890625,0.54119873046875,-0.6923980712890625
0.5284576416015625,0.604827880859375,-0.653045654296875
0.5090179443359375,0.6108856201171875,-0.6606903076171875
0.440765380859375,0.52288818359375,-0.6649322509765625
0.3701171875,0.5448150634765625,-0.7349395751953125
0.335662841796875,0.525482177734375,-0.753631591796875
0.3326568603515625,0.486968994140625,-0.73687744140625
0.327423095703125,0.4862213134765625,-0.7524871826171875
0.3143463134765625,0.46478271484375,-0.752349853515625
0.3326568603515625,0.557769775390625,-0.851531982421875
0.3775634765625,0.56689453125,-0.886871337890625
0.426177978515625,0.54632568359375,-0.8287353515625
0.480133056640625,0.698455810546875,-0.86553955078125
0.44512939453125,0.49822998046875,-0.7367401123046875
0.4182586669921875,0.5257110595703125,-0.7000885009765625
0.401123046875,0.5393829345703125,-0.72808837890625
0.4139404296875,0.501312255859375,-0.7440185546875
0.431365966796875,0.5063934326171875,-0.7489471435546875
0.4690093994140625,0.4942626953125,-0.7686004638671875
0.50958251953125,0.48388671875,-0.7955474853515625
0.5303192138671875,0.4954986572265625,-0.8363037109375
0.5366363525390625,0.5054473876953125,-0.8367156982421875
0.5513458251953125,0.637786865234375,-0.935333251953125
0.5473480224609375,0.6912841796875,-0.953033447265625
0.52191162109375,0.56707763671875,-0.8151397705078125
0.462554931640625,0.3845367431640625,-0.722198486328125
0.4358367919921875,0.2758941650390625,-0.7345428466796875
0.4443817138671875,0.3352813720703125,-0.802215576171875
0.5136871337890625,0.5456695556640625,-0.8585662841796875
0.5560760498046875,0.707366943359375,-0.770904541015625
0.550689697265625,0.673828125,-0.6158447265625
0.488525390625,0.576751708984375,-0.557037353515625
0.414093017578125,0.53271484375,-0.5873565673828125
0.382904052734375,0.5491943359375,-0.60345458984375
0.3654632568359375,0.592041015625,-0.593170166015625
0.388153076171875,0.592926025390625,-0.635162353515625
0.4248809814453125,0.5315704345703125,-0.690948486328125
0.4076385498046875,0.4793548583984375,-0.74468994140625
0.3892822265625,0.493072509765625,-0.7761077880859375
0.3760528564453125,0.4714813232421875,-0.75274658203125
0.381195068359375,0.44647216796875,-0.74420166015625
0.3858489990234375,0.4926605224609375,-0.7846221923828125
0.3873291015625,0.4819488525390625,-0.7928009033203125
0.4158172607421875,0.48016357421875,-0.8390960693359375
0.440460205078125,0.4569091796875,-0.8462066650390625
0.47412109375,0.4642486572265625,-0.8528900146484375
0.5177764892578125,0.6657257080078125,-0.9191131591796876
0.54437255859375,0.5304718017578125,-0.8428192138671875
0.5483245849609375,0.464080810546875,-0.834625244140625
0.503936767578125,0.4352569580078125,-0.7629852294921875
0.4523773193359375,0.3060150146484375,-0.6320953369140625
0.460693359375,0.4722137451171875,-0.7100067138671875
0.5061187744140625,0.5926971435546875,-0.8688201904296875
0.6086273193359375,0.6338043212890625,-0.9412841796875
0.65203857421875,0.597412109375,-0.83416748046875
0.66351318359375,0.5182647705078125,-0.66534423828125
0.6207427978515625,0.624114990234375,-0.6589508056640625
0.5488433837890625,0.707977294921875,-0.6850433349609375
0.553375244140625,0.65179443359375,-0.6411895751953125
0.5572662353515625,0.6022491455078125,-0.6191864013671875
0.5083160400390625,0.5657806396484375,-0.598114013671875
0.4866485595703125,0.57110595703125,-0.622772216796875
0.46282958984375,0.52227783203125,-0.666290283203125
0.40179443359375,0.4718170166015625,-0.6366119384765625
0.373687744140625,0.4666900634765625,-0.6361083984375
0.3798370361328125,0.484161376953125,-0.6907501220703125
0.3987579345703125,0.4891357421875,-0.779815673828125
0.382049560546875,0.4354400634765625,-0.855987548828125
0.33905029296875,0.405303955078125,-0.9205322265625
0.3333587646484375,0.401824951171875,-0.9281005859375
0.3356475830078125,0.4272918701171875,-0.898223876953125
0.4039306640625,0.5298614501953125,-1.002655029296875
0.459503173828125,0.599578857421875,-1.07818603515625
0.41876220703125,0.47314453125,-0.906829833984375
0.3592376708984375,0.4120330810546875,-0.8294830322265625
0.3143157958984375,0.2913818359375,-0.7154998779296875
0.318206787109375,0.3303070068359375,-0.7246856689453125
0.3923492431640625,0.6081390380859375,-0.9113311767578124
0.5300750732421875,0.754302978515625,-0.930389404296875
0.556915283203125,0.64697265625,-0.733062744140625
0.5068206787109375,0.5103759765625,-0.5674896240234375
0.430419921875,0.4705352783203125,-0.5892486572265625
0.40020751953125,0.5155181884765625,-0.6587677001953125
0.403900146484375,0.558990478515625,-0.6725921630859375
0.432373046875,0.590423583984375,-0.657958984375
0.473114013671875,0.5347137451171875,-0.666015625
0.4773712158203125,0.513885498046875,-0.7164306640625
0.4816131591796875,0.5279693603515625,-0.722076416015625
0.452178955078125,0.5615997314453125,-0.679229736328125
0.4333343505859375,0.580810546875,-0.6137542724609375
0.4135589599609375,0.592315673828125,-0.56903076171875
0.4258270263671875,0.55621337890625,-0.5645751953125
0.4470062255859375,0.5388336181640625,-0.597808837890625
0.426971435546875,0.5217132568359375,-0.5968017578125
0.43853759765625,0.55352783203125,-0.6728363037109375
0.4983978271484375,0.6126251220703125,-0.750732421875
0.5339813232421875,0.541290283203125,-0.7474212646484375
0.520172119140625,0.5327301025390625,-0.825714111328125
0.5883026123046875,0.7806854248046875,-0.9915008544921876
0.5894927978515625,0.5441436767578125,-0.84869384765625
0.6287841796875,0.5304107666015625,-0.8584747314453125
0.53582763671875,0.4327392578125,-0.7256011962890625
0.51129150390625,0.4833984375,-0.64910888671875
0.5196685791015625,0.606414794921875,-0.6297454833984375
0.6010894775390625,0.6268463134765625,-0.6576995849609375
0.66522216796875,0.632232666015625,-0.7108917236328125
0.6730804443359375,0.562591552734375,-0.6600799560546875
0.647003173828125,0.6046905517578125,-0.61773681640625
0.6361236572265625,0.6831207275390625,-0.6416015625
0.6727294921875,0.643402099609375,-0.5936431884765625
0.686859130859375,0.603363037109375,-0.5524139404296875
0.64154052734375,0.5572662353515625,-0.5555419921875
0.5629119873046875,0.52618408203125,-0.5920257568359375
0.5231170654296875,0.507568359375,-0.6286773681640625
0.455596923828125,0.4974212646484375,-0.6328125
0.4033050537109375,0.4792633056640625,-0.64678955078125
0.32952880859375,0.48504638671875,-0.68280029296875
0.29656982421875,0.4449310302734375,-0.6934356689453125
0.30865478515625,0.4442138671875,-0.702606201171875
0.3573455810546875,0.5586395263671875,-0.859344482421875
0.4021759033203125,0.8399658203125,-1.00018310546875
0.4293975830078125,0.631988525390625,-0.7770843505859375
0.4056396484375,0.43902587890625,-0.731475830078125
0.3249359130859375,0.2374267578125,-0.8145904541015625
0.3509368896484375,0.19512939453125,-0.9020233154296876
0.501617431640625,0.5299530029296875,-0.9880523681640624
0.5331878662109375,0.6863861083984375,-0.86065673828125
0.4828338623046875,0.5158843994140625,-0.768218994140625
0.4523468017578125,0.398345947265625,-0.8187103271484375
0.415863037109375,0.433807373046875,-0.874176025390625
0.4278717041015625,0.5584259033203125,-0.8170013427734375
0.4690704345703125,0.5416412353515625,-0.734375
0.4905853271484375,0.4561614990234375,-0.72955322265625
0.5020751953125,0.4082183837890625,-0.7528076171875
0.5198211669921875,0.4320220947265625,-0.7434844970703125
0.5266571044921875,0.4811553955078125,-0.6687774658203125
0.5294036865234375,0.52349853515625,-0.6096038818359375
0.553924560546875,0.6158294677734375,-0.6089630126953125
0.5732269287109375,0.6651763916015625,-0.6044158935546875
0.59857177734375,0.6676483154296875,-0.628265380859375
0.61993408203125,0.5999755859375,-0.6854095458984375
0.634918212890625,0.482391357421875,-0.6639251708984375
0.6476898193359375,0.4751739501953125,-0.66455078125
0.6425933837890625,0.6764984130859375,-0.716827392578125
0.6354522705078125,0.7626800537109375,-0.681396484375
0.6544342041015625,0.6957550048828125,-0.5836944580078125
0.639434814453125,0.643310546875,-0.5228729248046875
0.6126861572265625,0.60870361328125,-0.522430419921875
0.6176605224609375,0.613739013671875,-0.5421142578125
0.644439697265625,0.626190185546875,-0.5500640869140625
0.630279541015625,0.5821533203125,-0.5159149169921875
0.620147705078125,0.6379241943359375,-0.64117431640625
0.6030426025390625,0.715362548828125,-0.779632568359375
0.5532379150390625,0.6643524169921875,-0.8127593994140625
0.4738616943359375,0.8386688232421875,-0.958160400390625
0.3154296875,0.6676177978515625,-0.87890625
0.192657470703125,0.4485931396484375,-0.7372283935546875
0.1414794921875,0.308563232421875,-0.6950225830078125
0.1769256591796875,0.3015899658203125,-0.7447357177734375
0.296051025390625,0.435455322265625,-0.843170166015625
0.3761444091796875,0.543304443359375,-0.84912109375
0.443145751953125,0.512176513671875,-0.761962890625
0.4466552734375,0.4374847412109375,-0.7006988525390625
0.432525634765625,0.4178466796875,-0.6919403076171875
0.4477081298828125,0.470855712890625,-0.6976776123046875
0.4753875732421875,0.48028564453125,-0.6839752197265625
0.5056304931640625,0.48321533203125,-0.7063446044921875
0.5270538330078125,0.4638671875,-0.77490234375
0.5271148681640625,0.41009521484375,-0.8254547119140625
0.510223388671875,0.3491058349609375,-0.8288116455078125
0.4920501708984375,0.359466552734375,-0.843170166015625
0.4775390625,0.415863037109375,-0.83526611328125
0.4790496826171875,0.4653472900390625,-0.8323211669921875
0.4833526611328125,0.489288330078125,-0.8381500244140625
0.515350341796875,0.578704833984375,-0.9029541015625
0.548492431640625,0.659942626953125,-0.92889404296875
0.51165771484375,0.4553375244140625,-0.8069305419921875
0.4692840576171875,0.4508209228515625,-0.804107666015625
0.4586944580078125,0.49444580078125,-0.734588623046875
0.454193115234375,0.45794677734375,-0.585479736328125
0.47601318359375,0.4828643798828125,-0.5672760009765625
0.488128662109375,0.70220947265625,-0.7076568603515625
0.541046142578125,0.66497802734375,-0.7513427734375
0.57257080078125,0.5618438720703125,-0.6622161865234375
0.5843505859375,0.519134521484375,-0.5686187744140625
0.5876617431640625,0.557891845703125,-0.557586669921875
0.565673828125,0.60418701171875,-0.6240081787109375
0.558197021484375,0.554718017578125,-0.6527252197265625
0.514739990234375,0.515899658203125,-0.644805908203125
0.4799346923828125,0.5411834716796875,-0.669219970703125
0.4539642333984375,0.5620269775390625,-0.7156982421875
0.4213104248046875,0.5446014404296875,-0.7216339111328125
0.395965576171875,0.5195159912109375,-0.7221221923828125
0.363067626953125,0.5353240966796875,-0.697479248046875
0.380126953125,0.5250701904296875,-0.681671142578125
0.40533447265625,0.557373046875,-0.7284393310546875
0.4356842041015625,0.5914306640625,-0.7898406982421875
0.5385284423828125,0.748809814453125,-0.8996429443359375
0.558990478515625,0.6825408935546875,-0.8043975830078125
0.5655059814453125,0.5633392333984375,-0.7248382568359375
0.4991455078125,0.4027252197265625,-0.718017578125
0.4586181640625,0.2530517578125,-0.7255859375
0.4222412109375,0.2274322509765625,-0.7278289794921875
0.501312255859375,0.548919677734375,-0.8481597900390625
0.56787109375,0.798004150390625,-0.817535400390625
0.6001739501953125,0.6358642578125,-0.6375274658203125
0.6002655029296875,0.468048095703125,-0.5597381591796875
0.5625762939453125,0.5091094970703125,-0.62030029296875
0.5548553466796875,0.561920166015625,-0.6112823486328125
0.547515869140625,0.6324920654296875,-0.6098785400390625
0.5784149169921875,0.624420166015625,-0.6139068603515625
0.5764617919921875,0.5952606201171875,-0.59442138671875
0.5629119873046875,0.5854644775390625,-0.61492919921875
0.5429840087890625,0.5712738037109375,-0.5991668701171875
0.518280029296875,0.5831146240234375,-0.5855560302734375
0.502593994140625,0.5675811767578125,-0.554107666015625
0.4918060302734375,0.5518951416015625,-0.529266357421875
0.4591827392578125,0.538177490234375,-0.5609130859375
0.4175872802734375,0.514251708984375,-0.6066741943359375
0.34527587890625,0.5123138427734375,-0.6629486083984375
0.381011962890625,0.4331817626953125,-0.729827880859375
0.537384033203125,0.242462158203125,-0.8701629638671875
0.66485595703125,0.335357666015625,-0.9838104248046876
0.729766845703125,0.7257843017578125,-1.068878173828125
0.71783447265625,0.3289337158203125,-0.8054962158203125
0.7459259033203125,0.3650360107421875,-0.819183349609375
0.6271209716796875,0.3060302734375,-0.6771087646484375
0.5514678955078125,0.4271087646484375,-0.56658935546875
0.5010528564453125,0.624053955078125,-0.5611419677734375
0.590728759765625,0.5887603759765625,-0.632598876953125
0.6792449951171875,0.5815582275390625,-0.7369537353515625
0.7034149169921875,0.528839111328125,-0.7796173095703125
0.6871795654296875,0.584564208984375,-0.7860565185546875
0.6288909912109375,0.71209716796875,-0.767608642578125
0.589691162109375,0.6831817626953125,-0.6574249267578125
0.546539306640625,0.627471923828125,-0.59710693359375
0.4764862060546875,0.6160430908203125,-0.5829925537109375
0.425262451171875,0.6123199462890625,-0.58587646484375
0.3826446533203125,0.60809326171875,-0.5867462158203125
0.348785400390625,0.59515380859375,-0.5687713623046875
0.343994140625,0.58306884765625,-0.5560150146484375
0.32879638671875,0.5792083740234375,-0.54241943359375
0.3144073486328125,0.5788116455078125,-0.568695068359375
0.3233489990234375,0.602691650390625,-0.610382080078125
0.3734130859375,0.6426849365234375,-0.6644744873046875
0.49322509765625,0.7061614990234375,-0.7075958251953125
0.6115570068359375,0.6997528076171875,-0.7257537841796875
0.721038818359375,0.72869873046875,-0.79791259765625
0.7796478271484375,0.924163818359375,-0.96014404296875
0.7335205078125,0.8285369873046875,-0.9169464111328124
0.7012481689453125,0.5671234130859375,-0.7602996826171875
0.60052490234375,0.4511566162109375,-0.771331787109375
0.5208282470703125,0.376129150390625,-0.7958984375
0.4782257080078125,0.2812347412109375,-0.80712890625
0.430389404296875,0.2105865478515625,-0.7309112548828125
0.491363525390625,0.3553466796875,-0.818634033203125
0.5753631591796875,0.636322021484375,-0.864288330078125
0.6193389892578125,0.7148895263671875,-0.7623138427734375
0.6356658935546875,0.6663360595703125,-0.6432037353515625
0.6016998291015625,0.6375885009765625,-0.6046600341796875
0.5706329345703125,0.712310791015625,-0.626800537109375
0.5489959716796875,0.7792205810546875,-0.635650634765625
0.5382080078125,0.7801055908203125,-0.586181640625
0.5345001220703125,0.7764892578125,-0.557403564453125
0.504669189453125,0.739532470703125,-0.550628662109375
0.4672393798828125,0.6610107421875,-0.529052734375
0.43878173828125,0.589599609375,-0.47998046875
0.430419921875,0.579864501953125,-0.4492645263671875
0.455535888671875,0.596160888671875,-0.484893798828125
0.5162200927734375,0.7357330322265625,-0.6331634521484375
0.554656982421875,0.8437042236328125,-0.7342376708984375
0.53363037109375,0.5874786376953125,-0.57830810546875
0.5393218994140625,0.44598388671875,-0.5972900390625
0.5076141357421875,0.51812744140625,-0.7292022705078125
0.4994049072265625,0.5601806640625,-0.7427978515625
0.5260772705078125,0.606964111328125,-0.69281005859375
0.5202178955078125,0.71685791015625,-0.7523956298828125
0.515625,0.6229705810546875,-0.8073272705078125
0.5593719482421875,0.5041656494140625,-0.8025970458984375
0.5504608154296875,0.5069122314453125,-0.74176025390625
0.56884765625,0.58953857421875,-0.686126708984375
0.61590576171875,0.6800079345703125,-0.6599884033203125
0.643218994140625,0.74517822265625,-0.61480712890625
0.63433837890625,0.723297119140625,-0.550628662109375
0.6106414794921875,0.6788482666015625,-0.4988861083984375
0.55706787109375,0.6389007568359375,-0.5099029541015625
0.5238800048828125,0.6635284423828125,-0.5870513916015625
0.47149658203125,0.684112548828125,-0.60479736328125
0.425140380859375,0.644622802734375,-0.5683441162109375
0.3772735595703125,0.5972900390625,-0.571075439453125
0.3184814453125,0.60931396484375,-0.5819091796875
0.3021697998046875,0.6256866455078125,-0.6311798095703125
0.3289947509765625,0.7902984619140625,-0.754913330078125
0.3596038818359375,0.7939910888671875,-0.783843994140625
0.423248291015625,0.6737213134765625,-0.8094329833984375
0.4119720458984375,0.59161376953125,-0.875640869140625
0.3905029296875,0.4876708984375,-0.909332275390625
0.3922119140625,0.3867034912109375,-0.888397216796875
0.411376953125,0.3184661865234375,-0.83062744140625
0.4668121337890625,0.475341796875,-0.8500213623046875
0.510833740234375,0.7280426025390625,-0.8440399169921875
0.496551513671875,0.7310333251953125,-0.668975830078125
0.469024658203125,0.590667724609375,-0.519500732421875
0.434234619140625,0.5417938232421875,-0.497467041015625
0.39569091796875,0.5925750732421875,-0.5273590087890625
0.4093475341796875,0.61834716796875,-0.517822265625
0.4395751953125,0.6394805908203125,-0.5129547119140625
0.4712371826171875,0.6690826416015625,-0.573211669921875
0.4742889404296875,0.6448516845703125,-0.627899169921875
0.463592529296875,0.5997314453125,-0.6667633056640625
0.441864013671875,0.5767059326171875,-0.715362548828125
0.424102783203125,0.570648193359375,-0.739013671875
0.40283203125,0.554046630859375,-0.726043701171875
0.3949737548828125,0.552825927734375,-0.7120208740234375
0.41729736328125,0.5906982421875,-0.7430572509765625
0.448760986328125,0.5850830078125,-0.742584228515625
0.53338623046875,0.7233123779296875,-0.8695068359375
0.557037353515625,0.79083251953125,-0.8383636474609375
0.593658447265625,0.5678253173828125,-0.80133056640625
0.627197265625,0.524017333984375,-0.836334228515625
0.6007232666015625,0.4837188720703125,-0.7161102294921875
0.56317138671875,0.455902099609375,-0.5267333984375
0.5850372314453125,0.6249237060546875,-0.538970947265625
0.60400390625,0.8914794921875,-0.6628265380859375
0.6766204833984375,0.9434814453125,-0.7065582275390625
0.725799560546875,0.796356201171875,-0.5645751953125
0.7298583984375,0.7077789306640625,-0.45416259765625
0.651153564453125,0.7794342041015625,-0.4658050537109375
0.62176513671875,0.8071136474609375,-0.4985198974609375
0.6340789794921875,0.7603759765625,-0.47100830078125
0.60394287109375,0.739532470703125,-0.4782257080078125
0.552154541015625,0.713287353515625,-0.4710235595703125
0.5157318115234375,0.6858673095703125,-0.4593963623046875
0.4894561767578125,0.6682281494140625,-0.494110107421875
0.441802978515625,0.69573974609375,-0.60028076171875
0.3345489501953125,0.6185302734375,-0.707275390625
0.2625885009765625,0.6111907958984375,-0.674346923828125
0.2791900634765625,0.5462799072265625,-0.6331329345703125
0.273712158203125,0.522369384765625,-0.7021484375
0.3175201416015625,0.6985626220703125,-0.9528045654296876
0.3215484619140625,0.730621337890625,-1.0086517333984375
0.340423583984375,0.6265411376953125,-0.8923797607421875
0.25909423828125,0.618316650390625,-0.8769378662109375
0.3776702880859375,0.3235015869140625,-0.7070465087890625
0.473175048828125,0.3212738037109375,-0.7105712890625
0.441009521484375,0.6893310546875,-0.901947021484375
0.4456329345703125,0.733123779296875,-0.8079986572265625
0.4561309814453125,0.5251617431640625,-0.66986083984375
0.4120025634765625,0.4763336181640625,-0.7220611572265625
0.4032440185546875,0.5669403076171875,-0.751617431640625
0.438079833984375,0.6136016845703125,-0.7216339111328125
0.448486328125,0.6249237060546875,-0.6697845458984375
0.4313201904296875,0.5958709716796875,-0.6492919921875
0.4374847412109375,0.5824737548828125,-0.7055511474609375
0.4315948486328125,0.6162567138671875,-0.669921875
0.42974853515625,0.6107940673828125,-0.59295654296875
0.4365234375,0.6126861572265625,-0.5961456298828125
0.4459381103515625,0.6317138671875,-0.615325927734375
0.47760009765625,0.63824462890625,-0.5897674560546875
0.470550537109375,0.619293212890625,-0.62225341796875
0.48175048828125,0.6466064453125,-0.615264892578125
0.476470947265625,0.649627685546875,-0.5996246337890625
0.45538330078125,0.630126953125,-0.59552001953125
0.4469757080078125,0.6199188232421875,-0.634368896484375
0.5189971923828125,0.8464813232421875,-0.8133392333984375
0.4713592529296875,0.7245330810546875,-0.7281494140625
0.5040740966796875,0.5742340087890625,-0.6917877197265625
0.52685546875,0.68756103515625,-0.7788238525390625
0.49749755859375,0.6678009033203125,-0.6660614013671875
0.469390869140625,0.5222320556640625,-0.4881439208984375
0.4766082763671875,0.5983428955078125,-0.53302001953125
0.4784698486328125,0.8055877685546875,-0.6975555419921875
0.5209808349609375,0.782623291015625,-0.7568817138671875
0.5853271484375,0.6925048828125,-0.6460113525390625
0.5708465576171875,0.66119384765625,-0.555389404296875
0.532012939453125,0.7327728271484375,-0.5682525634765625
0.482421875,0.8101806640625,-0.5489654541015625
0.41650390625,0.7487945556640625,-0.5095367431640625
0.356964111328125,0.697967529296875,-0.554412841796875
0.30596923828125,0.683197021484375,-0.599639892578125
0.293975830078125,0.7036590576171875,-0.6201629638671875
0.3070831298828125,0.6867218017578125,-0.56951904296875
0.327178955078125,0.6202392578125,-0.5462493896484375
0.32440185546875,0.599517822265625,-0.6275177001953125
0.3222198486328125,0.6327972412109375,-0.66943359375
0.3239593505859375,0.632171630859375,-0.6589508056640625
0.35943603515625,0.6433258056640625,-0.672210693359375
0.3908233642578125,0.671661376953125,-0.708251953125
0.436248779296875,0.68017578125,-0.71966552734375
0.490020751953125,0.6835479736328125,-0.716888427734375
0.5402984619140625,0.7027740478515625,-0.7368621826171875
0.610595703125,0.8225555419921875,-0.8377227783203125
0.629364013671875,0.7878875732421875,-0.8077392578125
0.635162353515625,0.61810302734375,-0.7111968994140625
0.6012420654296875,0.5604095458984375,-0.7410736083984375
0.5607757568359375,0.483306884765625,-0.7794189453125
0.5194549560546875,0.38299560546875,-0.7347869873046875
0.4311065673828125,0.3997344970703125,-0.722564697265625
0.373077392578125,0.5309906005859375,-0.7818756103515625
0.37225341796875,0.782501220703125,-0.873626708984375
0.2762603759765625,0.960235595703125,-0.833770751953125
0.2125091552734375,0.936187744140625,-0.7125244140625
0.199554443359375,0.7950592041015625,-0.637420654296875
0.2027587890625,0.70135498046875,-0.619537353515625
0.1851959228515625,0.7165985107421875,-0.6462249755859375
0.1934661865234375,0.71551513671875,-0.6499176025390625
0.2455596923828125,0.66741943359375,-0.625885009765625
0.290985107421875,0.617950439453125,-0.6029510498046875
0.33673095703125,0.6214141845703125,-0.663909912109375
0.3992919921875,0.5212249755859375,-0.6652984619140625
0.405975341796875,0.5104522705078125,-0.68853759765625
0.4058380126953125,0.5517730712890625,-0.718597412109375
0.414459228515625,0.58203125,-0.734283447265625
0.459747314453125,0.5363006591796875,-0.7301483154296875
0.5316009521484375,0.50030517578125,-0.76910400390625
0.5677490234375,0.51324462890625,-0.7489013671875
0.5607452392578125,0.57415771484375,-0.694671630859375
0.5914459228515625,0.5867462158203125,-0.731536865234375
0.6205902099609375,0.5901641845703125,-0.820220947265625
0.6049652099609375,0.4662933349609375,-0.81719970703125
0.581878662109375,0.510833740234375,-0.812347412109375
0.765045166015625,0.8903961181640625,-0.72503662109375
0.9589385986328124,0.709991455078125,-0.5421295166015625
0.8134613037109375,0.6452789306640625,-0.4910736083984375
0.541351318359375,0.753082275390625,-0.60089111328125
0.6179351806640625,0.875,-0.8118133544921875
0.8230438232421875,0.7419586181640625,-0.8757781982421875
0.88348388671875,0.7673797607421875,-0.7914886474609375
0.876007080078125,0.6924285888671875,-0.8258056640625
0.950225830078125,0.56005859375,-0.8763427734375
0.96954345703125,0.592926025390625,-0.690093994140625
0.94256591796875,0.624267578125,-0.7470245361328125
1.052581787109375,0.335296630859375,-0.79400634765625
0.9616546630859376,0.3792572021484375,-0.586639404296875
0.88507080078125,0.323822021484375,-0.368316650390625
0.81085205078125,0.166046142578125,-0.48492431640625
0.9345550537109376,0.1401214599609375,-0.6834259033203125
0.376739501953125,0.0126800537109375,-0.3868255615234375
0.295318603515625,-0.1246185302734375,-0.3745574951171875
0.5276336669921875,-0.3200836181640625,-0.5972442626953125
0.513885498046875,-0.15313720703125,-1.08447265625
0.270111083984375,-0.1641845703125,-0.436676025390625
0.2740631103515625,-0.0887298583984375,-0.7208099365234375
0.05999755859375,0.0745391845703125,-0.8151397705078125
0.10235595703125,0.018646240234375,-0.9009246826171876
0.0404052734375,-0.0594329833984375,-1.11297607421875
0.033447265625,0.0123291015625,-1.2486724853515625
0.0972900390625,-0.08612060546875,-1.28460693359375
0.027069091796875,-0.119293212890625,-1.152496337890625
0.0002899169921875,-0.0930633544921875,-1.0789031982421875
0.020294189453125,-0.1583404541015625,-1.028472900390625
-0.011474609375,-0.2017669677734375,-0.9707183837890624
-0.048370361328125,-0.2142486572265625,-0.89874267578125
-0.0622711181640625,-0.27142333984375,-0.9000091552734375
-0.07135009765625,-0.2495574951171875,-0.8924713134765625
-0.026458740234375,-0.243408203125,-0.919342041015625
-0.0560760498046875,-0.2775421142578125,-0.93011474609375
-0.096832275390625,-0.229827880859375,-0.92340087890625
-0.0700225830078125,-0.21856689453125,-1.00225830078125
-0.0862579345703125,-0.24310302734375,-0.9332275390625
-0.1020965576171875,-0.2050933837890625,-0.9698028564453124
-0.063690185546875,-0.27496337890625,-0.8382720947265625
0.020782470703125,-0.380645751953125,-0.9526519775390624
-0.02276611328125,-0.3032073974609375,-0.856536865234375
-0.0036773681640625,-0.219268798828125,-0.9775848388671876
0.021240234375,-0.18701171875,-1.0808563232421875
0.0015411376953125,-0.1609344482421875,-1.0597686767578125
-0.0279693603515625,-0.1590728759765625,-1.001068115234375
-0.0203704833984375,-0.2188262939453125,-1.0582122802734375
0.0452117919921875,-0.170989990234375,-1.1661224365234375
0.03631591796875,-0.154022216796875,-1.0666046142578125
0.0068817138671875,-0.0573272705078125,-0.9549560546875
0.145111083984375,-0.2551422119140625,-1.0150604248046875
0.1022186279296875,-0.1491241455078125,-0.9010009765625
0.19744873046875,-0.149993896484375,-0.9133453369140624
0.1182708740234375,-0.05120849609375,-0.9502410888671876
0.15966796875,-0.11248779296875,-1.02264404296875
0.2676544189453125,-0.2468414306640625,-0.8106536865234375
0.4003753662109375,-0.173095703125,-0.916717529296875
0.3682708740234375,-0.1619873046875,-0.9242706298828124
0.3860321044921875,-0.132904052734375,-1.02935791015625
0.4093017578125,-0.1244659423828125,-1.0074005126953125
0.4239501953125,-0.139801025390625,-1.0055389404296875
0.3272705078125,-0.092987060546875,-0.957550048828125
0.2589111328125,-0.064300537109375,-0.8524932861328125
0.2550811767578125,-0.0453643798828125,-0.752960205078125
0.1799163818359375,0.002838134765625,-0.7983245849609375
0.1281585693359375,-0.01531982421875,-0.7421112060546875
0.256072998046875,0.03271484375,-0.71795654296875
0.378204345703125,0.12066650390625,-0.930206298828125
0.5872344970703125,0.2964324951171875,-1.041473388671875
0.9099578857421876,-0.13311767578125,-1.1662750244140625
0.69384765625,-0.0163421630859375,-1.048187255859375
0.7187652587890625,-0.0774688720703125,-0.8696746826171875
0.7811431884765625,0.0063934326171875,-0.8289031982421875
0.6738739013671875,-0.01312255859375,-0.7440338134765625
0.76641845703125,0.030731201171875,-0.69427490234375
0.8034210205078125,-0.06134033203125,-0.6610260009765625
0.74212646484375,-0.072845458984375,-0.6944732666015625
0.735809326171875,-0.11724853515625,-0.68511962890625
0.6820068359375,-0.1700439453125,-0.6889495849609375
0.679473876953125,-0.235870361328125,-0.7629852294921875
0.613616943359375,-0.2215423583984375,-0.7336273193359375
0.6122894287109375,-0.2027587890625,-0.8277130126953125
0.6267242431640625,-0.1797637939453125,-0.8607025146484375
0.63250732421875,-0.187652587890625,-0.834564208984375
0.60443115234375,-0.16534423828125,-0.811431884765625
0.576568603515625,-0.149261474609375,-0.744903564453125
0.5079193115234375,-0.173004150390625,-0.7735137939453125
0.540313720703125,-0.104095458984375,-0.84130859375
0.4929351806640625,-0.0703887939453125,-0.8223724365234375
0.513519287109375,-0.0205841064453125,-0.86566162109375
0.483734130859375,0.0350494384765625,-0.8592376708984375
0.4688720703125,0.0673675537109375,-0.828857421875
0.4269866943359375,0.03167724609375,-0.89068603515625
0.5822906494140625,0.083953857421875,-0.857452392578125
0.5831756591796875,-0.095550537109375,-0.7198333740234375
0.4825286865234375,-0.1549224853515625,-0.6178741455078125
0.8858184814453125,0.0035858154296875,-1.76519775390625
0.7998199462890625,0.0483551025390625,-0.66015625
0.8321380615234375,-0.0135345458984375,-0.6970672607421875
0.758087158203125,-0.0377044677734375,-0.6255340576171875
0.7218170166015625,-0.111480712890625,-0.581146240234375
0.558258056640625,0.0199432373046875,-0.5935516357421875
0.51495361328125,0.1346282958984375,-0.6265869140625
0.3915557861328125,0.1819915771484375,-0.6776123046875
0.35479736328125,0.2220001220703125,-0.7017669677734375
0.3929595947265625,0.288665771484375,-0.7591705322265625
0.43096923828125,0.3780364990234375,-0.840179443359375
0.4979400634765625,0.5503082275390625,-0.8414459228515625
0.605682373046875,0.6453094482421875,-0.855804443359375
0.708343505859375,0.6497039794921875,-0.9527587890625
0.7868499755859375,0.6062164306640625,-1.0452728271484375
0.7975921630859375,0.5564117431640625,-1.1262664794921875
0.79656982421875,0.6063079833984375,-1.220367431640625
0.74810791015625,0.49420166015625,-1.031768798828125
0.684906005859375,0.4456024169921875,-0.8921051025390625
0.5748291015625,0.3911285400390625,-0.8206634521484375
0.5321807861328125,0.252166748046875,-0.6707916259765625
0.480987548828125,0.1143798828125,-0.634246826171875
0.47589111328125,0.2004241943359375,-0.7755889892578125
0.4309844970703125,0.2960052490234375,-1.0159454345703125
0.4229888916015625,0.3274383544921875,-0.9223175048828124
0.3184967041015625,0.2825164794921875,-0.7662353515625
0.1976470947265625,0.2462310791015625,-0.8558349609375
0.1638641357421875,0.3105621337890625,-0.921905517578125
0.18157958984375,0.3421478271484375,-0.943572998046875
0.1968994140625,0.2990875244140625,-0.9571380615234376
0.23834228515625,0.2480010986328125,-0.9037322998046876
0.1546630859375,0.2288818359375,-1.0098114013671875
0.167205810546875,0.2511749267578125,-1.036285400390625
0.2340087890625,0.2895660400390625,-1.0299224853515625
0.274810791015625,0.3223724365234375,-1.018463134765625
0.3150634765625,0.2791595458984375,-0.963897705078125
0.3278045654296875,0.25994873046875,-0.9514312744140624
0.368927001953125,0.25604248046875,-0.952301025390625
0.451202392578125,0.3548736572265625,-1.0255126953125
0.60498046875,0.4833984375,-1.0878753662109375
0.6894683837890625,0.3986968994140625,-0.8842010498046875
0.6720428466796875,0.325775146484375,-0.6766815185546875
0.6349945068359375,0.436798095703125,-0.648223876953125
0.66839599609375,0.506195068359375,-0.60272216796875
0.7627410888671875,0.5871734619140625,-0.498443603515625
0.76226806640625,0.562835693359375,-0.4309539794921875
0.6712799072265625,0.5914154052734375,-0.467742919921875
0.7239990234375,0.554351806640625,-0.5223388671875
0.7214202880859375,0.5642852783203125,-0.5817108154296875
0.739105224609375,0.5627899169921875,-0.6509857177734375
0.6805267333984375,0.5254974365234375,-0.6843109130859375
0.5381317138671875,0.4619140625,-0.832733154296875
0.570526123046875,0.4632720947265625,-0.73175048828125
0.5501861572265625,0.4119415283203125,-0.77020263671875
0.527587890625,0.3514862060546875,-0.839630126953125
0.425384521484375,0.4269561767578125,-0.87451171875
0.3679351806640625,0.44659423828125,-0.86431884765625
0.2695159912109375,0.45849609375,-0.8981781005859375
0.20416259765625,0.457122802734375,-0.9052734375
0.228668212890625,0.4404144287109375,-0.8741607666015625
0.2690887451171875,0.390594482421875,-0.85601806640625
0.2688446044921875,0.386749267578125,-0.8356781005859375
0.2468109130859375,0.4240875244140625,-0.8848419189453125
0.2907562255859375,0.4320526123046875,-0.83984375
0.3367156982421875,0.4079132080078125,-0.821136474609375
0.394287109375,0.4453582763671875,-0.9190216064453124
0.452362060546875,0.3749847412109375,-0.9444580078125
0.4910888671875,0.3726959228515625,-0.9443359375
0.525115966796875,0.4127044677734375,-0.913116455078125
0.5348358154296875,0.414276123046875,-0.856109619140625
0.4877471923828125,0.3584442138671875,-0.75030517578125
0.465484619140625,0.3458709716796875,-0.72650146484375
0.492645263671875,0.4091796875,-0.724365234375
0.5117950439453125,0.4998321533203125,-0.7736968994140625
0.5152435302734375,0.60321044921875,-0.82891845703125
0.518524169921875,0.5821380615234375,-0.7785491943359375
0.491241455078125,0.5121002197265625,-0.7494964599609375
0.4405364990234375,0.4906005859375,-0.7793426513671875
0.4287261962890625,0.535888671875,-0.8217010498046875
0.435638427734375,0.5321197509765625,-0.7744140625
0.419464111328125,0.49212646484375,-0.7482147216796875
0.3702545166015625,0.4584503173828125,-0.7733917236328125
0.35986328125,0.511962890625,-0.8330535888671875
0.35443115234375,0.5469512939453125,-0.8370361328125
0.3580474853515625,0.5388641357421875,-0.88226318359375
0.3680877685546875,0.5146484375,-0.8864593505859375
0.359710693359375,0.4351654052734375,-0.8225555419921875
0.3528594970703125,0.361358642578125,-0.7280426025390625
0.3178863525390625,0.3101654052734375,-0.6774749755859375
0.32037353515625,0.49560546875,-0.8819732666015625
0.3445892333984375,0.57757568359375,-0.948699951171875
0.4099578857421875,0.443572998046875,-0.8486480712890625
0.404083251953125,0.3751220703125,-0.80364990234375
0.3462982177734375,0.3676605224609375,-0.8376617431640625
0.3139495849609375,0.4091033935546875,-0.848785400390625
0.3093414306640625,0.44244384765625,-0.840789794921875
0.3134002685546875,0.4267120361328125,-0.831268310546875
0.298583984375,0.41241455078125,-0.833892822265625
0.304534912109375,0.3966522216796875,-0.85498046875
0.327972412109375,0.396484375,-0.8831024169921875
0.3675689697265625,0.4246673583984375,-0.9046783447265624
0.40802001953125,0.4599761962890625,-0.9141693115234376
0.4416961669921875,0.4912261962890625,-0.950164794921875
0.4887847900390625,0.5961761474609375,-1.0030670166015625
0.4848480224609375,0.488372802734375,-0.8920135498046875
0.3950347900390625,0.46270751953125,-0.8480072021484375
0.3542938232421875,0.3553314208984375,-0.783843994140625
0.334625244140625,0.181243896484375,-0.69097900390625
0.3349151611328125,0.16644287109375,-0.7400970458984375
0.41278076171875,0.3598785400390625,-0.8997344970703125
0.5201568603515625,0.5570831298828125,-0.9084930419921876
0.532928466796875,0.517059326171875,-0.7624664306640625
0.4401092529296875,0.4658660888671875,-0.73504638671875
0.365509033203125,0.477752685546875,-0.7546539306640625
0.36865234375,0.5262908935546875,-0.753936767578125
0.4129638671875,0.5527191162109375,-0.7297210693359375
0.4427947998046875,0.5751800537109375,-0.756134033203125
0.4482879638671875,0.544708251953125,-0.7978363037109375
0.4130706787109375,0.4918212890625,-0.8084716796875
0.375,0.47552490234375,-0.79766845703125
0.3765411376953125,0.4960479736328125,-0.771453857421875
0.398284912109375,0.5150604248046875,-0.7559814453125
0.4244384765625,0.5045013427734375,-0.7747955322265625
0.4510955810546875,0.503387451171875,-0.7696685791015625
0.439544677734375,0.496978759765625,-0.7421112060546875
0.41156005859375,0.503936767578125,-0.7509918212890625
0.371551513671875,0.4775543212890625,-0.7805328369140625
0.350341796875,0.4311676025390625,-0.772216796875
0.3246917724609375,0.409515380859375,-0.7323455810546875
0.3054046630859375,0.4209136962890625,-0.7131195068359375
0.3759307861328125,0.6666412353515625,-0.9450836181640624
0.4496917724609375,0.717803955078125,-0.8870391845703125
0.49932861328125,0.3213043212890625,-0.7635955810546875
0.4354705810546875,0.2774505615234375,-0.7712249755859375
0.4019775390625,0.4827880859375,-0.86297607421875
0.5276031494140625,0.6082000732421875,-0.783447265625
0.73907470703125,0.5651702880859375,-0.63226318359375
0.690643310546875,0.5937652587890625,-0.69256591796875
0.632049560546875,0.5534210205078125,-0.7459564208984375
0.6945953369140625,0.59661865234375,-0.77362060546875
0.72698974609375,0.627899169921875,-0.72967529296875
0.711700439453125,0.67523193359375,-0.7442626953125
0.6454925537109375,0.6651763916015625,-0.6622467041015625
0.506591796875,0.6057891845703125,-0.6277923583984375
0.41217041015625,0.544036865234375,-0.7054443359375
0.408599853515625,0.532196044921875,-0.721405029296875
0.4010467529296875,0.5206451416015625,-0.6681365966796875
0.37091064453125,0.529998779296875,-0.671905517578125
0.34918212890625,0.51885986328125,-0.7064056396484375
0.34222412109375,0.48370361328125,-0.7086181640625
0.3375396728515625,0.4932098388671875,-0.7144927978515625
0.3303070068359375,0.51177978515625,-0.7581329345703125
0.341461181640625,0.5100860595703125,-0.7714996337890625
0.381103515625,0.5266265869140625,-0.7828216552734375
0.4274139404296875,0.5367889404296875,-0.7883453369140625
0.462677001953125,0.521636962890625,-0.8040924072265625
0.489349365234375,0.5063934326171875,-0.8214569091796875
0.5146942138671875,0.4864501953125,-0.8399505615234375
0.534149169921875,0.4568634033203125,-0.83795166015625
0.5621795654296875,0.4640350341796875,-0.861541748046875
0.55035400390625,0.510284423828125,-0.91107177734375
0.5428009033203125,0.5001068115234375,-0.9249267578125
0.5515289306640625,0.5400543212890625,-0.9901275634765624
0.58087158203125,0.5137481689453125,-0.9644622802734376
0.636138916015625,0.6072998046875,-1.052490234375
0.6109619140625,0.488677978515625,-0.840911865234375
0.4749603271484375,0.4938812255859375,-0.8231658935546875
0.3894195556640625,0.3964080810546875,-0.6831207275390625
0.3466796875,0.218505859375,-0.5769195556640625
0.3160400390625,0.258758544921875,-0.68560791015625
0.40771484375,0.4725799560546875,-0.8757476806640625
0.5291748046875,0.5475921630859375,-0.8810272216796875
0.5904388427734375,0.552947998046875,-0.796630859375
0.536651611328125,0.5978851318359375,-0.7819061279296875
0.50579833984375,0.64501953125,-0.7513427734375
0.515899658203125,0.658599853515625,-0.7214202880859375
0.5339202880859375,0.675750732421875,-0.686614990234375
0.5217742919921875,0.6587066650390625,-0.64447021484375
0.4912567138671875,0.616973876953125,-0.6322479248046875
0.4820709228515625,0.589202880859375,-0.6902313232421875
0.492767333984375,0.557647705078125,-0.6845703125
0.50341796875,0.5282440185546875,-0.680145263671875
0.4709320068359375,0.480316162109375,-0.703338623046875
0.42877197265625,0.4570770263671875,-0.7165069580078125
0.396575927734375,0.438201904296875,-0.727264404296875
0.34814453125,0.43463134765625,-0.760650634765625
0.30963134765625,0.4473724365234375,-0.8050537109375
0.3095245361328125,0.488189697265625,-0.8647003173828125
0.3423614501953125,0.447479248046875,-0.8540802001953125
0.371490478515625,0.5355072021484375,-0.9652099609375
0.4006805419921875,0.6236572265625,-0.9557342529296876
0.46697998046875,0.5043182373046875,-0.82208251953125
0.43402099609375,0.4556121826171875,-0.8054656982421875
0.3927154541015625,0.3414764404296875,-0.7209320068359375
0.394927978515625,0.3800201416015625,-0.6982421875
0.4852142333984375,0.677642822265625,-0.8581695556640625
0.59423828125,0.672454833984375,-0.8303070068359375
0.664154052734375,0.5381317138671875,-0.71624755859375
0.62188720703125,0.4449310302734375,-0.6457977294921875
0.502777099609375,0.5130157470703125,-0.683868408203125
0.51495361328125,0.5975494384765625,-0.7503662109375
0.550079345703125,0.6058197021484375,-0.74298095703125
0.5435791015625,0.588409423828125,-0.7239532470703125
0.4929046630859375,0.527496337890625,-0.7220306396484375
0.4489898681640625,0.489349365234375,-0.7834320068359375
0.46575927734375,0.505828857421875,-0.834259033203125
0.4571685791015625,0.4961395263671875,-0.7918548583984375
0.4064483642578125,0.4857635498046875,-0.7808990478515625
0.34918212890625,0.476409912109375,-0.7837066650390625
0.2999420166015625,0.472503662109375,-0.7931671142578125
0.2512359619140625,0.4813079833984375,-0.7933502197265625
0.2350006103515625,0.479705810546875,-0.795166015625
0.207855224609375,0.4808807373046875,-0.81036376953125
0.225921630859375,0.5265045166015625,-0.8760528564453125
0.2951812744140625,0.6434783935546875,-0.916778564453125
0.3663330078125,0.5290069580078125,-0.8179779052734375
0.3349456787109375,0.555999755859375,-0.8130645751953125
0.3463134765625,0.4810943603515625,-0.805511474609375
0.3799896240234375,0.418121337890625,-0.7961578369140625
0.4051055908203125,0.40576171875,-0.8238677978515625
0.465850830078125,0.43896484375,-0.8233642578125
0.529052734375,0.4985809326171875,-0.8688507080078125
0.5153961181640625,0.47467041015625,-0.865081787109375
0.471954345703125,0.3934478759765625,-0.824554443359375
0.3957061767578125,0.3619384765625,-0.829864501953125
0.3702850341796875,0.397979736328125,-0.875518798828125
0.390655517578125,0.438812255859375,-0.877105712890625
0.4089813232421875,0.4288330078125,-0.843048095703125
0.3954925537109375,0.3765106201171875,-0.8311767578125
0.3391571044921875,0.3567962646484375,-0.833038330078125
0.32574462890625,0.3854522705078125,-0.8328857421875
0.3769989013671875,0.4348297119140625,-0.8019561767578125
0.4300689697265625,0.47857666015625,-0.7763519287109375
0.469635009765625,0.532257080078125,-0.785858154296875
0.501708984375,0.565338134765625,-0.814300537109375
0.53009033203125,0.568389892578125,-0.8195953369140625
0.5966339111328125,0.7919921875,-1.006134033203125
0.59661865234375,0.5467071533203125,-0.7801361083984375
0.5770416259765625,0.4683074951171875,-0.75311279296875
0.504852294921875,0.61810302734375,-0.8118743896484375
0.5073699951171875,0.5399169921875,-0.7197265625
0.5257720947265625,0.5525360107421875,-0.7043914794921875
0.5067596435546875,0.607330322265625,-0.7499542236328125
0.5524749755859375,0.63916015625,-0.7948455810546875
0.6302032470703125,0.6380157470703125,-0.765045166015625
0.6614227294921875,0.6472320556640625,-0.723968505859375
0.6350860595703125,0.662109375,-0.742919921875
0.6060943603515625,0.662384033203125,-0.7270050048828125
0.5799102783203125,0.629119873046875,-0.683685302734375
0.5503082275390625,0.61077880859375,-0.6566619873046875
0.5214691162109375,0.5805816650390625,-0.6664886474609375
0.4959564208984375,0.53814697265625,-0.717559814453125
0.469970703125,0.5276947021484375,-0.7721405029296875
0.4697113037109375,0.541717529296875,-0.7774810791015625
0.4699249267578125,0.5505218505859375,-0.776031494140625
0.45281982421875,0.58245849609375,-0.8028411865234375
0.435302734375,0.6071929931640625,-0.814056396484375
0.4227752685546875,0.6088104248046875,-0.8069915771484375
0.410400390625,0.582977294921875,-0.7620849609375
0.3522491455078125,0.531005859375,-0.7359619140625
0.318206787109375,0.4997711181640625,-0.7512359619140625
0.28680419921875,0.451904296875,-0.9082794189453124
0.28863525390625,0.4504852294921875,-0.984283447265625
0.37384033203125,0.4207000732421875,-1.0303955078125
0.3755950927734375,0.4191131591796875,-1.114227294921875
0.366973876953125,0.4618988037109375,-1.173492431640625
0.3583221435546875,0.5305633544921875,-1.0804595947265625
0.3510589599609375,0.46728515625,-0.983306884765625
0.3203125,0.4133148193359375,-0.9240264892578124
0.308929443359375,0.36279296875,-0.85693359375
0.3222198486328125,0.3519744873046875,-0.7697906494140625
0.32391357421875,0.3309173583984375,-0.7546844482421875
0.3828887939453125,0.265380859375,-0.73162841796875
0.409088134765625,0.2122344970703125,-0.7125244140625
0.4403533935546875,0.2323455810546875,-0.70452880859375
0.5792694091796875,0.160675048828125,-0.646240234375
0.59521484375,0.19415283203125,-0.6448211669921875
0.609649658203125,0.218658447265625,-0.67742919921875
0.6375885009765625,0.2281341552734375,-0.7177734375
0.6194305419921875,0.333526611328125,-0.7818756103515625
0.53271484375,0.4247894287109375,-0.8655853271484375
0.4640960693359375,0.409759521484375,-0.8203277587890625
0.4150238037109375,0.4222412109375,-0.75531005859375
0.381439208984375,0.3762664794921875,-0.688507080078125
0.40838623046875,0.4170989990234375,-0.771575927734375
0.3628997802734375,0.65252685546875,-1.0236053466796875
0.3296051025390625,0.7241973876953125,-1.1717681884765625
0.4111175537109375,0.504180908203125,-0.95770263671875
0.416259765625,0.3727874755859375,-0.83837890625
0.312103271484375,0.42974853515625,-0.8842926025390625
0.261993408203125,0.50244140625,-0.933746337890625
0.2684783935546875,0.5315093994140625,-0.95263671875
0.2882232666015625,0.549407958984375,-0.9362640380859376
0.3204803466796875,0.5412750244140625,-0.8706817626953125
0.339508056640625,0.5214385986328125,-0.8338623046875
0.34393310546875,0.52984619140625,-0.822723388671875
0.3633575439453125,0.5529022216796875,-0.8227386474609375
0.3946380615234375,0.59063720703125,-0.7870635986328125
0.4036712646484375,0.6206817626953125,-0.7083892822265625
0.432220458984375,0.6006317138671875,-0.697601318359375
0.4244537353515625,0.543365478515625,-0.7712554931640625
0.3683929443359375,0.425048828125,-0.79449462890625
0.363006591796875,0.3859405517578125,-0.9134674072265624
0.3526458740234375,0.370697021484375,-1.077117919921875
0.386383056640625,0.3382568359375,-1.155120849609375
0.357696533203125,0.26873779296875,-1.0805511474609375
0.2820892333984375,0.1639404296875,-1.1357879638671875
0.227783203125,0.0566558837890625,-1.1475982666015625
0.1906890869140625,-0.02679443359375,-1.1859893798828125
0.219268798828125,-0.122894287109375,-1.08343505859375
0.1715240478515625,-0.193756103515625,-1.08172607421875
0.1560821533203125,-0.2190399169921875,-1.102996826171875
0.218414306640625,-0.1436309814453125,-1.2000885009765625
0.2812957763671875,-0.1312713623046875,-1.24285888671875
0.281646728515625,-0.12158203125,-1.376617431640625
0.313201904296875,-0.0874176025390625,-1.3983612060546875
0.308746337890625,-0.014892578125,-1.5010833740234375
0.3051910400390625,0.1902923583984375,-1.398834228515625
0.263397216796875,0.17401123046875,-0.8516693115234375
0.0265045166015625,0.00445556640625,-0.0298614501953125
0.022064208984375,0.0005340576171875,-0.004180908203125
0.021697998046875,-0.00048828125,-0.0054168701171875
0.020111083984375,1.52587890625e-05,-0.004180908203125
0.017486572265625,-0.0003509521484375,-0.005645751953125
0.01446533203125,0.0009765625,-0.004608154296875
0.0115814208984375,0.0009613037109375,-0.0071563720703125
0.00689697265625,0.0025482177734375,-0.009490966796875
0.0033111572265625,0.00274658203125,-0.013580322265625
-6.4605712890625,4.668548583984375,1.0869598388671875
1.83038330078125,-1.4427947998046875,-5.7803802490234375
0.342987060546875,0.038818359375,-0.5128326416015625
0.0345306396484375,0.100738525390625,-0.25897216796875
-0.0188751220703125,-0.4071044921875,-0.6274566650390625
0.403045654296875,-0.548614501953125,-0.9719085693359376
0.305389404296875,-0.3479766845703125,-0.9824676513671876
0.123382568359375,-0.226470947265625,-0.94940185546875
0.145355224609375,-0.259429931640625,-0.9416351318359376
0.2125396728515625,-0.317230224609375,-0.948577880859375
0.157073974609375,-0.2664031982421875,-0.9445953369140624
0.19635009765625,-0.3027496337890625,-0.946075439453125
0.1693115234375,-0.2736053466796875,-0.94573974609375
0.1865997314453125,-0.2942962646484375,-0.945648193359375
0.172637939453125,-0.2808685302734375,-0.9468231201171876
0.1876068115234375,-0.29144287109375,-0.9477691650390624
0.175811767578125,-0.2824249267578125,-0.9469451904296876
0.1844482421875,-0.2905731201171875,-0.9459686279296876
0.177947998046875,-0.2845306396484375,-0.947479248046875
0.1819305419921875,-0.288177490234375,-0.9462890625
0.179229736328125,-0.286346435546875,-0.947601318359375
0.180206298828125,-0.2875213623046875,-0.9474029541015624
0.1808929443359375,-0.2882080078125,-0.946685791015625
0.180145263671875,-0.285400390625,-0.94818115234375
0.184844970703125,-0.2917938232421875,-0.9484100341796876
0.1712799072265625,-0.283905029296875,-0.954071044921875
0.170562744140625,-0.295440673828125,-0.93206787109375
0.17620849609375,-0.282745361328125,-0.9498748779296876
0.1812744140625,-0.2884674072265625,-0.947113037109375
0.180938720703125,-0.287109375,-0.9483184814453124
0.1808624267578125,-0.284515380859375,-0.94757080078125
0.182159423828125,-0.2892608642578125,-0.945709228515625
0.1801605224609375,-0.258056640625,-0.894287109375
0.1776885986328125,-0.3065338134765625,-0.8397979736328125
0.30755615234375,-0.300689697265625,-0.905242919921875
0.2627716064453125,-0.299041748046875,-0.996673583984375
0.235809326171875,-0.2888336181640625,-0.9988250732421876
0.2810211181640625,-0.29071044921875,-0.943695068359375
0.2675933837890625,-0.314910888671875,-0.926025390625
0.261749267578125,-0.294769287109375,-0.9134979248046876
0.26611328125,-0.310150146484375,-0.9198760986328124
0.2529296875,-0.294097900390625,-0.9077606201171876
0.2595672607421875,-0.2959747314453125,-0.93377685546875
0.259368896484375,-0.2993927001953125,-0.9279327392578124
0.2654266357421875,-0.30169677734375,-0.9214019775390624
0.2626495361328125,-0.2771453857421875,-0.907989501953125
0.2873077392578125,-0.3014068603515625,-0.9593658447265624
