AccelerationX,AccelerationY,AccelerationZ
0.2447052001953125,-0.376495361328125,-0.848052978515625
0.218109130859375,-0.3558807373046875,-0.8336029052734375
0.0950775146484375,-0.3261871337890625,-0.842010498046875
0.12835693359375,-0.288543701171875,-0.8490447998046875
0.539154052734375,-0.2608184814453125,-0.920440673828125
0.5836639404296875,-0.28106689453125,-1.0848236083984375
0.4748687744140625,-0.09173583984375,-1.0959930419921875
0.51397705078125,-0.1133270263671875,-1.1722259521484375
0.6692962646484375,-0.390655517578125,-1.067962646484375
0.5963897705078125,-0.3563385009765625,-1.081085205078125
0.55682373046875,-0.5513458251953125,-1.41387939453125
0.1191253662109375,-0.5187225341796875,-0.6253662109375
0.1884918212890625,-0.4501190185546875,-0.75421142578125
0.320587158203125,-0.370208740234375,-1.0140228271484375
-0.1184539794921875,0.1041259765625,-0.53741455078125
-0.0679473876953125,0.04473876953125,-0.4850921630859375
-0.7348175048828125,0.3590545654296875,-0.537109375
-0.5212860107421875,0.1928558349609375,-0.317657470703125
-0.8771514892578125,-0.07135009765625,0.0017242431640625
-0.7568206787109375,-0.2899627685546875,0.1769561767578125
-0.7020721435546875,-0.5117950439453125,0.15997314453125
-1.638885498046875,-0.6358184814453125,0.057373046875
-1.68695068359375,-0.6252899169921875,0.525299072265625
-0.9988250732421876,-0.695281982421875,-0.0304412841796875
-1.7183837890625,-0.9134521484375,0.0048675537109375
-1.42669677734375,-1.154296875,0.0738677978515625
-0.9688873291015624,-1.148345947265625,0.16217041015625
-0.8846893310546875,-1.01116943359375,-0.038665771484375
-0.8621673583984375,-0.88177490234375,-0.2012786865234375
-1.1518707275390625,-0.960418701171875,-0.4466705322265625
-1.8029937744140625,-1.2750396728515625,-0.268280029296875
-2.425628662109375,-1.1070556640625,-0.441253662109375
-2.39501953125,-0.507080078125,-0.56463623046875
-1.7046661376953125,0.188812255859375,-0.275848388671875
-0.9772796630859376,0.5134429931640625,0.137237548828125
-0.402862548828125,0.413604736328125,0.173065185546875
-0.3416900634765625,0.4654541015625,0.0199127197265625
-0.134613037109375,0.4814910888671875,-0.1263885498046875
-0.2423858642578125,0.4121551513671875,-0.09344482421875
-0.7629547119140625,0.4246063232421875,0.3018646240234375
-1.1858062744140625,0.105865478515625,0.2949371337890625
-1.689117431640625,-0.08685302734375,0.5246734619140625
-1.869598388671875,-0.4438629150390625,0.287078857421875
-1.789703369140625,-0.74652099609375,0.1903533935546875
-1.7865142822265625,-0.7984466552734375,0.227783203125
-1.308197021484375,-0.9967041015625,0.1400604248046875
-1.185791015625,-1.077301025390625,0.1691436767578125
-1.26104736328125,-1.1459503173828125,0.0568695068359375
-1.5486602783203125,-1.029296875,-0.17431640625
-1.8581085205078125,-0.7022552490234375,-0.1172332763671875
-1.7371368408203125,-0.7843780517578125,-0.138214111328125
-2.066925048828125,-0.6119537353515625,-0.029327392578125
-1.8558349609375,-0.53509521484375,-0.1503143310546875
-1.5567779541015625,-0.27777099609375,-0.0052337646484375
-1.2202301025390625,-0.06158447265625,-0.0981597900390625
-0.913604736328125,0.059173583984375,-0.120330810546875
-0.8241424560546875,0.0945587158203125,-0.1354522705078125
-0.6324920654296875,0.1545562744140625,-0.067413330078125
-0.2617340087890625,0.174163818359375,-0.0238189697265625
-0.08905029296875,0.1529998779296875,-0.0608673095703125
-0.1759796142578125,0.203887939453125,-0.056732177734375
-0.485443115234375,0.152374267578125,-0.0018157958984375
-1.211395263671875,0.2054595947265625,0.1373748779296875
-1.43255615234375,0.109710693359375,0.140869140625
-2.211532592773437,-0.1046905517578125,0.459320068359375
-1.8277740478515625,-0.5368499755859375,0.738037109375
-1.5481414794921875,-0.5503082275390625,0.4677276611328125
-1.1742706298828125,-0.726348876953125,0.2551116943359375
-1.095245361328125,-0.8076171875,0.05828857421875
-0.8502655029296875,-0.977691650390625,-0.1746978759765625
-0.8622589111328125,-1.118072509765625,-0.13458251953125
-0.94317626953125,-1.142120361328125,-0.2174224853515625
-1.057769775390625,-1.078857421875,-0.4250030517578125
-1.4230194091796875,-0.9565582275390624,-0.1630096435546875
-1.9046630859375,-0.7004852294921875,-0.063934326171875
-2.0398712158203125,-0.238250732421875,0.0362701416015625
-2.4013214111328125,-0.0485382080078125,0.4311676025390625
-2.027816772460937,0.0297698974609375,0.3939208984375
-1.5160980224609375,0.159393310546875,0.1917266845703125
-0.9753875732421876,0.184478759765625,0.224334716796875
-0.48236083984375,0.2266998291015625,0.2501678466796875
-0.0923919677734375,0.194305419921875,0.1571502685546875
-0.01708984375,0.2408447265625,0.078155517578125
0.0156402587890625,0.24169921875,0.1356964111328125
-0.106903076171875,0.21771240234375,0.1839752197265625
-0.5358123779296875,0.21051025390625,0.3504791259765625
-1.567718505859375,0.47943115234375,0.3510589599609375
-2.4090118408203125,0.0604095458984375,-0.0238189697265625
-2.4135284423828125,-0.2054901123046875,0.5545501708984375
-1.773834228515625,-0.466827392578125,0.2013397216796875
-1.5666351318359375,-0.59393310546875,-0.188079833984375
-1.137176513671875,-0.7570648193359375,-0.24652099609375
-0.8768768310546875,-0.9325714111328124,-0.134185791015625
-0.7320098876953125,-0.994903564453125,-0.10687255859375
-0.6883392333984375,-1.0646209716796875,-0.2707061767578125
-0.83502197265625,-1.029998779296875,-0.103851318359375
-1.024322509765625,-0.964935302734375,-0.0643310546875
-1.362396240234375,-0.775146484375,0.075897216796875
-1.6252593994140625,-0.7031707763671875,0.2254486083984375
-2.162826538085937,-0.6169586181640625,0.48468017578125
-2.7492828369140625,-0.2782745361328125,0.433013916015625
-2.206695556640625,0.186309814453125,0.3063812255859375
-1.68426513671875,0.2396697998046875,0.338592529296875
-1.0298309326171875,0.3103485107421875,0.305419921875
-0.42108154296875,0.4442138671875,0.08917236328125
-0.130859375,0.46630859375,-0.1425933837890625
0.0081024169921875,0.5406494140625,-0.0477752685546875
0.2026519775390625,0.3747711181640625,0.0428314208984375
0.33642578125,0.2738800048828125,0.064361572265625
0.3236083984375,0.3267364501953125,0.12139892578125
-0.513275146484375,0.459808349609375,0.160552978515625
-2.059326171875,1.0335845947265625,0.48553466796875
-2.856170654296875,0.25079345703125,0.627471923828125
-3.432357788085937,0.5694580078125,0.7642059326171875
-2.415634155273437,-0.0153656005859375,0.382537841796875
-1.742401123046875,-0.3641357421875,0.077911376953125
-1.3056182861328125,-0.690277099609375,-0.2824249267578125
-0.8548431396484375,-0.7618255615234375,-0.273101806640625
-0.6404571533203125,-0.814849853515625,-0.2340850830078125
-0.581634521484375,-0.84234619140625,-0.0618743896484375
-0.5305328369140625,-0.889312744140625,0.0640716552734375
-0.6639862060546875,-1.07672119140625,-0.12750244140625
-1.459228515625,-1.107757568359375,-0.310028076171875
-1.6610260009765625,-0.91265869140625,-0.0300140380859375
-2.2344970703125,-0.80548095703125,-0.3146514892578125
-3.029266357421875,-0.307342529296875,-0.0298309326171875
-2.388214111328125,-0.14752197265625,-0.3000946044921875
-1.9130706787109373,0.06573486328125,-0.5322723388671875
-1.3394317626953125,0.2091827392578125,-0.3254852294921875
-0.7627410888671875,0.32318115234375,-0.203125
-0.341339111328125,0.4490203857421875,-0.2012939453125
-0.013031005859375,0.4086761474609375,-0.208831787109375
0.1407928466796875,0.331329345703125,-0.211700439453125
0.184417724609375,0.18353271484375,-0.1052093505859375
0.0658416748046875,0.1580352783203125,-0.0190887451171875
-0.126495361328125,0.18084716796875,-0.130126953125
-0.719024658203125,0.4900360107421875,-0.1170196533203125
-1.6074676513671875,0.5553741455078125,-0.3347015380859375
-2.5052642822265625,0.2275238037109375,-0.3245086669921875
-2.8512725830078125,0.0063934326171875,-0.0328216552734375
-2.1046142578125,-0.463958740234375,-0.27423095703125
-1.9307098388671875,-0.7041168212890625,-0.5732879638671875
-1.5375823974609375,-1.0831298828125,-0.4841156005859375
-1.1043853759765625,-1.19110107421875,-0.538238525390625
-0.9156036376953124,-1.031585693359375,-0.1092071533203125
-0.6852264404296875,-0.8922882080078125,-0.03985595703125
-0.7860565185546875,-0.9167633056640624,0.0305633544921875
-1.2454833984375,-0.7298126220703125,-0.4974365234375
-2.434783935546875,-0.354827880859375,-1.241241455078125
-3.1801300048828125,-0.2988433837890625,-0.79107666015625
-2.6696014404296875,0.0648193359375,-0.63775634765625
-2.2178497314453125,0.3784637451171875,-0.6402435302734375
-1.5564422607421875,0.5028839111328125,-0.4115447998046875
-0.8626556396484375,0.6905670166015625,-0.2514495849609375
-0.2711944580078125,0.6425323486328125,-0.1727294921875
-0.0195159912109375,0.5876922607421875,-0.127899169921875
0.183258056640625,0.3488006591796875,-0.109649658203125
0.1669769287109375,0.219390869140625,0.0312042236328125
0.0254364013671875,0.1241302490234375,0.1436309814453125
-0.239288330078125,0.2273712158203125,0.1921234130859375
-0.58917236328125,0.49090576171875,0.034820556640625
-1.3286285400390625,0.5821685791015625,0.1309814453125
-2.56304931640625,0.37567138671875,0.33905029296875
-2.803192138671875,0.0466766357421875,0.7808837890625
-2.5006103515625,-0.0594940185546875,0.37335205078125
-1.9589691162109373,-0.3345489501953125,0.042388916015625
-1.3406219482421875,-0.6555023193359375,-0.1383056640625
-1.004913330078125,-0.7970733642578125,-0.100006103515625
-0.77899169921875,-0.842864990234375,-0.27093505859375
-0.82550048828125,-0.813751220703125,-0.2772216796875
-0.9259033203125,-0.7915802001953125,-0.2173919677734375
-1.2482147216796875,-0.737823486328125,-0.0143280029296875
-1.555145263671875,-0.6499176025390625,0.1630859375
-1.86419677734375,-0.5867156982421875,0.183807373046875
-2.2364501953125,-0.5560455322265625,0.26934814453125
-2.492950439453125,-0.2628173828125,0.2641754150390625
-1.95703125,-0.0191802978515625,0.149383544921875
-1.3539886474609375,-0.0084228515625,0.164031982421875
-0.882080078125,0.0385284423828125,0.0833740234375
-0.6458282470703125,0.1295623779296875,-0.035614013671875
-0.3491058349609375,0.2201385498046875,-0.1134033203125
-0.0968170166015625,0.21148681640625,-0.0066986083984375
0.116546630859375,0.159210205078125,0.0885772705078125
0.214202880859375,0.0363616943359375,0.05926513671875
0.0892791748046875,-0.0070648193359375,0.1376495361328125
-0.251983642578125,-0.0529327392578125,0.143402099609375
-0.943817138671875,0.2078857421875,0.23712158203125
-1.6453704833984375,-0.0061187744140625,-0.1600189208984375
-2.1507720947265625,-0.1640777587890625,0.53216552734375
-2.317901611328125,-0.4883270263671875,0.0823822021484375
-2.0098876953125,-0.6639556884765625,0.1098480224609375
-1.3203582763671875,-0.83148193359375,-0.1392364501953125
-0.82489013671875,-0.842529296875,-0.13916015625
-0.6714324951171875,-0.8723297119140625,-0.2050933837890625
-0.681640625,-0.8893890380859375,-0.2327423095703125
-0.739349365234375,-0.8651885986328125,-0.0717010498046875
-0.983978271484375,-0.8545684814453125,0.0529937744140625
-1.23919677734375,-0.8074951171875,0.026275634765625
-1.438629150390625,-0.8982086181640625,0.0012054443359375
-2.1599578857421875,-1.0051116943359375,0.2141571044921875
-2.189193725585937,-0.6983184814453125,0.289337158203125
-1.671783447265625,-0.35302734375,0.2385711669921875
-1.196258544921875,-0.19879150390625,0.2039947509765625
-0.8125,-0.043548583984375,0.0363311767578125
-0.472564697265625,0.13623046875,-0.05743408203125
-0.3517303466796875,0.127960205078125,0.033203125
-0.2514190673828125,0.1140899658203125,-0.0224609375
-0.189422607421875,0.1234588623046875,-0.0618438720703125
-0.208038330078125,0.180633544921875,-0.0210113525390625
-0.20660400390625,0.1279754638671875,0.064483642578125
-0.585662841796875,0.134552001953125,0.166259765625
-1.1475067138671875,0.20281982421875,0.2005767822265625
-1.729400634765625,-0.0927276611328125,0.050262451171875
-2.217071533203125,-0.2664337158203125,0.0037841796875
-1.7521209716796875,-0.625640869140625,0.0005035400390625
-1.634552001953125,-0.753509521484375,-0.2296905517578125
-1.3245086669921875,-1.047210693359375,0.17333984375
-1.210174560546875,-0.9994964599609376,-0.000946044921875
-0.9245452880859376,-0.968017578125,-0.2677154541015625
-0.933807373046875,-0.951324462890625,-0.1399383544921875
-0.8711090087890625,-0.93634033203125,-0.238494873046875
-0.8660736083984375,-1.01043701171875,-0.3268585205078125
-1.135528564453125,-1.12640380859375,-0.4589385986328125
-1.5142364501953125,-1.0619049072265625,-0.638092041015625
-1.853790283203125,-0.8814849853515625,-0.5911865234375
-2.574371337890625,-0.567596435546875,-0.52960205078125
-2.465194702148437,-0.3496551513671875,-0.2537994384765625
-1.81561279296875,-0.0875396728515625,-0.211395263671875
-1.1807098388671875,0.00152587890625,-0.2723388671875
-0.751739501953125,0.0926513671875,-0.18896484375
-0.3601531982421875,0.1537322998046875,-0.1022796630859375
-0.148895263671875,0.1922149658203125,-0.064453125
-0.0312957763671875,0.1934814453125,-0.030914306640625
-0.0192108154296875,0.22552490234375,-0.0232086181640625
-0.089996337890625,0.220611572265625,-0.0544586181640625
-0.2344970703125,0.2652435302734375,-0.0788726806640625
-0.4913482666015625,0.36114501953125,-0.1027374267578125
-0.94952392578125,0.4580230712890625,0.0213165283203125
-1.8150634765625,0.3299560546875,-0.087615966796875
-2.679412841796875,-0.30023193359375,-0.135223388671875
-3.025360107421875,-0.4983062744140625,0.3443756103515625
-2.2809600830078125,-0.650146484375,0.3112335205078125
-1.819305419921875,-0.6422882080078125,0.1268768310546875
-1.2074127197265625,-0.6764373779296875,-0.0894317626953125
-0.8180389404296875,-0.6941375732421875,-0.1537628173828125
-0.60498046875,-0.7577667236328125,-0.2225494384765625
-0.641326904296875,-0.8160400390625,-0.1887054443359375
-0.7494659423828125,-0.8224029541015625,-0.1873016357421875
-0.9619598388671876,-0.7578582763671875,-0.14996337890625
-1.2441558837890625,-0.7398681640625,0.01953125
-1.6075592041015625,-0.673919677734375,0.0728607177734375
-2.049057006835937,-0.6604461669921875,0.11151123046875
-2.489593505859375,-0.81597900390625,0.013427734375
-2.157821655273437,-0.5413360595703125,0.02801513671875
-1.956207275390625,-0.3719024658203125,-0.341064453125
-1.63018798828125,-0.1963348388671875,-0.280242919921875
-1.20062255859375,0.020538330078125,-0.250946044921875
-0.8720703125,0.15618896484375,-0.303802490234375
-0.592041015625,0.3577728271484375,-0.2059326171875
-0.3509979248046875,0.4225006103515625,-0.25146484375
-0.1506500244140625,0.38897705078125,-0.0970306396484375
-0.026641845703125,0.288604736328125,-0.1882171630859375
-0.1451873779296875,0.3117828369140625,-0.176300048828125
-0.3220977783203125,0.3397216796875,0.061676025390625
-0.9116668701171876,0.4326019287109375,0.351806640625
-1.9146270751953125,0.2942047119140625,0.33062744140625
-2.675079345703125,0.41851806640625,0.8219757080078125
-2.773651123046875,-0.1492156982421875,0.32147216796875
-2.3246612548828125,-0.786712646484375,0.4828338623046875
-1.602813720703125,-0.965850830078125,0.4935455322265625
-1.0388946533203125,-0.9375762939453124,0.153228759765625
-0.8104095458984375,-0.8233489990234375,0.0070648193359375
-0.843353271484375,-0.7183074951171875,-0.0216522216796875
-0.8674774169921875,-0.6128082275390625,-0.0374298095703125
-1.1011810302734375,-0.6236724853515625,-0.1093292236328125
-1.5879364013671875,-0.5578155517578125,-0.0525970458984375
-1.677825927734375,-0.6455078125,-0.081085205078125
-2.211639404296875,-0.67767333984375,-0.2005767822265625
-2.4180450439453125,-0.625640869140625,-0.3412933349609375
-1.8270721435546875,-0.3738555908203125,-0.463775634765625
-1.755584716796875,-0.2635955810546875,-0.372711181640625
-1.3514404296875,-0.0950469970703125,-0.1320037841796875
-0.8507232666015625,0.0171356201171875,-0.1310577392578125
-0.58203125,0.1205902099609375,-0.127288818359375
-0.401336669921875,0.1950531005859375,-0.1349945068359375
-0.282318115234375,0.313873291015625,-0.0994873046875
-0.079376220703125,0.1776123046875,-0.1799163818359375
-0.043548583984375,0.1284027099609375,-0.2032623291015625
-0.0511016845703125,0.1612701416015625,-0.134674072265625
-0.21209716796875,0.22393798828125,-0.1207275390625
-0.8256988525390625,0.3995819091796875,0.05853271484375
-1.82574462890625,0.4104156494140625,0.3629608154296875
-2.615325927734375,0.139190673828125,0.587860107421875
-2.872802734375,-0.362945556640625,0.3249969482421875
-2.485076904296875,-0.4710845947265625,0.4405059814453125
-1.538299560546875,-0.595550537109375,0.435302734375
-1.14776611328125,-0.59600830078125,0.3078155517578125
-0.80023193359375,-0.606170654296875,0.0821533203125
-0.7722625732421875,-0.596282958984375,-0.012969970703125
-0.7471923828125,-0.609893798828125,0.0260162353515625
-0.808807373046875,-0.6203155517578125,-0.0161285400390625
-1.0157470703125,-0.48095703125,-0.0868682861328125
-1.15936279296875,-0.4551544189453125,-0.0925140380859375
-1.4604339599609375,-0.382354736328125,0.0612945556640625
-1.738006591796875,-0.3907318115234375,-0.132659912109375
-2.017730712890625,-0.3367767333984375,-0.341217041015625
-2.292205810546875,-0.2292327880859375,-0.360504150390625
-1.9008636474609373,-0.20623779296875,-0.144989013671875
-1.8230438232421875,-0.133941650390625,-0.2156982421875
-1.5259552001953125,-0.05230712890625,-0.186859130859375
-1.0582275390625,0.0933074951171875,-0.10760498046875
-0.7234649658203125,0.19769287109375,-0.148895263671875
-0.5949859619140625,0.346435546875,-0.1529083251953125
-0.4217681884765625,0.403167724609375,-0.1047210693359375
-0.2837066650390625,0.2532806396484375,-0.1639556884765625
-0.3570404052734375,0.19317626953125,-0.1369171142578125
-0.3367462158203125,0.1891021728515625,-0.146514892578125
-0.3271026611328125,0.1066131591796875,-0.1566619873046875
-0.588714599609375,0.1184844970703125,0.0105438232421875
-0.882415771484375,0.1832122802734375,0.2384185791015625
-1.4029693603515625,0.1986083984375,0.2846527099609375
-2.42633056640625,0.0954132080078125,0.298828125
-2.5170135498046875,-0.2275238037109375,0.21990966796875
-2.457305908203125,-0.1544952392578125,-0.261566162109375
-1.6459808349609375,-0.1898040771484375,0.0870819091796875
-0.932769775390625,-0.4952850341796875,0.2957305908203125
-1.0300750732421875,-0.5006103515625,0.1171722412109375
-1.077911376953125,-0.540771484375,-0.1324310302734375
-1.2957763671875,-0.53814697265625,-0.401458740234375
-1.235809326171875,-0.48785400390625,-0.132354736328125
-1.02301025390625,-0.4619598388671875,-0.013824462890625
-1.0625,-0.3783416748046875,-0.2293701171875
-1.46649169921875,-0.346588134765625,-0.5056610107421875
-1.65838623046875,-0.3398895263671875,-0.63409423828125
-2.3055572509765625,-0.3494415283203125,-0.652618408203125
-2.604888916015625,-0.2939910888671875,-0.36846923828125
-1.8574981689453125,-0.02044677734375,-0.32391357421875
-1.6044921875,0.070281982421875,-0.4443359375
-1.151336669921875,0.1295013427734375,-0.2630767822265625
-0.6652984619140625,0.175567626953125,-0.242767333984375
-0.410491943359375,0.2144927978515625,-0.2971038818359375
-0.2560272216796875,0.278656005859375,-0.2572021484375
-0.1676025390625,0.2791595458984375,-0.2304534912109375
-0.23583984375,0.3392181396484375,-0.2336273193359375
-0.3435211181640625,0.367767333984375,-0.11627197265625
-0.5318450927734375,0.333404541015625,-0.0203399658203125
-0.7369232177734375,0.333221435546875,0.0714111328125
-1.4379730224609375,0.3559417724609375,0.331268310546875
-1.862945556640625,0.074432373046875,0.4828338623046875
-2.2145233154296875,0.0872039794921875,0.229888916015625
-2.311996459960937,-0.137725830078125,-0.151275634765625
-2.0203094482421875,-0.262725830078125,0.0468292236328125
-1.5969390869140625,-0.395751953125,0.0442962646484375
-1.3385162353515625,-0.499359130859375,-0.002471923828125
-1.113494873046875,-0.5521087646484375,-0.0554351806640625
-1.00201416015625,-0.5505218505859375,-0.0963897705078125
-1.017974853515625,-0.46343994140625,-0.1315765380859375
-1.129364013671875,-0.440032958984375,-0.2176513671875
-1.112457275390625,-0.42498779296875,-0.2252197265625
-1.2155609130859375,-0.393951416015625,-0.1085968017578125
-1.0154876708984375,-0.4155426025390625,-0.2980499267578125
-1.1732025146484375,-0.36981201171875,-0.428131103515625
-1.2105712890625,-0.3841400146484375,-0.5984954833984375
-1.79791259765625,-0.4190521240234375,-0.3145751953125
-2.3922271728515625,-0.3595428466796875,-0.0330047607421875
-2.264434814453125,-0.3961639404296875,-0.14752197265625
-2.139678955078125,-0.2368621826171875,-0.1533966064453125
-1.7228851318359375,-0.078826904296875,-0.1856536865234375
-1.1973419189453125,0.087066650390625,-0.1727447509765625
-0.7813873291015625,0.1185455322265625,-0.2452392578125
-0.57574462890625,0.1971893310546875,-0.2706756591796875
-0.3301849365234375,0.2445068359375,-0.308441162109375
-0.19097900390625,0.231842041015625,-0.31341552734375
-0.209808349609375,0.2185516357421875,-0.185394287109375
-0.2554473876953125,0.2769775390625,-0.123382568359375
-0.2731170654296875,0.246368408203125,-0.1310577392578125
-0.7097015380859375,0.2032928466796875,-0.1229248046875
-1.5221710205078125,0.32269287109375,0.2209625244140625
-1.4452667236328125,-0.1392669677734375,0.145843505859375
-2.0421600341796875,-0.2593231201171875,0.4480133056640625
-2.2902069091796875,-0.2820892333984375,0.6623077392578125
-1.622802734375,-0.377899169921875,0.354339599609375
-1.526214599609375,-0.4265899658203125,0.0988311767578125
-1.3488311767578125,-0.5827178955078125,0.0618743896484375
-1.0665740966796875,-0.605987548828125,-0.0283966064453125
-1.1162261962890625,-0.7060546875,-0.146484375
-1.054595947265625,-0.7343597412109375,0.1259765625
-1.0122528076171875,-0.7647247314453125,0.1295166015625
-1.291717529296875,-0.736480712890625,0.1994171142578125
-1.4737701416015625,-0.6552734375,0.064910888671875
-1.7498931884765625,-0.493682861328125,-0.1644134521484375
-2.019882202148437,-0.46270751953125,-0.4194488525390625
-2.2328338623046875,-0.199615478515625,-0.53717041015625
-2.318954467773437,0.074981689453125,-0.725311279296875
-2.07611083984375,0.16351318359375,-0.463714599609375
-1.4955902099609375,0.2386016845703125,-0.3250732421875
-1.0179443359375,0.31268310546875,-0.23223876953125
-0.6274261474609375,0.3750152587890625,-0.1205902099609375
-0.2969512939453125,0.335540771484375,-0.0970611572265625
-0.147735595703125,0.321807861328125,-0.1120758056640625
-0.20599365234375,0.2593231201171875,-0.059356689453125
-0.1302032470703125,0.2213897705078125,-0.132568359375
-0.18646240234375,0.2332763671875,-0.11859130859375
-0.46136474609375,0.3328094482421875,-0.0054931640625
-1.20208740234375,0.0433349609375,0.2108917236328125
-2.1807098388671875,0.12060546875,0.6025848388671875
-2.10760498046875,-0.518768310546875,0.4697723388671875
-2.22900390625,-0.4261322021484375,0.4682464599609375
-1.5841827392578125,-0.650054931640625,0.0669097900390625
-1.4598541259765625,-0.770263671875,0.1268157958984375
-1.2189178466796875,-0.9358062744140624,0.1526947021484375
-1.0453338623046875,-0.967132568359375,-0.0063629150390625
-0.99139404296875,-1.010406494140625,-0.0005035400390625
-1.056793212890625,-0.9440765380859376,0.143157958984375
-1.03985595703125,-0.8000335693359375,-0.06915283203125
-1.3087158203125,-0.7048187255859375,-0.0986785888671875
-1.575531005859375,-0.74517822265625,-0.0932769775390625
-2.0859832763671875,-0.7453155517578125,-0.1754608154296875
-2.487533569335937,-0.6473236083984375,-0.20025634765625
-2.04302978515625,-0.3464508056640625,-0.1895904541015625
-1.831817626953125,-0.2069854736328125,-0.2268829345703125
-1.5359344482421875,-0.087432861328125,-0.360382080078125
-1.2278289794921875,0.0129852294921875,-0.273101806640625
-0.7892303466796875,0.1727447509765625,-0.1341552734375
-0.4508819580078125,0.16802978515625,-0.08349609375
-0.172271728515625,0.14447021484375,-0.0705413818359375
-0.0553436279296875,-0.038482666015625,-0.04327392578125
-0.3695068359375,-0.03155517578125,-0.1221923828125
-0.4085693359375,0.13330078125,-0.094390869140625
-0.2440643310546875,0.1912078857421875,-0.130645751953125
-0.415130615234375,0.3421783447265625,-0.0043487548828125
-0.8928985595703125,0.5063018798828125,0.285736083984375
-1.5437164306640625,0.1603240966796875,0.42901611328125
-2.63934326171875,0.1423492431640625,0.346954345703125
-2.1511383056640625,-0.46026611328125,-0.0961151123046875
-2.2313995361328125,-0.6341705322265625,0.6813812255859375
-1.5601806640625,-0.6918792724609375,0.2205352783203125
-1.24322509765625,-0.735565185546875,-0.13128662109375
-0.966033935546875,-0.76318359375,-0.0252685546875
-0.8446807861328125,-0.8271942138671875,-0.1019287109375
-0.90606689453125,-0.7874298095703125,-0.11834716796875
-0.9078826904296876,-0.8060302734375,-0.0841064453125
-1.0334625244140625,-0.7791595458984375,-0.0615081787109375
-1.2845458984375,-0.74761962890625,-0.0587005615234375
-1.57501220703125,-0.739044189453125,-0.0611724853515625
-1.7069854736328125,-0.5625,-0.0810089111328125
-1.8194732666015625,-0.5110931396484375,-0.2733154296875
-1.956787109375,-0.3115081787109375,-0.34722900390625
-2.219573974609375,-0.451202392578125,-0.36553955078125
-2.0379791259765625,-0.23992919921875,-0.0875396728515625
-1.4656219482421875,-0.00482177734375,-0.134124755859375
-1.0720672607421875,0.1887664794921875,-0.116790771484375
-0.82940673828125,0.2972412109375,-0.115814208984375
-0.6507720947265625,0.3720245361328125,-0.0944366455078125
-0.349609375,0.3772430419921875,-0.0490875244140625
-0.05780029296875,0.2625579833984375,-0.055938720703125
0.1183013916015625,0.168121337890625,-0.0278472900390625
0.1382293701171875,0.0477752685546875,0.0134735107421875
-0.023406982421875,0.120697021484375,0.1050567626953125
-0.279510498046875,0.10870361328125,0.1881103515625
-1.0899505615234375,0.1435394287109375,0.3634033203125
-2.284042358398437,0.105743408203125,0.5619659423828125
-2.610702514648437,-0.2452545166015625,0.731536865234375
-2.6809844970703125,-0.5169830322265625,0.6263885498046875
-2.1707916259765625,-0.6203460693359375,0.166290283203125
-1.1647491455078125,-0.5154876708984375,0.4058837890625
-0.865936279296875,-0.6038360595703125,0.3835906982421875
-0.8194427490234375,-0.609344482421875,0.112213134765625
-0.8343658447265625,-0.607818603515625,-0.0711517333984375
-0.912200927734375,-0.6046295166015625,0.001617431640625
-1.061614990234375,-0.60205078125,0.0837249755859375
-1.1068572998046875,-0.6007232666015625,0.1982574462890625
-1.26263427734375,-0.587249755859375,0.1495361328125
-1.4610443115234375,-0.5545501708984375,0.05462646484375
-1.67584228515625,-0.5224151611328125,-0.0576171875
-1.9844512939453125,-0.633697509765625,-0.1431884765625
-2.6269073486328125,-0.512664794921875,-0.0869903564453125
-2.184783935546875,-0.3122100830078125,-0.2102813720703125
-1.80517578125,-0.1302947998046875,-0.2390594482421875
-1.4423065185546875,0.0057373046875,-0.096923828125
-0.79888916015625,0.200714111328125,0.027862548828125
-0.3436279296875,0.25958251953125,-0.0555572509765625
-0.1517333984375,0.241729736328125,-0.1441802978515625
-0.158111572265625,0.2502288818359375,-0.1264190673828125
-0.1733551025390625,0.245758056640625,-0.09967041015625
-0.2746124267578125,0.2372894287109375,-0.053619384765625
-0.3227081298828125,0.223663330078125,0.0471954345703125
-0.67681884765625,0.247283935546875,0.1201171875
-1.259521484375,0.3922271728515625,0.603240966796875
-1.5478057861328125,0.2649383544921875,0.746124267578125
-2.0207061767578125,0.285186767578125,0.726776123046875
-2.30157470703125,-0.0545654296875,0.63018798828125
-2.1500701904296875,-0.307373046875,0.7084808349609375
-1.5211334228515625,-0.3638763427734375,0.5496368408203125
-1.2024688720703125,-0.603424072265625,0.530181884765625
-1.053619384765625,-0.6134185791015625,0.4329071044921875
-0.855712890625,-0.7007293701171875,0.0668487548828125
-0.82452392578125,-0.66815185546875,0.1161651611328125
-0.7580718994140625,-0.65325927734375,0.1067047119140625
-0.8765869140625,-0.661163330078125,0.14703369140625
-1.2017669677734375,-0.59466552734375,0.196319580078125
-1.48333740234375,-0.524200439453125,0.203155517578125
-1.565643310546875,-0.4705657958984375,0.1582489013671875
-1.5380859375,-0.413787841796875,0.0779876708984375
-1.79974365234375,-0.4590606689453125,-0.10552978515625
-2.9258575439453125,-0.38214111328125,0.1254730224609375
-2.6297607421875,0.074920654296875,-0.0893402099609375
-2.433822631835937,0.3346405029296875,0.076904296875
-1.916412353515625,0.3302154541015625,0.272491455078125
-1.2706146240234375,0.376312255859375,0.1324310302734375
-0.7317047119140625,0.4053497314453125,0.0119476318359375
-0.3957977294921875,0.40435791015625,-0.005645751953125
-0.155853271484375,0.3584442138671875,-0.0400543212890625
-0.0810394287109375,0.277740478515625,-0.024017333984375
0.015167236328125,0.2252044677734375,-0.0242462158203125
0.0518341064453125,0.163665771484375,-0.091156005859375
-0.0667877197265625,0.2071685791015625,-0.0805816650390625
-0.385162353515625,0.2096710205078125,0.0070953369140625
-1.12188720703125,0.2843780517578125,0.2097015380859375
-2.3702392578125,-0.150146484375,0.7660064697265625
-2.600372314453125,-0.3514251708984375,0.7530059814453125
-2.78973388671875,0.0144500732421875,-1.3186187744140625
-2.1041259765625,-0.3769683837890625,-1.0955047607421875
-1.6047515869140625,-0.81103515625,0.1091461181640625
-1.101654052734375,-0.8950653076171875,-0.083709716796875
-0.73370361328125,-0.7963409423828125,-0.4452056884765625
-0.6697235107421875,-0.7198333740234375,-0.4235076904296875
-0.7390899658203125,-0.65679931640625,-0.271942138671875
-0.8911590576171875,-0.6329193115234375,-0.1843414306640625
-1.1417999267578125,-0.5861968994140625,-0.3250274658203125
-1.62384033203125,-0.5429840087890625,-0.5878448486328125
-1.99920654296875,-0.3838653564453125,-0.8197021484375
-1.9436187744140625,-0.276702880859375,-1.0175628662109375
-2.2427215576171875,-0.0988006591796875,-0.9642181396484376
-1.6237335205078125,0.024627685546875,-0.63836669921875
-1.3133697509765625,-0.009552001953125,-0.5828094482421875
-1.1436309814453125,-0.0115509033203125,-0.45257568359375
-0.8329620361328125,0.0218505859375,-0.243988037109375
-0.6616363525390625,0.0520782470703125,-0.1657257080078125
-0.4465179443359375,0.1635589599609375,-0.3044281005859375
-0.183197021484375,0.241058349609375,-0.2288970947265625
0.02081298828125,0.1580657958984375,-0.174530029296875
0.0392608642578125,0.140533447265625,-0.2163238525390625
-0.08447265625,0.2266387939453125,-0.2162322998046875
-0.3844146728515625,0.2432403564453125,-0.13165283203125
-1.0421905517578125,0.3135223388671875,0.088958740234375
-1.8151702880859373,0.299896240234375,-0.013214111328125
-2.290267944335937,0.256805419921875,-0.4465179443359375
-2.3696441650390625,0.076629638671875,-0.2001953125
-2.00738525390625,-0.1292877197265625,-0.09356689453125
-1.5506439208984375,-0.5028228759765625,0.1310577392578125
-1.289520263671875,-0.6897430419921875,-0.07244873046875
-1.2046661376953125,-0.9809112548828124,-0.15557861328125
-1.1417236328125,-0.9590606689453124,-0.264434814453125
-0.9571075439453124,-0.8574676513671875,-0.3592376708984375
-1.0381622314453125,-0.7080841064453125,-0.3909759521484375
-1.152374267578125,-0.5819244384765625,-0.494476318359375
-1.4401702880859375,-0.5173797607421875,-0.52484130859375
-1.6356658935546875,-0.3806304931640625,-0.65606689453125
-1.58148193359375,-0.3384552001953125,-0.929107666015625
-1.8861083984375,-0.2639923095703125,-1.083740234375
-1.663848876953125,-0.0566558837890625,-0.8546295166015625
-1.0767669677734375,-0.004150390625,-0.8388519287109375
-0.9988861083984376,-0.0063629150390625,-0.81573486328125
-0.853302001953125,0.030517578125,-0.518798828125
-0.5537567138671875,0.034515380859375,-0.341949462890625
-0.3706207275390625,0.0468292236328125,-0.328460693359375
-0.3175811767578125,0.0699462890625,-0.2082672119140625
-0.2005157470703125,0.04412841796875,-0.1469573974609375
-0.285064697265625,0.0478515625,-0.168182373046875
-0.38214111328125,-0.0098114013671875,-0.2666015625
-0.5284881591796875,-0.03961181640625,-0.23956298828125
-0.7155914306640625,-0.114501953125,-0.2290496826171875
-1.0438079833984375,-0.2782745361328125,-0.243194580078125
-1.237274169921875,-0.1090240478515625,-0.1179962158203125
-1.532073974609375,-0.2215728759765625,-0.5517425537109375
-1.856964111328125,-0.0253753662109375,-0.698211669921875
-1.6997528076171875,0.0075836181640625,-0.2830352783203125
-1.8109588623046875,-0.325958251953125,-0.2031402587890625
-1.3408203125,-0.4455718994140625,0.02105712890625
-1.1527862548828125,-0.6685791015625,-0.019927978515625
-0.71734619140625,-0.8255157470703125,-0.0580902099609375
-0.773040771484375,-0.8697967529296875,-0.0802154541015625
-0.8155975341796875,-0.8459930419921875,-0.022125244140625
-0.8326568603515625,-0.78485107421875,-0.1488494873046875
-1.1438140869140625,-0.7548065185546875,-0.330535888671875
-1.475555419921875,-0.80828857421875,-0.40240478515625
-1.6785888671875,-0.79827880859375,-0.5035552978515625
-1.9460601806640625,-0.6811065673828125,-0.775634765625
-2.823028564453125,-0.597503662109375,-0.8366851806640625
-2.165267944335937,-0.0662841796875,-0.5801239013671875
-1.931488037109375,-0.0590667724609375,-0.3018341064453125
-1.6583251953125,-0.0375823974609375,-0.035003662109375
-1.1405487060546875,0.0421905517578125,-0.13861083984375
-1.1029052734375,0.1727294921875,-0.198699951171875
-0.7030181884765625,0.3911285400390625,-0.153564453125
-0.227508544921875,0.355865478515625,-0.090301513671875
-0.00775146484375,0.2464141845703125,-0.0271148681640625
0.075897216796875,0.1148529052734375,0.0029754638671875
0.1161956787109375,0.01275634765625,0.0727691650390625
0.1439666748046875,-0.1223907470703125,0.10504150390625
0.1923980712890625,-0.3897857666015625,0.0152435302734375
-0.25372314453125,-0.3915557861328125,-0.098480224609375
-1.050933837890625,0.0039825439453125,0.1135711669921875
-1.53033447265625,0.190399169921875,0.4676666259765625
-2.1454010009765625,0.497100830078125,0.8590545654296875
-2.8797149658203125,0.132720947265625,0.637298583984375
-2.845245361328125,-0.2631988525390625,0.3082122802734375
-1.9308013916015625,-0.4048004150390625,0.275482177734375
-1.275482177734375,-0.4554443359375,0.302886962890625
-1.0165252685546875,-0.5911865234375,0.098785400390625
-0.8270263671875,-0.7382965087890625,0.072540283203125
-0.724639892578125,-0.74517822265625,0.153717041015625
-0.5941925048828125,-0.6937713623046875,0.01348876953125
-0.6754150390625,-0.6876983642578125,-0.1027679443359375
-0.7429046630859375,-0.6378173828125,-0.15325927734375
-1.0349884033203125,-0.7068023681640625,-0.1138916015625
-1.4977569580078125,-0.807586669921875,0.046142578125
-1.934783935546875,-0.8728179931640625,0.029998779296875
-2.6167755126953125,-0.8009796142578125,-0.15460205078125
-2.2938232421875,-0.4495697021484375,-0.106658935546875
-1.921478271484375,-0.320587158203125,-0.3903350830078125
-1.971588134765625,-0.1942596435546875,-0.2103729248046875
-1.50909423828125,-0.0507049560546875,-0.0960693359375
-1.056671142578125,0.334808349609375,-0.1524200439453125
-0.4859619140625,0.45220947265625,-0.170440673828125
-0.160552978515625,0.46112060546875,-0.240447998046875
-0.0189361572265625,0.355682373046875,-0.1678009033203125
-0.02899169921875,0.2621917724609375,-0.010223388671875
-0.0935211181640625,0.2152099609375,0.02947998046875
-0.2349395751953125,0.2624664306640625,-0.015533447265625
-0.676910400390625,0.376251220703125,-0.0047149658203125
-1.43072509765625,0.3533935546875,0.302642822265625
-2.1609039306640625,0.1743011474609375,0.6834869384765625
-2.39727783203125,0.4305267333984375,0.44073486328125
-2.5431365966796875,0.0498809814453125,0.39031982421875
-2.08514404296875,-0.173980712890625,0.2827606201171875
-1.702880859375,-0.4929962158203125,-0.042327880859375
-1.4326171875,-0.596649169921875,0.121795654296875
-1.0261993408203125,-0.6775360107421875,0.23504638671875
-0.879608154296875,-0.630340576171875,0.227447509765625
-0.8670654296875,-0.5203094482421875,0.1483612060546875
-1.073089599609375,-0.2922515869140625,0.0142364501953125
-1.2037811279296875,-0.1273651123046875,-0.0807647705078125
-1.0811614990234375,-0.044158935546875,-0.1739501953125
-0.9830474853515624,-0.2757415771484375,-0.0376129150390625
-1.1963958740234375,-0.7392578125,-0.1637725830078125
-1.8138427734375,-0.8273162841796875,-0.2311553955078125
-2.530609130859375,-0.470855712890625,-0.4775543212890625
-3.1573944091796875,0.21527099609375,-0.2897186279296875
-2.533416748046875,0.11676025390625,-0.0317230224609375
-2.201904296875,0.0239105224609375,0.04730224609375
-1.7393341064453125,0.19561767578125,-0.0832061767578125
-1.1267852783203125,0.3006591796875,-0.2000579833984375
-0.9189910888671876,0.474945068359375,-0.213470458984375
-0.604400634765625,0.463653564453125,-0.133331298828125
-0.37237548828125,0.4171600341796875,-0.0541839599609375
-0.1829986572265625,0.4640655517578125,0.0011749267578125
-0.0169677734375,0.3624114990234375,-0.040008544921875
0.03814697265625,0.359588623046875,0.109375
-0.0666351318359375,0.3825225830078125,0.1844940185546875
-0.52587890625,0.48760986328125,0.3033294677734375
-1.867767333984375,0.443328857421875,0.376708984375
-2.8577880859375,0.2404632568359375,0.976043701171875
-3.052474975585937,-0.2874298095703125,0.9185791015625
-2.294418334960937,-0.480682373046875,0.67132568359375
-1.536163330078125,-0.5859222412109375,0.539459228515625
-1.2184600830078125,-0.79437255859375,0.578094482421875
-0.969146728515625,-0.77301025390625,0.3650665283203125
-0.778350830078125,-0.7767791748046875,0.2107391357421875
-0.7979278564453125,-0.69097900390625,0.302947998046875
-0.8636932373046875,-0.63153076171875,0.2968597412109375
-1.07623291015625,-0.519744873046875,0.37506103515625
-1.349456787109375,-0.5003662109375,0.35028076171875
-1.687896728515625,-0.481597900390625,0.3332366943359375
-1.94580078125,-0.4621124267578125,0.3029937744140625
-2.287139892578125,-0.4931488037109375,0.347930908203125
-2.1102294921875,-0.2174835205078125,0.272308349609375
-2.0501861572265625,-0.0617828369140625,0.0011749267578125
-2.101287841796875,0.035858154296875,0.04852294921875
-1.60430908203125,0.162689208984375,-0.005889892578125
-1.0743408203125,0.2769622802734375,0.00604248046875
-0.6534423828125,0.3925018310546875,-0.011993408203125
-0.2587890625,0.3620758056640625,-0.0647430419921875
-0.073638916015625,0.279388427734375,-0.09796142578125
-0.1455535888671875,0.2182464599609375,-0.09521484375
-0.1851654052734375,0.2177734375,-0.02734375
-0.141448974609375,0.28094482421875,-0.043548583984375
-0.540496826171875,0.4522705078125,0.119659423828125
-0.9993743896484376,0.670318603515625,0.5055084228515625
-1.6614990234375,0.4770965576171875,0.723724365234375
-2.29998779296875,0.4701080322265625,0.9004974365234375
-2.456527709960937,0.1847991943359375,0.72528076171875
-2.0670623779296875,-0.062591552734375,1.0703277587890625
-1.6931915283203125,-0.328033447265625,0.963409423828125
-1.39544677734375,-0.4667816162109375,0.6505584716796875
-0.9730987548828124,-0.607330322265625,0.2833709716796875
-0.9007720947265624,-0.65814208984375,0.1700286865234375
-1.0001373291015625,-0.71337890625,0.147674560546875
-1.0288543701171875,-0.665130615234375,0.256988525390625
-1.1286468505859375,-0.549652099609375,0.3093719482421875
-1.4926300048828125,-0.5598602294921875,0.333526611328125
-1.9227294921875,-0.364959716796875,0.1945648193359375
-2.3761444091796875,-0.37677001953125,-0.028289794921875
-2.3369903564453125,-0.193206787109375,-0.0617523193359375
-2.1903228759765625,-0.1369476318359375,-0.3886260986328125
-2.49713134765625,0.1037445068359375,-0.34503173828125
-2.1787109375,0.1237945556640625,-0.10211181640625
-1.6179351806640625,0.334228515625,-0.115509033203125
-1.0287933349609375,0.4804229736328125,-0.241119384765625
-0.5637969970703125,0.5185546875,-0.1941680908203125
-0.212249755859375,0.4324188232421875,-0.153228759765625
-0.0158233642578125,0.318939208984375,-0.0940704345703125
0.012481689453125,0.3030548095703125,-0.0054473876953125
-0.0522613525390625,0.2394561767578125,-0.0064849853515625
-0.12249755859375,0.2827911376953125,0.031982421875
-0.4969329833984375,0.3301239013671875,0.0525970458984375
-1.103851318359375,0.477203369140625,0.1556396484375
-1.7385711669921875,0.29180908203125,0.1385345458984375
-2.240142822265625,0.4447784423828125,0.192718505859375
-2.6031951904296875,0.0457763671875,0.0481414794921875
-2.45550537109375,-0.1250762939453125,0.4018402099609375
-1.7134552001953125,-0.3690338134765625,0.2676239013671875
-1.3495635986328125,-0.4638519287109375,-0.0093536376953125
-1.07696533203125,-0.494537353515625,-0.1058502197265625
-1.024993896484375,-0.5233612060546875,-0.0930328369140625
-1.2028656005859375,-0.577667236328125,0.0130615234375
-1.4608306884765625,-0.6336212158203125,0.0585479736328125
-1.4272613525390625,-0.5264434814453125,0.0833892822265625
-1.358367919921875,-0.4355010986328125,-0.0126800537109375
-1.444183349609375,-0.25146484375,-0.0639190673828125
-1.523681640625,-0.1540679931640625,-0.3186187744140625
-2.0121002197265625,-0.12432861328125,-0.5128631591796875
-2.276123046875,0.0613250732421875,-0.5396728515625
-2.570587158203125,0.042694091796875,-0.306121826171875
-2.094024658203125,0.152618408203125,-0.129364013671875
-1.5587921142578125,0.32928466796875,-0.1672821044921875
-1.0789794921875,0.5273895263671875,-0.1844329833984375
-0.5970458984375,0.5770416259765625,-0.0590667724609375
-0.3348541259765625,0.502960205078125,-0.151275634765625
-0.1902618408203125,0.454132080078125,-0.1209564208984375
-0.0964813232421875,0.3389129638671875,-0.1190032958984375
-0.0786895751953125,0.24127197265625,-0.107208251953125
-0.1156768798828125,0.184356689453125,-0.1034393310546875
-0.2394256591796875,0.1411590576171875,-0.0702056884765625
-0.601470947265625,0.261138916015625,0.171661376953125
-1.250640869140625,0.125885009765625,0.2111968994140625
-2.22479248046875,0.176666259765625,0.2929229736328125
-2.292205810546875,-0.3229827880859375,0.0428009033203125
-2.469223022460937,-0.330474853515625,-0.0677642822265625
-1.94781494140625,-0.5020294189453125,0.1759185791015625
-1.346343994140625,-0.5426025390625,0.0013580322265625
-1.1510009765625,-0.6401519775390625,-0.18328857421875
-1.1036224365234375,-0.62164306640625,-0.1768035888671875
-0.8723907470703125,-0.574005126953125,-0.22589111328125
-0.8502960205078125,-0.46917724609375,-0.2522125244140625
-1.022125244140625,-0.4605865478515625,-0.1738739013671875
-1.2188873291015625,-0.45379638671875,-0.1074066162109375
-1.4044189453125,-0.3540802001953125,-0.323974609375
-1.372650146484375,-0.2333984375,-0.5556793212890625
-1.577911376953125,-0.1345367431640625,-0.658111572265625
-2.1527557373046875,-0.320709228515625,-0.6525115966796875
-2.440414428710937,-0.330810546875,-0.239410400390625
-1.83343505859375,-0.34814453125,-0.535125732421875
-2.094268798828125,-0.2994232177734375,-0.2947235107421875
-1.56219482421875,-0.09503173828125,-0.2322540283203125
-0.9764556884765624,0.0858154296875,-0.2412567138671875
-0.585784912109375,0.1640625,-0.2214202880859375
-0.3940582275390625,0.1856536865234375,-0.20489501953125
-0.2779083251953125,0.2062835693359375,-0.216217041015625
-0.287567138671875,0.2245025634765625,-0.2208709716796875
-0.2888946533203125,0.2845611572265625,-0.2437896728515625
-0.3004150390625,0.342193603515625,-0.235076904296875
-0.530181884765625,0.43048095703125,-0.0604248046875
-0.9712371826171876,0.5260772705078125,0.2974090576171875
-1.4891510009765625,0.433441162109375,0.225494384765625
-2.0841827392578125,0.4715576171875,0.3640594482421875
-1.9421539306640625,-0.1251220703125,0.413970947265625
-2.4184722900390625,-0.2067718505859375,0.6243438720703125
-1.9182281494140625,-0.502838134765625,0.8007659912109375
-1.5031890869140625,-0.6053009033203125,0.70428466796875
-1.2642059326171875,-0.5789031982421875,0.4167022705078125
-1.21759033203125,-0.6467132568359375,0.259185791015625
-1.1542510986328125,-0.76116943359375,0.1397552490234375
-1.040069580078125,-0.7611541748046875,-0.008209228515625
-1.0677032470703125,-0.790802001953125,0.0108184814453125
-1.2024688720703125,-0.7908477783203125,-0.0331573486328125
-1.360870361328125,-0.7841949462890625,-0.0807342529296875
-1.5113677978515625,-0.580413818359375,-0.265716552734375
-2.049774169921875,-0.28173828125,-0.8250885009765625
-2.918914794921875,-0.00848388671875,-0.6999359130859375
-2.89410400390625,0.09228515625,-0.3648223876953125
-2.516693115234375,0.353240966796875,-0.5452880859375
-1.831329345703125,0.5363006591796875,-0.649566650390625
-1.1432952880859375,0.5409698486328125,-0.386810302734375
-0.6728515625,0.4530487060546875,-0.244171142578125
-0.416168212890625,0.4052734375,-0.188934326171875
-0.1835479736328125,0.2984466552734375,-0.075408935546875
-0.1165618896484375,0.1613616943359375,-0.0554046630859375
-0.06768798828125,0.09173583984375,-0.013427734375
-0.064666748046875,0.011322021484375,-0.04620361328125
-0.1429595947265625,-0.129119873046875,-0.2738800048828125
-0.4645538330078125,-0.179718017578125,-0.502593994140625
-0.7589569091796875,-0.1014404296875,-0.5447845458984375
-0.722686767578125,-0.212921142578125,-0.9003753662109375
-1.00262451171875,-0.0875244140625,-1.024505615234375
-0.990203857421875,-0.2647247314453125,-1.31793212890625
-0.8887786865234375,-0.3951263427734375,-1.5553741455078125
-0.741058349609375,-0.3187255859375,-1.631134033203125
-0.6369476318359375,-0.341766357421875,-1.353179931640625
-0.5738372802734375,-0.3524627685546875,-1.011993408203125
-0.5105438232421875,-0.3423614501953125,-0.92767333984375
-0.5873870849609375,-0.3384246826171875,-0.960540771484375
-0.5367279052734375,-0.3919525146484375,-0.9026031494140624
-0.5721435546875,-0.524566650390625,-1.0384674072265625
-0.65643310546875,-0.659942626953125,-1.208099365234375
-0.8949432373046875,-0.8907623291015625,-1.286407470703125
-1.310089111328125,-0.81842041015625,-1.54400634765625
-1.2741241455078125,-0.5723876953125,-1.2913055419921875
-0.8365325927734375,-0.5167236328125,-0.9416351318359376
-0.7547607421875,-0.3340301513671875,-0.8289031982421875
-0.621917724609375,-0.0880279541015625,-0.549468994140625
-0.2893524169921875,0.0674591064453125,-0.3194732666015625
-0.002349853515625,0.168792724609375,-0.14532470703125
0.12884521484375,0.2288360595703125,-0.03497314453125
0.1051177978515625,0.2197113037109375,0.00115966796875
-0.0172882080078125,0.2490234375,0.0625457763671875
-0.251922607421875,0.3176727294921875,-0.0089874267578125
-0.7003173828125,0.5041961669921875,-0.26611328125
-1.1383209228515625,0.3792572021484375,-0.3359527587890625
-2.47222900390625,0.21429443359375,0.042022705078125
-3.1223297119140625,-0.5057525634765625,0.1425323486328125
-3.0869598388671875,-0.6289825439453125,0.096649169921875
-2.0821990966796875,-0.621551513671875,0.2525177001953125
-1.4240875244140625,-0.58343505859375,0.1629486083984375
-1.0993194580078125,-0.568450927734375,-0.00115966796875
-0.8982391357421875,-0.6357879638671875,-0.1497344970703125
-0.7867584228515625,-0.6902313232421875,-0.114776611328125
-0.7188873291015625,-0.7245635986328125,-0.1878662109375
-0.745025634765625,-0.7493896484375,-0.20355224609375
-0.9720611572265624,-0.7829437255859375,-0.384552001953125
-1.459228515625,-0.916046142578125,-0.7649993896484375
-1.7708892822265625,-0.847747802734375,-1.04571533203125
-2.18719482421875,-0.8070831298828125,-1.2277984619140625
-1.9195098876953125,-0.4405364990234375,-1.0758819580078125
-1.7693023681640625,-0.34912109375,-1.319793701171875
-1.747711181640625,-0.178466796875,-1.0307464599609375
-1.3612213134765625,-0.080780029296875,-0.5615692138671875
-0.9129180908203124,0.03936767578125,-0.3383636474609375
-0.631866455078125,0.1014251708984375,-0.3473968505859375
-0.4347991943359375,0.2357635498046875,-0.2752532958984375
-0.26593017578125,0.28814697265625,-0.19683837890625
-0.1789398193359375,0.2329864501953125,-0.2266082763671875
-0.173248291015625,0.2103424072265625,-0.2180938720703125
-0.1219024658203125,0.12335205078125,-0.24853515625
-0.3070831298828125,0.1271209716796875,-0.2393646240234375
-0.966552734375,0.134124755859375,-0.407562255859375
-2.0063629150390625,-0.111602783203125,-0.010589599609375
-2.1425018310546875,-0.269622802734375,-0.0289459228515625
-1.7824554443359375,-0.1875457763671875,0.0127105712890625
-1.6767425537109375,-0.056396484375,0.0687103271484375
-1.5436248779296875,-0.11865234375,0.067047119140625
-1.3755950927734375,-0.1695404052734375,-0.031646728515625
-1.4928741455078125,-0.3288726806640625,-0.1116790771484375
-1.3238372802734375,-0.533172607421875,-0.1457061767578125
-1.2557525634765625,-0.68896484375,-0.1217041015625
-1.1781005859375,-0.7635040283203125,-0.30340576171875
-1.1971588134765625,-0.7218017578125,-0.284942626953125
-1.4408416748046875,-0.58404541015625,-0.340972900390625
-1.6133575439453125,-0.3583984375,-0.345916748046875
-1.5077056884765625,-0.34295654296875,-0.666595458984375
-1.87347412109375,-0.2042388916015625,-0.8498687744140625
-2.0471649169921875,-0.0876312255859375,-0.563934326171875
-2.1392364501953125,-0.02593994140625,-0.3665771484375
-1.8474578857421875,0.1310577392578125,-0.359893798828125
-1.2594757080078125,0.3116455078125,-0.3758087158203125
-0.8756256103515625,0.33258056640625,-0.2887420654296875
-0.5956268310546875,0.2302398681640625,-0.1907196044921875
-0.366790771484375,0.20465087890625,-0.108673095703125
-0.2310028076171875,0.0819854736328125,-0.1056671142578125
-0.253326416015625,0.0291290283203125,-0.090789794921875
-0.2435455322265625,-0.05389404296875,-0.078216552734375
-0.4974365234375,0.0369873046875,0.010986328125
-0.55194091796875,0.2135009765625,0.0548248291015625
-0.61865234375,0.3993072509765625,0.1128387451171875
-0.9495849609375,0.37432861328125,0.28558349609375
-1.4038238525390625,0.2350616455078125,0.4650115966796875
-2.126327514648437,-0.1120758056640625,0.21820068359375
-2.6961669921875,-0.4469146728515625,0.2487640380859375
-2.383087158203125,-0.82269287109375,0.2324676513671875
-1.7062225341796875,-0.945831298828125,0.2595367431640625
-1.1323394775390625,-0.907379150390625,0.049896240234375
-0.7593231201171875,-0.8292999267578125,-0.3675079345703125
-0.7112884521484375,-0.85009765625,-0.49700927734375
-0.807525634765625,-0.7930755615234375,-0.2501678466796875
-0.9516754150390624,-0.8492279052734375,-0.0211029052734375
-1.2010955810546875,-0.8019866943359375,0.1247406005859375
-1.6035919189453125,-0.8043060302734375,0.087371826171875
-2.0894775390625,-0.6665496826171875,0.068023681640625
-2.13226318359375,-0.6453094482421875,0.0181884765625
-2.35736083984375,-0.2498321533203125,-0.0048828125
-2.34588623046875,-0.123138427734375,-0.1565704345703125
-1.8851470947265625,0.0096435546875,0.035888671875
-1.0028076171875,0.1559600830078125,0.032073974609375
-0.4656829833984375,0.2897491455078125,-0.026397705078125
-0.158447265625,0.3057708740234375,0.006072998046875
-0.087890625,0.3213653564453125,0.0661773681640625
0.04931640625,0.2495269775390625,0.0828857421875
0.13604736328125,0.1661224365234375,0.067108154296875
0.13421630859375,0.2139892578125,0.0878143310546875
-0.1291656494140625,0.2912750244140625,0.0443267822265625
-0.9127197265625,0.529327392578125,0.0531005859375
-2.352874755859375,1.044952392578125,0.183013916015625
-2.75140380859375,0.4185333251953125,0.2822113037109375
-2.7610321044921875,0.1237945556640625,0.371673583984375
-2.4845428466796875,-0.3236083984375,0.569580078125
-1.5919952392578125,-0.5193023681640625,0.265594482421875
-1.0742645263671875,-0.753875732421875,0.04443359375
-0.805938720703125,-0.81231689453125,-0.021209716796875
-0.7811126708984375,-0.898956298828125,-0.072113037109375
-1.036865234375,-0.926422119140625,-0.0160980224609375
-1.5832977294921875,-0.70880126953125,-0.0363616943359375
-1.786468505859375,-0.565093994140625,-0.1255950927734375
-2.1168975830078125,-0.4159698486328125,0.05462646484375
-2.4859161376953125,-0.2355194091796875,0.0731964111328125
-2.3435211181640625,0.1375274658203125,0.2516326904296875
-1.867919921875,0.2274627685546875,0.1236724853515625
-1.602752685546875,0.17608642578125,0.0733489990234375
-1.232574462890625,0.358978271484375,0.12005615234375
-0.6502532958984375,0.3677520751953125,0.130706787109375
-0.3393707275390625,0.39697265625,0.0810699462890625
-0.146026611328125,0.366668701171875,0.0539398193359375
-0.1109771728515625,0.38427734375,0.12554931640625
0.0182952880859375,0.368316650390625,0.1164398193359375
-0.0115814208984375,0.361663818359375,0.1306915283203125
-0.4589691162109375,0.4210052490234375,0.2330169677734375
-1.6536407470703125,0.3416900634765625,0.3282928466796875
-2.594573974609375,-0.274688720703125,0.2979278564453125
-2.270538330078125,-0.600128173828125,0.432464599609375
-1.97796630859375,-0.6179656982421875,0.191009521484375
-1.4996795654296875,-0.645721435546875,0.2664947509765625
-1.016387939453125,-0.56719970703125,0.156829833984375
-0.6970062255859375,-0.407501220703125,0.0374755859375
-0.743194580078125,-0.483184814453125,0.026702880859375
-0.5839996337890625,-0.81414794921875,-0.036285400390625
-0.8926544189453125,-1.1185150146484375,0.111053466796875
-1.1952362060546875,-1.20489501953125,-0.011383056640625
-1.3326416015625,-1.129669189453125,0.0909881591796875
-1.945709228515625,-0.9712066650390624,0.41412353515625
-2.7497100830078125,-0.14599609375,0.8193206787109375
-1.614776611328125,-0.101287841796875,0.763519287109375
-1.9418182373046875,0.1330108642578125,0.5565338134765625
-1.507720947265625,0.3871612548828125,0.2706146240234375
-0.8595428466796875,0.5197601318359375,0.0753173828125
-0.4349365234375,0.4656982421875,0.0752716064453125
-0.1354827880859375,0.2806396484375,0.0854644775390625
-0.0216522216796875,0.214691162109375,0.10687255859375
-0.0575408935546875,0.1121978759765625,0.10394287109375
-0.2834930419921875,0.1150665283203125,0.1322174072265625
-0.509429931640625,0.17901611328125,0.06829833984375
-1.0321502685546875,0.2167816162109375,-0.0087432861328125
-1.4984283447265625,0.20355224609375,0.1654815673828125
-2.0922088623046875,-0.292877197265625,0.2105255126953125
-2.38079833984375,-0.0930328369140625,0.4647674560546875
-1.584014892578125,-0.392303466796875,0.12109375
-1.4828643798828125,-0.4541778564453125,0.390350341796875
-0.9971466064453124,-0.4019927978515625,0.1908721923828125
-0.8203125,-0.409210205078125,-0.0077362060546875
-0.788238525390625,-0.5404815673828125,0.118896484375
-0.8491058349609375,-0.73992919921875,0.0880126953125
-0.8757781982421875,-0.926483154296875,-0.053619384765625
-1.100372314453125,-0.989166259765625,0.012420654296875
-1.427459716796875,-0.94927978515625,0.121307373046875
-1.6154632568359375,-0.8102264404296875,0.239654541015625
-1.79681396484375,-0.589874267578125,0.334320068359375
-1.8961334228515625,-0.2626190185546875,0.41387939453125
-2.214691162109375,-0.1314544677734375,0.347991943359375
-2.07904052734375,0.1783599853515625,0.3795013427734375
-1.4874725341796875,0.1917724609375,0.2041778564453125
-0.9397430419921876,0.302490234375,0.1487579345703125
-0.42388916015625,0.2720184326171875,0.071624755859375
-0.1795654296875,0.24298095703125,-0.01116943359375
-0.0191497802734375,0.2161407470703125,0.0097198486328125
-0.0289154052734375,0.23602294921875,0.01263427734375
-0.2073822021484375,0.227508544921875,0.0464630126953125
-0.5553131103515625,0.2537689208984375,0.11297607421875
-0.830108642578125,0.3658294677734375,0.1917266845703125
-1.1781005859375,0.233001708984375,0.23046875
-1.998626708984375,0.327850341796875,0.65802001953125
-1.9222259521484373,-0.1032867431640625,0.5984344482421875
-1.8914031982421875,-0.166290283203125,0.7079620361328125
-1.5434417724609375,-0.381439208984375,0.5426025390625
-1.47857666015625,-0.58984375,0.52349853515625
-1.59002685546875,-0.8776397705078125,0.1593475341796875
-1.409332275390625,-1.22076416015625,0.090728759765625
-1.351043701171875,-1.1994781494140625,0.129669189453125
-1.16876220703125,-1.07208251953125,0.2666778564453125
-1.2612762451171875,-0.759307861328125,0.160888671875
-1.584228515625,-0.47698974609375,0.137542724609375
-1.867218017578125,-0.356109619140625,-0.0333099365234375
-2.1881561279296875,-0.126861572265625,0.1638641357421875
-1.9409637451171875,0.0530548095703125,0.059722900390625
-1.76824951171875,0.3441619873046875,0.07574462890625
-1.172821044921875,0.40960693359375,-0.035552978515625
-0.6349639892578125,0.3915557861328125,-0.010162353515625
-0.3876800537109375,0.316864013671875,0.0179290771484375
-0.223876953125,0.264404296875,0.0223388671875
-0.152069091796875,0.26361083984375,0.0388641357421875
-0.1306304931640625,0.24346923828125,0.0784759521484375
-0.189483642578125,0.2513275146484375,0.07470703125
-0.4983978271484375,0.274139404296875,-0.0217132568359375
-0.967041015625,0.279449462890625,0.015045166015625
-1.760162353515625,0.0060272216796875,-0.009185791015625
-2.192962646484375,-0.03619384765625,0.1263885498046875
-2.108489990234375,-0.232421875,0.0923919677734375
-1.6832427978515625,-0.3017425537109375,0.1979827880859375
-1.4165802001953125,-0.3141326904296875,0.005096435546875
-1.3554534912109375,-0.3738861083984375,-0.096893310546875
-1.13018798828125,-0.463043212890625,-0.0187225341796875
-1.018585205078125,-0.6822357177734375,-0.0520172119140625
-1.11981201171875,-0.833404541015625,0.0991973876953125
-1.270904541015625,-0.817596435546875,0.017303466796875
-1.587921142578125,-0.6459808349609375,-0.1251983642578125
-1.8580322265625,-0.5278778076171875,-0.1524505615234375
-2.3843536376953125,-0.2796783447265625,-0.024810791015625
-2.188690185546875,0.019927978515625,0.1475067138671875
-1.8797454833984373,0.234405517578125,-0.1475372314453125
-1.5731353759765625,0.2936248779296875,-0.1435394287109375
-1.1805267333984375,0.331634521484375,-0.131683349609375
-0.8891448974609375,0.349578857421875,-0.0366058349609375
-0.7586212158203125,0.3106842041015625,0.0363006591796875
-0.642608642578125,0.34991455078125,0.0081634521484375
-0.47320556640625,0.3396759033203125,-0.015777587890625
-0.487579345703125,0.2846832275390625,0.0365447998046875
-0.5735015869140625,0.2760467529296875,-0.049163818359375
-0.644500732421875,0.2747802734375,-0.072723388671875
-0.8964691162109375,0.1612548828125,-0.206298828125
-1.14501953125,0.0733489990234375,-0.5499114990234375
-1.2061309814453125,0.2387847900390625,-0.665557861328125
-1.2458343505859375,0.1699066162109375,-0.8562774658203125
-1.2051544189453125,0.147308349609375,-0.903656005859375
-1.1631011962890625,-0.05364990234375,-0.7018585205078125
-1.036590576171875,-0.214141845703125,-0.5149383544921875
-0.9966278076171876,-0.4114532470703125,-0.4580078125
-1.0436248779296875,-0.506378173828125,-0.6236114501953125
-1.0351409912109375,-0.808837890625,-0.830780029296875
-1.025177001953125,-1.0934295654296875,-0.794158935546875
-1.1363525390625,-1.2616424560546875,-0.8558349609375
-1.451324462890625,-1.0298614501953125,-0.9554901123046876
-2.00372314453125,-0.5633087158203125,-1.2833099365234375
-2.266357421875,-0.041107177734375,-0.6163787841796875
-2.2515869140625,0.1112518310546875,-0.1203765869140625
-1.9870147705078125,0.3694000244140625,-0.1071624755859375
-1.5012969970703125,0.4393768310546875,-0.1568145751953125
-1.11907958984375,0.405517578125,-0.153228759765625
-0.7731781005859375,0.3402557373046875,-0.118438720703125
-0.4968414306640625,0.3095703125,-0.0923309326171875
-0.373443603515625,0.2315216064453125,-0.05181884765625
-0.2873077392578125,0.0799713134765625,0.0135345458984375
-0.2742156982421875,0.0099639892578125,-0.000152587890625
-0.3451080322265625,-0.0348968505859375,-0.1455078125
-0.531402587890625,0.2057037353515625,-0.2314300537109375
-0.797607421875,0.1958465576171875,-0.491180419921875
-1.0534210205078125,0.48150634765625,-0.6500091552734375
-1.2126312255859375,0.1529998779296875,-0.74041748046875
-1.7230224609375,0.0948486328125,-0.1670684814453125
-1.802337646484375,-0.14398193359375,-0.46697998046875
-1.702423095703125,-0.3941192626953125,-0.1739959716796875
-1.6519622802734375,-0.534149169921875,-0.1576385498046875
-1.302520751953125,-0.5301513671875,-0.292999267578125
-1.022918701171875,-0.5106964111328125,-0.351165771484375
-0.923004150390625,-0.6335296630859375,-0.2978668212890625
-0.9911651611328124,-0.7688140869140625,-0.135650634765625
-1.40191650390625,-0.99395751953125,-0.25408935546875
-1.5601348876953125,-0.8987274169921875,0.237823486328125
-1.5942230224609375,-0.6948394775390625,0.192657470703125
-2.088836669921875,-0.37652587890625,0.250823974609375
-2.016632080078125,-0.063262939453125,0.383392333984375
-1.6958770751953125,0.1590423583984375,0.343170166015625
-1.5998077392578125,0.353057861328125,0.2118072509765625
-1.21826171875,0.4278106689453125,0.091949462890625
-0.9078369140625,0.3929901123046875,0.06048583984375
-0.671630859375,0.39129638671875,0.052642822265625
-0.4039459228515625,0.3259429931640625,0.030975341796875
-0.2744293212890625,0.3050689697265625,0.0200042724609375
-0.249786376953125,0.2664794921875,0.0027618408203125
-0.4001922607421875,0.265350341796875,0.00140380859375
-0.68157958984375,0.1658172607421875,-0.0619659423828125
-1.2899169921875,0.1661376953125,-0.0624542236328125
-1.4776458740234375,0.045654296875,-0.0536651611328125
-1.583892822265625,-0.1082305908203125,-0.136199951171875
-1.6662139892578125,-0.310577392578125,-0.063568115234375
-1.5324859619140625,-0.3914337158203125,-0.11102294921875
-1.3792572021484375,-0.4698638916015625,-0.27349853515625
-1.194580078125,-0.4798736572265625,-0.23297119140625
-1.062286376953125,-0.5545806884765625,-0.147674560546875
-1.026580810546875,-0.533416748046875,-0.0865631103515625
-1.01837158203125,-0.491729736328125,-0.1683502197265625
-1.084320068359375,-0.3883514404296875,-0.0973358154296875
-1.1489105224609375,-0.280853271484375,-0.1380767822265625
-1.0566253662109375,-0.09173583984375,-0.1989288330078125
-0.75830078125,0.0070648193359375,-0.406494140625
-0.313995361328125,0.0903778076171875,-0.284881591796875
0.094940185546875,0.0489349365234375,-0.006103515625
0.0951690673828125,0.035858154296875,-0.0027618408203125
0.1011810302734375,0.0209197998046875,-0.0044403076171875
0.1089324951171875,0.0042572021484375,-0.015228271484375
0.109466552734375,-0.014923095703125,-0.033843994140625
0.1005859375,-0.0287933349609375,-0.0440216064453125
0.0881805419921875,-0.03948974609375,-0.0497589111328125
0.0776519775390625,-0.044158935546875,-0.0511322021484375
0.0656890869140625,-0.0432281494140625,-0.056732177734375
7.3704833984375,-1.886474609375,-6.7089385986328125
-2.5325927734375,-0.0832977294921875,-1.1156005859375
-0.39898681640625,0.07421875,-0.1849212646484375
0.12310791015625,0.2520294189453125,-0.156341552734375
0.1993255615234375,0.4640045166015625,-1.03277587890625
0.559326171875,0.095703125,-0.963348388671875
0.3028717041015625,-0.1939544677734375,-1.262451171875
-0.0145721435546875,0.062713623046875,-0.9071197509765624
-0.0027008056640625,0.114410400390625,-0.9586639404296876
0.1289520263671875,0.06805419921875,-1.031341552734375
0.06195068359375,0.0288543701171875,-0.9845428466796876
0.0869903564453125,0.078521728515625,-1.014617919921875
0.0751800537109375,0.0622100830078125,-0.9900665283203124
0.0828704833984375,0.04681396484375,-1.00830078125
0.0775604248046875,0.0697021484375,-1.001495361328125
0.0767669677734375,0.0543670654296875,-0.999603271484375
0.081024169921875,0.05804443359375,-1.0023651123046875
0.07696533203125,0.062225341796875,-1.0027008056640625
0.0831756591796875,0.072418212890625,-0.9968109130859376
0.0716094970703125,0.05035400390625,-0.975738525390625
0.084075927734375,0.05218505859375,-0.9646453857421876
0.1204071044921875,0.0494232177734375,-1.01654052734375
0.1331024169921875,0.0692138671875,-1.0500946044921875
0.1158905029296875,0.0726165771484375,-1.0002593994140625
0.1719970703125,0.040008544921875,-1.0334930419921875
0.0884552001953125,0.0489044189453125,-0.96759033203125
0.088653564453125,0.042144775390625,-1.01007080078125
0.1042327880859375,0.0638885498046875,-1.005096435546875
0.164459228515625,0.0362396240234375,-1.02337646484375
0.142059326171875,0.042327880859375,-1.02630615234375
0.0816802978515625,0.040679931640625,-0.977783203125
0.0878448486328125,0.0453948974609375,-1.0086822509765625
