AccelerationX,AccelerationY,AccelerationZ
0.60015869140625,0.2743988037109375,-0.6703643798828125
0.6293182373046875,0.42755126953125,-0.7121124267578125
0.6138916015625,0.3957366943359375,-0.6957550048828125
0.584930419921875,0.3468170166015625,-0.67376708984375
0.5159912109375,0.23016357421875,-0.6194305419921875
0.4647674560546875,0.097137451171875,-0.5677947998046875
0.481048583984375,0.238677978515625,-0.568756103515625
0.6068878173828125,0.240936279296875,-0.8077239990234375
0.5493316650390625,0.3732147216796875,-0.8610992431640625
0.5526123046875,0.5262298583984375,-0.8619537353515625
0.5662994384765625,0.6157684326171875,-0.776336669921875
0.55364990234375,0.6215362548828125,-0.5782623291015625
0.627410888671875,0.5403594970703125,-0.412933349609375
0.7358245849609375,0.48748779296875,-0.2884674072265625
0.78472900390625,0.4519500732421875,-0.1348114013671875
0.8929595947265625,0.3662261962890625,-0.0255126953125
0.938323974609375,0.3634185791015625,0.0671844482421875
1.0901031494140625,0.2379302978515625,0.1648712158203125
1.474639892578125,0.123870849609375,0.27752685546875
1.61334228515625,0.1001434326171875,0.3867645263671875
1.648284912109375,0.18121337890625,0.19451904296875
1.3079681396484375,0.3141021728515625,0.111114501953125
1.117767333984375,0.3330078125,0.07305908203125
1.0451202392578125,0.261260986328125,0.0434112548828125
0.98590087890625,0.173583984375,-0.023101806640625
0.9106292724609376,0.1352996826171875,0.0084381103515625
0.7171478271484375,0.111724853515625,-0.050323486328125
0.79913330078125,0.132171630859375,-0.1064605712890625
0.733367919921875,0.118499755859375,-0.04681396484375
0.7935638427734375,0.113433837890625,-0.10430908203125
0.83782958984375,0.0945892333984375,-0.107940673828125
0.8914031982421875,0.1177825927734375,-0.115997314453125
0.992889404296875,0.187774658203125,-0.19049072265625
1.2483062744140625,0.267669677734375,-0.2043914794921875
1.612060546875,0.2574005126953125,-0.2551116943359375
1.5118255615234375,0.2729339599609375,-0.20306396484375
1.2487640380859375,0.170379638671875,-0.0756378173828125
1.266204833984375,0.106658935546875,0.0281829833984375
1.4613189697265625,0.03802490234375,0.063262939453125
1.3808746337890625,0.001220703125,0.1193389892578125
1.17626953125,0.0352325439453125,0.117156982421875
1.0558929443359375,0.0619659423828125,0.088775634765625
1.03497314453125,0.0637359619140625,0.1326904296875
0.9906158447265624,0.072021484375,0.14129638671875
0.8710784912109375,0.071807861328125,0.15216064453125
0.738311767578125,0.07080078125,0.122955322265625
0.798126220703125,0.0601806640625,0.0784149169921875
0.932373046875,0.0601654052734375,0.060821533203125
1.0879058837890625,0.0243377685546875,0.1083831787109375
1.3449554443359375,-0.034942626953125,0.10308837890625
1.172943115234375,-0.0272369384765625,-0.019073486328125
1.077178955078125,0.01727294921875,-0.0835113525390625
1.1985626220703125,0.125213623046875,-0.180755615234375
1.2904815673828125,0.200225830078125,-0.26763916015625
1.168670654296875,0.172637939453125,-0.1508636474609375
1.0447845458984375,0.155029296875,-0.12969970703125
0.9737091064453124,0.12823486328125,-0.1066741943359375
1.0182952880859375,0.0834808349609375,-0.061004638671875
1.1585235595703125,0.0770416259765625,-0.08099365234375
1.1676177978515625,0.1491851806640625,-0.1599578857421875
1.018646240234375,0.182403564453125,-0.2193450927734375
0.824951171875,0.179046630859375,-0.2358551025390625
0.84710693359375,0.1258087158203125,-0.26202392578125
1.09857177734375,0.1419830322265625,-0.3210296630859375
1.2157440185546875,0.202392578125,-0.1909332275390625
1.4475555419921875,0.17059326171875,-0.328125
1.400054931640625,0.19329833984375,-0.269317626953125
1.317718505859375,0.1383056640625,-0.169097900390625
1.340362548828125,0.1232757568359375,-0.0654449462890625
1.603515625,0.067779541015625,-0.008514404296875
1.4191436767578125,6.103515625e-05,0.1136322021484375
1.1894378662109375,0.0047607421875,0.084136962890625
1.189910888671875,-0.0043487548828125,0.0964202880859375
1.072784423828125,0.0234222412109375,0.150726318359375
1.09417724609375,0.0415496826171875,0.16064453125
1.055328369140625,0.0231475830078125,0.175872802734375
0.877349853515625,0.04986572265625,0.1016998291015625
0.71990966796875,0.078155517578125,0.0128021240234375
0.745758056640625,0.0717926025390625,0.0087738037109375
0.821533203125,0.055328369140625,-0.019012451171875
1.14361572265625,-0.0257720947265625,-0.0017242431640625
1.210357666015625,-0.056396484375,-0.0723724365234375
1.07537841796875,0.02081298828125,-0.1433563232421875
0.9612579345703124,0.105194091796875,-0.1859130859375
1.2407684326171875,0.1311798095703125,-0.21026611328125
1.3758392333984375,0.063568115234375,-0.063385009765625
1.4019317626953125,0.0032806396484375,0.0049285888671875
1.229095458984375,0.093963623046875,-0.1234283447265625
1.05487060546875,0.13006591796875,-0.174957275390625
1.0517120361328125,0.1150665283203125,-0.144775390625
1.106292724609375,0.0781097412109375,-0.1295928955078125
1.134796142578125,0.0420684814453125,-0.1565399169921875
1.0815582275390625,0.01910400390625,-0.196441650390625
1.020843505859375,0.04638671875,-0.3123321533203125
1.0431671142578125,0.130218505859375,-0.44769287109375
1.22979736328125,0.2153472900390625,-0.39764404296875
1.57080078125,0.20513916015625,-0.3792877197265625
1.489501953125,0.180206298828125,-0.249053955078125
1.166290283203125,0.0865478515625,-0.117645263671875
1.0760345458984375,0.0160675048828125,-0.097564697265625
1.1743011474609375,0.003021240234375,-0.049835205078125
1.4404449462890625,-0.0099639892578125,0.0492706298828125
1.290985107421875,-0.0018310546875,0.1445159912109375
1.2080230712890625,0.025299072265625,0.1417083740234375
1.0880279541015625,0.052215576171875,0.1686859130859375
1.023712158203125,0.1053009033203125,0.109771728515625
0.9759521484375,0.1384124755859375,0.05389404296875
0.923248291015625,0.11376953125,0.07476806640625
0.8784942626953125,0.083526611328125,0.0188446044921875
0.8723297119140625,0.064239501953125,-0.022125244140625
0.8864898681640625,0.040191650390625,-0.0225677490234375
1.0535125732421875,-0.0336151123046875,0.0107269287109375
1.292205810546875,-0.12860107421875,-0.0944976806640625
1.0545196533203125,-0.04815673828125,-0.2419281005859375
0.789703369140625,0.0865020751953125,-0.203460693359375
0.96044921875,0.1471099853515625,-0.1985626220703125
1.30303955078125,0.1466827392578125,-0.281219482421875
1.23858642578125,0.0856781005859375,-0.1203765869140625
1.0353546142578125,0.0838775634765625,-0.0255126953125
0.9179534912109376,0.062835693359375,-0.071502685546875
0.9691009521484376,0.03009033203125,-0.099945068359375
1.05279541015625,0.0226898193359375,-0.0775909423828125
1.1214752197265625,0.0556793212890625,-0.114959716796875
1.0177764892578125,0.0814971923828125,-0.1667327880859375
0.99859619140625,0.077728271484375,-0.1593475341796875
1.123046875,0.04931640625,-0.179931640625
1.2202911376953125,0.0799713134765625,-0.250762939453125
1.2956390380859375,0.13421630859375,-0.243896484375
1.2809906005859375,0.1961669921875,-0.31866455078125
1.1832733154296875,0.2237091064453125,-0.357452392578125
1.044036865234375,0.1552276611328125,-0.2375640869140625
1.1852569580078125,0.135101318359375,-0.202911376953125
1.3027191162109375,0.1309051513671875,-0.1512603759765625
1.26580810546875,0.1044769287109375,-0.0745697021484375
1.167327880859375,0.061737060546875,-0.04132080078125
1.09661865234375,0.0261688232421875,0.003448486328125
1.12030029296875,-0.015594482421875,0.051788330078125
1.11395263671875,-0.047271728515625,0.0807037353515625
1.0238037109375,-0.0424652099609375,0.078338623046875
0.8800811767578125,-0.0214996337890625,0.0306854248046875
0.8138885498046875,0.019287109375,0.017364501953125
0.870391845703125,0.0633544921875,-0.02349853515625
0.9108428955078124,0.055389404296875,-0.0618743896484375
1.21697998046875,-0.01239013671875,-0.01959228515625
1.183807373046875,-0.0180816650390625,-0.039947509765625
1.043670654296875,0.03106689453125,-0.105560302734375
0.9397125244140624,0.095489501953125,-0.17822265625
1.03179931640625,0.143341064453125,-0.270050048828125
1.0358734130859375,0.1367340087890625,-0.16827392578125
0.9621429443359376,0.08538818359375,-0.0387420654296875
0.908294677734375,0.063568115234375,-0.0384979248046875
0.9595794677734376,0.0432281494140625,-0.0641632080078125
1.02655029296875,0.0581817626953125,-0.02508544921875
1.12451171875,0.068328857421875,0.00189208984375
1.17462158203125,0.113250732421875,-0.0814361572265625
1.1282806396484375,0.1906890869140625,-0.2016143798828125
1.00885009765625,0.2212982177734375,-0.224700927734375
1.00494384765625,0.17132568359375,-0.280242919921875
1.1450958251953125,0.1041107177734375,-0.3064727783203125
1.2570343017578125,0.0459442138671875,-0.1823883056640625
1.4079437255859375,0.0581207275390625,-0.2354888916015625
1.2861175537109375,0.1377716064453125,-0.314117431640625
1.0192108154296875,0.1615753173828125,-0.2944488525390625
1.0175018310546875,0.173126220703125,-0.1610107421875
1.3580474853515625,0.142333984375,-0.075439453125
1.51434326171875,0.097900390625,-0.021942138671875
1.3884735107421875,0.060699462890625,0.0353546142578125
1.258331298828125,0.0024871826171875,0.04351806640625
1.1367034912109375,-0.020660400390625,0.0843048095703125
1.0307769775390625,0.0078277587890625,0.0692291259765625
0.94110107421875,0.0297698974609375,0.0168304443359375
0.8589324951171875,0.0337371826171875,7.62939453125e-05
0.7138671875,0.0620269775390625,-0.0271453857421875
0.671478271484375,0.07000732421875,-0.0629425048828125
0.868499755859375,0.0461578369140625,-0.04327392578125
0.8430633544921875,0.016937255859375,-0.0320587158203125
1.1526031494140625,-0.0451812744140625,0.03912353515625
1.19830322265625,-0.0234222412109375,0.05828857421875
1.190704345703125,0.0713348388671875,-0.0146636962890625
1.0995635986328125,0.19775390625,-0.2509765625
1.14910888671875,0.3087158203125,-0.286468505859375
1.070648193359375,0.274078369140625,-0.0689239501953125
1.1170654296875,0.061614990234375,0.02569580078125
1.1304168701171875,-0.084869384765625,0.0099945068359375
1.03912353515625,-0.0600433349609375,0.06256103515625
1.068267822265625,-0.002838134765625,0.02386474609375
1.0961761474609375,0.1077423095703125,0.0355377197265625
1.1908416748046875,0.1936798095703125,-0.0096893310546875
1.0740509033203125,0.260345458984375,-0.045135498046875
0.9390411376953124,0.270538330078125,-0.0994873046875
1.04974365234375,0.2541351318359375,-0.1929473876953125
1.3557281494140625,0.2730255126953125,-0.2472381591796875
1.5487060546875,0.2766876220703125,-0.2313079833984375
1.4344329833984375,0.2776641845703125,-0.2928466796875
1.0128936767578125,0.224700927734375,-0.274688720703125
0.69683837890625,0.1786956787109375,-0.2057952880859375
0.8288421630859375,0.184356689453125,-0.173553466796875
1.2923126220703125,0.1575927734375,-0.130767822265625
1.5833587646484375,0.0404815673828125,-0.013336181640625
1.38494873046875,-0.0233612060546875,0.0578155517578125
1.2303619384765625,-0.03973388671875,0.084320068359375
1.1772308349609375,-0.01043701171875,0.1052398681640625
1.1199951171875,0.021240234375,0.09771728515625
1.046844482421875,0.0356292724609375,0.07733154296875
0.9195404052734376,0.0582122802734375,-0.0413055419921875
0.7875823974609375,0.09130859375,-0.077972412109375
0.740570068359375,0.1075439453125,-0.092681884765625
0.8690338134765625,0.06158447265625,-0.067962646484375
0.8339996337890625,0.0247650146484375,-0.0370330810546875
1.0797576904296875,-0.013580322265625,0.02301025390625
1.2640228271484375,-0.0329132080078125,-0.0047149658203125
1.12261962890625,0.0411834716796875,-0.06390380859375
0.957977294921875,0.1324462890625,-0.16522216796875
0.9141998291015624,0.2274932861328125,-0.18408203125
1.0334930419921875,0.2187042236328125,-0.0919189453125
1.1673431396484375,0.1435394287109375,-0.0234222412109375
1.2811737060546875,0.053436279296875,-0.008331298828125
1.204864501953125,0.032745361328125,-0.011871337890625
1.098907470703125,0.064971923828125,-0.0238800048828125
1.096405029296875,0.1059417724609375,-0.03643798828125
1.1209564208984375,0.1298980712890625,-0.0512542724609375
1.096588134765625,0.14984130859375,-0.0889739990234375
1.0271148681640625,0.1673126220703125,-0.1268768310546875
0.929901123046875,0.18280029296875,-0.16156005859375
1.0373077392578125,0.1583251953125,-0.2519073486328125
1.0764923095703125,0.150665283203125,-0.281585693359375
1.2117767333984375,0.1065673828125,-0.2237701416015625
1.373260498046875,0.1408843994140625,-0.236785888671875
1.271820068359375,0.1668701171875,-0.2926788330078125
0.93994140625,0.1871490478515625,-0.272674560546875
1.0749969482421875,0.1303253173828125,-0.23687744140625
1.313018798828125,0.0462188720703125,-0.1118927001953125
1.5396575927734375,-0.024749755859375,-0.0601806640625
1.476837158203125,-0.0743255615234375,-0.0762786865234375
1.305328369140625,-0.054107666015625,-0.0948028564453125
1.223968505859375,-0.02288818359375,-0.0473480224609375
1.1024627685546875,-0.0010833740234375,-0.04443359375
0.9519500732421876,0.0083160400390625,-0.0612335205078125
0.78753662109375,0.0079345703125,-0.06640625
0.6584625244140625,0.003509521484375,-0.0845794677734375
0.624786376953125,0.001861572265625,-0.1056365966796875
0.6622772216796875,0.0079345703125,-0.10089111328125
0.7822265625,0.0004119873046875,-0.1211700439453125
0.9111480712890624,-0.01727294921875,-0.0914306640625
1.1532440185546875,-0.021575927734375,0.058135986328125
1.46722412109375,-0.0226593017578125,0.03533935546875
1.6340179443359375,0.0699310302734375,-0.0636138916015625
1.640716552734375,0.1534881591796875,-0.1714019775390625
1.3414459228515625,0.22625732421875,-0.1107177734375
1.0412445068359375,0.073822021484375,0.0100250244140625
1.22491455078125,-0.11181640625,0.0498199462890625
1.10699462890625,-0.031494140625,0.0984344482421875
0.9300689697265624,0.0323486328125,0.08782958984375
0.8227386474609375,0.1353302001953125,0.1138763427734375
0.78045654296875,0.2273406982421875,0.1107635498046875
0.7934722900390625,0.2602996826171875,0.1259613037109375
0.85406494140625,0.2577972412109375,0.15789794921875
0.87750244140625,0.2581634521484375,0.156951904296875
0.92340087890625,0.2733612060546875,0.087066650390625
1.0962371826171875,0.284027099609375,-0.0881500244140625
1.51593017578125,0.200836181640625,-0.101318359375
1.5836029052734375,0.232666015625,-0.2873382568359375
1.1845550537109375,0.332763671875,-0.3697052001953125
0.89111328125,0.314605712890625,-0.3979949951171875
0.9826202392578124,0.2528228759765625,-0.3529815673828125
1.227630615234375,0.2142791748046875,-0.2721710205078125
1.2780914306640625,0.138153076171875,-0.2586822509765625
1.2138214111328125,0.059112548828125,-0.2191925048828125
1.2322998046875,0.0156707763671875,-0.1495361328125
1.2261962890625,-0.02655029296875,-0.0507354736328125
1.1436309814453125,-0.0453948974609375,0.00048828125
1.034881591796875,-0.04278564453125,-0.0202484130859375
0.881866455078125,-0.0146026611328125,-0.0590972900390625
0.76666259765625,0.0170440673828125,-0.0654754638671875
0.72802734375,0.0430755615234375,-0.068511962890625
0.8863677978515625,0.0391998291015625,-0.0489959716796875
0.99786376953125,0.01007080078125,-0.0003509521484375
1.07891845703125,-0.0049285888671875,0.0751953125
1.32830810546875,-0.03564453125,0.0736083984375
1.1868743896484375,0.08013916015625,0.0114898681640625
1.1389312744140625,0.17388916015625,-0.1737518310546875
1.1537628173828125,0.24700927734375,-0.1938323974609375
0.9965362548828124,0.2174835205078125,-0.0747833251953125
0.9726409912109376,0.08221435546875,-0.031219482421875
1.017822265625,0.02203369140625,-0.0317840576171875
0.9427642822265624,0.006134033203125,-0.0070343017578125
0.9069976806640624,0.0169677734375,-0.0094146728515625
0.9490966796875,0.0615692138671875,-0.0313720703125
1.0064544677734375,0.11700439453125,-0.0657196044921875
1.05401611328125,0.1387176513671875,-0.0953521728515625
0.9422760009765624,0.1469573974609375,-0.120941162109375
0.93914794921875,0.136016845703125,-0.1655120849609375
1.0865020751953125,0.14044189453125,-0.274993896484375
1.1429901123046875,0.194305419921875,-0.2793731689453125
1.35137939453125,0.1464691162109375,-0.2088165283203125
1.4071807861328125,0.1489410400390625,-0.2421722412109375
1.2307281494140625,0.1939849853515625,-0.3200225830078125
0.955810546875,0.2049560546875,-0.2358856201171875
1.107757568359375,0.2073974609375,-0.1665496826171875
1.3397064208984375,0.1566314697265625,-0.0440521240234375
1.416259765625,0.0374603271484375,0.0217437744140625
1.26220703125,-0.036834716796875,0.0408477783203125
1.179443359375,-0.0545654296875,0.072601318359375
1.1579437255859375,-0.038238525390625,0.090545654296875
1.0498199462890625,0.000396728515625,0.1156158447265625
0.9134979248046876,0.020050048828125,0.061767578125
0.7845916748046875,0.0388031005859375,0.0172882080078125
0.7176971435546875,0.057891845703125,0.0175018310546875
0.76995849609375,0.06463623046875,-0.034149169921875
0.910858154296875,0.076446533203125,-0.06549072265625
1.0347442626953125,0.0499725341796875,-0.00787353515625
1.3658447265625,-0.0543060302734375,0.0496978759765625
1.30706787109375,-0.0323333740234375,0.0416259765625
1.21136474609375,0.0291595458984375,-0.1343536376953125
1.341552734375,0.1525115966796875,-0.3281097412109375
1.2924041748046875,0.1443023681640625,-0.1631622314453125
1.1045989990234375,-0.0045013427734375,0.0438690185546875
0.9487457275390624,-0.0982666015625,0.01605224609375
0.8936767578125,-0.0845794677734375,-0.089691162109375
0.8435821533203125,0.0045623779296875,-0.0811614990234375
0.9050750732421876,0.082733154296875,-0.0958099365234375
0.9994354248046876,0.1446533203125,-0.170166015625
0.928009033203125,0.186187744140625,-0.1659698486328125
0.8927459716796875,0.156524658203125,-0.1965484619140625
0.9854278564453124,0.128204345703125,-0.239410400390625
1.11993408203125,0.1322021484375,-0.2750396728515625
1.15362548828125,0.1143646240234375,-0.1224517822265625
1.3228759765625,0.05963134765625,-0.2347869873046875
1.1813812255859375,0.0902557373046875,-0.19561767578125
1.2762451171875,0.110992431640625,-0.1294708251953125
1.3468475341796875,0.1857452392578125,-0.04345703125
1.3316802978515625,0.148284912109375,0.014007568359375
1.2002716064453125,0.059967041015625,0.02532958984375
1.1576080322265625,0.030853271484375,0.043487548828125
1.1483612060546875,0.0332794189453125,0.060028076171875
1.0909271240234375,0.02386474609375,0.0908203125
0.9622955322265624,0.024200439453125,0.0892333984375
0.8783111572265625,0.024871826171875,0.0775146484375
0.8149261474609375,0.0355224609375,0.075347900390625
0.9256439208984376,0.0272216796875,0.05023193359375
1.0111083984375,0.03863525390625,0.015838623046875
1.1908416748046875,0.0213623046875,0.0323028564453125
1.3309478759765625,-0.0684967041015625,0.04583740234375
1.27972412109375,-0.0838623046875,0.008453369140625
1.024322509765625,0.00836181640625,-0.174652099609375
1.0431060791015625,0.115142822265625,-0.2809295654296875
1.00738525390625,0.132080078125,-0.190948486328125
0.902740478515625,0.0987091064453125,-0.1197509765625
0.85528564453125,0.073089599609375,-0.1014862060546875
0.868560791015625,0.0277557373046875,-0.07342529296875
0.978485107421875,-0.009674072265625,-0.05169677734375
1.1165771484375,0.0274658203125,-0.1049041748046875
1.1529388427734375,0.09991455078125,-0.1961669921875
1.002532958984375,0.14447021484375,-0.241943359375
0.925384521484375,0.11846923828125,-0.2866668701171875
1.134979248046875,0.0747222900390625,-0.3199920654296875
1.2208099365234375,0.07720947265625,-0.191741943359375
1.48406982421875,0.0696563720703125,-0.3176422119140625
1.2261505126953125,0.1175079345703125,-0.3363800048828125
1.0525054931640625,0.119232177734375,-0.2851104736328125
1.256683349609375,0.15533447265625,-0.163177490234375
1.421600341796875,0.11578369140625,-0.0457916259765625
1.37567138671875,0.02239990234375,0.0387115478515625
1.2030487060546875,-0.004241943359375,0.0366973876953125
1.1088714599609375,0.0053253173828125,0.031829833984375
1.093109130859375,0.0244598388671875,0.0694122314453125
1.0432891845703125,0.0352325439453125,0.0665435791015625
0.93017578125,0.037353515625,0.049407958984375
0.782379150390625,0.045867919921875,0.033172607421875
0.7318572998046875,0.03399658203125,0.00689697265625
0.8430938720703125,0.017974853515625,-0.0133056640625
0.8999786376953125,-0.00604248046875,-0.02392578125
1.107269287109375,-0.048919677734375,-0.053955078125
1.1008148193359375,-0.0479583740234375,-0.08135986328125
1.084075927734375,-0.009124755859375,-0.0400848388671875
1.2593536376953125,0.0516357421875,-0.2100830078125
1.4432525634765625,0.135650634765625,-0.2601318359375
1.2280426025390625,0.1450042724609375,-0.11334228515625
0.9787445068359376,0.08978271484375,-0.0615386962890625
0.8809814453125,0.04302978515625,-0.0578460693359375
0.93975830078125,0.00494384765625,0.0019989013671875
1.085723876953125,0.026824951171875,0.012603759765625
1.21551513671875,0.0930328369140625,-0.040679931640625
1.1686859130859375,0.1720123291015625,-0.1330108642578125
1.017333984375,0.2323150634765625,-0.1243896484375
1.089263916015625,0.246551513671875,-0.2108612060546875
1.2431488037109375,0.26837158203125,-0.26513671875
1.344329833984375,0.2042999267578125,-0.248626708984375
1.258544921875,0.2309417724609375,-0.2957763671875
1.1361846923828125,0.23223876953125,-0.3096160888671875
1.240478515625,0.2234649658203125,-0.215301513671875
1.3951873779296875,0.2044525146484375,-0.122344970703125
1.344879150390625,0.089508056640625,-0.0165863037109375
1.27880859375,0.0045318603515625,-0.0085296630859375
1.2166748046875,0.0077667236328125,0.0233306884765625
1.2196502685546875,-0.007476806640625,0.0680084228515625
1.1614837646484375,-0.012298583984375,0.0918121337890625
1.1852874755859375,-0.020965576171875,0.0829925537109375
0.9860992431640624,0.0054168701171875,0.08502197265625
0.8243560791015625,0.0318603515625,0.059722900390625
0.7464141845703125,0.0502471923828125,0.042755126953125
0.9107666015625,0.02227783203125,0.046844482421875
0.9878387451171876,-0.0077667236328125,0.0671844482421875
1.2606201171875,-0.0602569580078125,0.0850372314453125
1.1279144287109375,-0.0115509033203125,0.017730712890625
0.9748077392578124,0.07696533203125,-0.076202392578125
1.0503692626953125,0.1726531982421875,-0.243927001953125
1.20281982421875,0.2505340576171875,-0.2624969482421875
1.120819091796875,0.1878204345703125,-0.0504608154296875
1.0299835205078125,0.0483856201171875,0.0287628173828125
0.9875335693359376,-0.027618408203125,-0.0047760009765625
1.0529022216796875,-0.084991455078125,0.013427734375
1.18145751953125,-0.0243682861328125,-0.0369415283203125
1.2533416748046875,0.0711517333984375,-0.15234375
1.1251373291015625,0.1601715087890625,-0.2208404541015625
0.9451446533203124,0.1586456298828125,-0.2135467529296875
0.9564666748046876,0.1071624755859375,-0.2219696044921875
1.1864471435546875,0.149078369140625,-0.3075408935546875
1.2489166259765625,0.21624755859375,-0.1989898681640625
1.517425537109375,0.224578857421875,-0.3238372802734375
1.3835906982421875,0.240966796875,-0.3106842041015625
1.039642333984375,0.118927001953125,-0.189056396484375
1.0901031494140625,0.12786865234375,-0.118072509765625
1.4614715576171875,0.0810699462890625,-0.052459716796875
1.5668487548828125,-0.021514892578125,0.05419921875
1.4697113037109375,-0.06378173828125,0.0439605712890625
1.2047271728515625,-0.0324859619140625,0.08355712890625
1.0686798095703125,0.016143798828125,0.095458984375
1.0026092529296875,0.054229736328125,0.08880615234375
0.8855133056640625,0.0610809326171875,0.0602264404296875
0.7549896240234375,0.0688934326171875,0.030181884765625
0.680328369140625,0.062255859375,0.0035247802734375
0.7418670654296875,0.046966552734375,-0.0023956298828125
0.877593994140625,0.016357421875,0.035888671875
1.0320892333984375,-0.0167388916015625,0.0830841064453125
1.2881927490234375,-0.104339599609375,0.0870513916015625
1.145721435546875,-0.0300140380859375,0.05157470703125
1.2258148193359375,0.0420074462890625,-0.1421356201171875
1.4505157470703125,0.1974945068359375,-0.24542236328125
1.2870025634765625,0.21173095703125,-0.1042633056640625
1.08209228515625,0.093597412109375,-0.027130126953125
0.99822998046875,0.012359619140625,-0.066558837890625
0.9156036376953124,-0.0010528564453125,0.0287628173828125
1.076324462890625,0.0100555419921875,0.03765869140625
1.166900634765625,0.1059417724609375,-0.0282440185546875
1.282257080078125,0.22808837890625,-0.088592529296875
1.1996612548828125,0.3479156494140625,-0.09783935546875
1.1483154296875,0.4974822998046875,-0.28228759765625
1.1932373046875,0.49871826171875,-0.3813323974609375
1.3457489013671875,0.3617706298828125,-0.3452301025390625
1.224945068359375,0.2594146728515625,-0.2197418212890625
1.1472930908203125,0.085205078125,-0.1984405517578125
1.20703125,0.0305328369140625,-0.0623779296875
1.5025177001953125,0.057403564453125,-0.1218414306640625
1.4420318603515625,0.02484130859375,-0.06866455078125
1.282684326171875,0.0559844970703125,-0.0578460693359375
1.2234039306640625,0.0733489990234375,0.0221405029296875
1.247161865234375,0.06292724609375,0.059814453125
1.2254486083984375,0.0372467041015625,0.0878753662109375
1.0288238525390625,0.016571044921875,0.10870361328125
0.905364990234375,-0.00299072265625,0.08172607421875
0.747802734375,0.0195465087890625,0.0540924072265625
0.652069091796875,0.0391693115234375,0.0723876953125
0.7053985595703125,0.037506103515625,0.03863525390625
0.8505859375,0.02667236328125,0.0113677978515625
0.966705322265625,0.027008056640625,0.0074615478515625
1.295654296875,-0.0252685546875,0.0184783935546875
1.1762542724609375,0.026641845703125,-0.0461273193359375
1.1692047119140625,0.05841064453125,-0.1817169189453125
1.3264923095703125,0.138702392578125,-0.2349853515625
1.2937164306640625,0.1602935791015625,-0.097686767578125
1.16448974609375,0.083282470703125,-0.0625457763671875
0.9998779296875,0.0355377197265625,-0.0705718994140625
0.9099884033203124,-0.00048828125,-0.0493316650390625
0.9981231689453124,-0.0016937255859375,-0.000946044921875
1.181732177734375,0.054168701171875,-0.037506103515625
1.214019775390625,0.1566314697265625,-0.129119873046875
1.06231689453125,0.2306060791015625,-0.149169921875
0.962921142578125,0.2569427490234375,-0.231689453125
1.0838470458984375,0.27978515625,-0.37554931640625
1.1798858642578125,0.2825469970703125,-0.349029541015625
1.3572998046875,0.22918701171875,-0.2968597412109375
1.575653076171875,0.1987152099609375,-0.2993621826171875
1.318511962890625,0.1111602783203125,-0.1915130615234375
1.0773468017578125,0.0836029052734375,-0.098846435546875
1.259368896484375,0.07208251953125,-0.146026611328125
1.4476470947265625,0.1032257080078125,-0.06719970703125
1.4126129150390625,0.0782623291015625,0.0027618408203125
1.2630462646484375,0.054290771484375,0.0327911376953125
1.203125,0.0297088623046875,0.0809173583984375
1.13958740234375,0.0097503662109375,0.131805419921875
1.04229736328125,0.001251220703125,0.15594482421875
0.9009246826171876,0.02471923828125,0.1566925048828125
0.7678985595703125,0.0409698486328125,0.140380859375
0.69744873046875,0.062835693359375,0.0971832275390625
0.8079833984375,0.0693817138671875,0.0855255126953125
0.970123291015625,0.0378265380859375,0.0706329345703125
1.011016845703125,0.0183868408203125,0.072021484375
1.134246826171875,-0.0230560302734375,0.0455169677734375
0.998138427734375,0.034881591796875,-0.097076416015625
1.0739593505859375,0.0584259033203125,-0.1385040283203125
1.3009033203125,0.125579833984375,-0.2293243408203125
1.427581787109375,0.182525634765625,-0.2345123291015625
1.364837646484375,0.1755828857421875,-0.2078399658203125
1.0824737548828125,0.156951904296875,-0.1272735595703125
0.944488525390625,0.0157318115234375,-0.032989501953125
1.06024169921875,-0.071868896484375,0.0233612060546875
1.18255615234375,-0.0300140380859375,-0.029052734375
1.1891632080078125,0.0883331298828125,-0.1625823974609375
1.08477783203125,0.2193145751953125,-0.21807861328125
0.9404754638671876,0.2775421142578125,-0.259246826171875
0.9231414794921876,0.2758331298828125,-0.3343963623046875
1.10333251953125,0.2813568115234375,-0.372467041015625
1.2076263427734375,0.1989898681640625,-0.2508544921875
1.37567138671875,0.1035003662109375,-0.3086395263671875
1.2971038818359375,0.05926513671875,-0.30133056640625
1.1819610595703125,0.051177978515625,-0.2077484130859375
1.42498779296875,0.0305328369140625,-0.1014862060546875
1.6635894775390625,-0.0004119873046875,-0.03546142578125
1.61834716796875,-0.0251922607421875,0.0219573974609375
1.36798095703125,-0.0090179443359375,0.0284576416015625
1.1746826171875,0.0271759033203125,0.048675537109375
1.08282470703125,0.06103515625,0.0687255859375
1.027679443359375,0.05224609375,0.092376708984375
0.93353271484375,0.02557373046875,0.1007843017578125
0.8200531005859375,0.006195068359375,0.104339599609375
0.6996612548828125,0.016693115234375,0.083831787109375
0.6184844970703125,0.0411834716796875,0.0543975830078125
0.675048828125,0.042816162109375,0.017913818359375
0.7915802001953125,0.0140380859375,0.0308685302734375
0.977874755859375,-0.0223846435546875,0.06695556640625
1.2109222412109375,0.0125885009765625,0.0003509521484375
1.107452392578125,0.162109375,-0.1045379638671875
1.363189697265625,0.246917724609375,-0.2307891845703125
1.8210906982421875,0.2866668701171875,-0.33563232421875
1.519622802734375,0.2397003173828125,-0.079254150390625
1.302032470703125,0.0512542724609375,-0.1103057861328125
0.9813385009765624,-0.0142059326171875,-0.1417999267578125
0.8222503662109375,-0.0417022705078125,-0.07391357421875
0.857330322265625,-0.0094757080078125,-0.1038665771484375
0.9742889404296876,0.0595703125,-0.142578125
1.1006011962890625,0.1216888427734375,-0.1083221435546875
1.1070098876953125,0.1906280517578125,-0.0590667724609375
0.958465576171875,0.246490478515625,-0.09027099609375
0.9192962646484376,0.2655487060546875,-0.249847412109375
0.9915008544921876,0.3252716064453125,-0.3035430908203125
1.492767333984375,0.23468017578125,-0.2788543701171875
1.7541961669921875,0.1174163818359375,-0.2539215087890625
1.2243499755859375,0.080078125,-0.206207275390625
0.9612884521484376,0.0294036865234375,-0.214385986328125
1.0676116943359375,0.05865478515625,-0.1927642822265625
1.3526763916015625,0.077850341796875,-0.189788818359375
1.3757781982421875,0.0249481201171875,-0.1027984619140625
1.3094635009765625,-0.013885498046875,-0.09771728515625
1.210906982421875,-0.0376739501953125,-0.0236358642578125
1.0530242919921875,-0.04278564453125,0.0142059326171875
0.9515380859375,-0.0261077880859375,0.0291290283203125
0.8531646728515625,-0.006378173828125,-0.00946044921875
0.753021240234375,0.01898193359375,-0.0328521728515625
0.719329833984375,0.0358123779296875,-0.031951904296875
0.7467193603515625,0.035736083984375,-0.04058837890625
0.857818603515625,0.0259552001953125,-0.0380706787109375
0.8382110595703125,-0.010223388671875,-0.021453857421875
1.0488433837890625,-0.0307769775390625,0.0343780517578125
1.221710205078125,-0.0048828125,-0.033538818359375
1.315704345703125,0.0903167724609375,-0.10736083984375
1.314727783203125,0.1698455810546875,-0.2243194580078125
1.35150146484375,0.192840576171875,-0.2352294921875
1.2387542724609375,0.14044189453125,-0.083587646484375
1.1445465087890625,-0.0072479248046875,-0.0259857177734375
0.9642791748046876,-0.0454559326171875,0.0109710693359375
0.90716552734375,0.0095672607421875,0.03759765625
0.9462890625,0.092437744140625,0.0298309326171875
0.9956817626953124,0.1949462890625,0.0135498046875
1.0033721923828125,0.259613037109375,-0.030609130859375
0.9151458740234376,0.2778167724609375,-0.0970916748046875
0.8077392578125,0.3007354736328125,-0.1864776611328125
0.9456024169921876,0.2991790771484375,-0.31671142578125
1.2086181640625,0.26904296875,-0.360443115234375
1.3401947021484375,0.1824493408203125,-0.2316741943359375
1.4112701416015625,0.0410614013671875,-0.2158355712890625
1.3116912841796875,0.0050048828125,-0.2567291259765625
0.986846923828125,0.0511932373046875,-0.261810302734375
0.8712615966796875,0.0849456787109375,-0.1890106201171875
1.14801025390625,0.1117095947265625,-0.1656951904296875
1.4948272705078125,0.088775634765625,-0.1310882568359375
1.5444183349609375,0.0159454345703125,-0.0859527587890625
1.3223724365234375,-0.015960693359375,-0.0072174072265625
1.089813232421875,-0.058990478515625,0.01788330078125
0.92376708984375,-0.03692626953125,-0.0071868896484375
0.9059600830078124,0.0103607177734375,-0.0157623291015625
0.8814544677734375,0.034210205078125,-0.0187835693359375
0.8059539794921875,0.0596466064453125,-0.048614501953125
0.7089691162109375,0.0754852294921875,-0.077056884765625
0.730072021484375,0.050262451171875,-0.0608978271484375
0.854034423828125,0.008514404296875,-0.0862274169921875
1.1419830322265625,-0.0349884033203125,0.0679473876953125
1.3335113525390625,-0.0671234130859375,0.1486358642578125
1.24322509765625,0.033355712890625,0.0047454833984375
1.1836090087890625,0.1414031982421875,-0.20281982421875
1.18408203125,0.2486724853515625,-0.15716552734375
1.1301727294921875,0.2040863037109375,-0.07232666015625
1.2137603759765625,0.0792083740234375,-0.020355224609375
1.2093658447265625,0.029632568359375,-0.0117034912109375
1.046173095703125,0.0318756103515625,0.0158843994140625
0.945220947265625,0.0941925048828125,-0.0059814453125
0.9532470703125,0.1257781982421875,-0.02874755859375
1.012420654296875,0.13751220703125,-0.0934295654296875
0.9536590576171876,0.1669158935546875,-0.129364013671875
0.914398193359375,0.1541748046875,-0.182525634765625
0.920013427734375,0.1676788330078125,-0.273895263671875
1.1379241943359375,0.1917724609375,-0.3282928466796875
1.551361083984375,0.12762451171875,-0.2226409912109375
1.642669677734375,0.035247802734375,-0.229339599609375
0.98382568359375,0.0581817626953125,-0.140960693359375
0.6831817626953125,0.061126708984375,-0.1508331298828125
0.918975830078125,0.0453948974609375,-0.103271484375
1.276519775390625,0.0301361083984375,-0.0731048583984375
1.305511474609375,0.009521484375,-0.019287109375
1.2956390380859375,0.0444488525390625,-0.0163116455078125
1.1203460693359375,0.0355224609375,0.0723419189453125
0.976898193359375,0.038421630859375,0.088348388671875
0.8918304443359375,0.0557403564453125,0.0579071044921875
0.9235076904296876,0.0661773681640625,0.033416748046875
0.8941650390625,0.078582763671875,-0.0005950927734375
0.87158203125,0.073944091796875,-0.00384521484375
0.8739013671875,0.057342529296875,-0.034454345703125
0.96392822265625,0.0368499755859375,-0.0689239501953125
1.096343994140625,0.0047607421875,0.0129241943359375
1.4577484130859375,-0.100189208984375,0.04449462890625
1.432159423828125,-0.088134765625,-0.0894622802734375
1.044342041015625,0.0221710205078125,-0.3306427001953125
0.6307373046875,0.1673583984375,-0.3438568115234375
0.6418304443359375,0.1345977783203125,-0.19110107421875
0.91876220703125,0.0012664794921875,0.01495361328125
1.289947509765625,-0.018829345703125,0.0385894775390625
1.1902618408203125,-0.0498809814453125,-0.01055908203125
0.9427947998046876,0.1011962890625,-0.0388031005859375
0.8468475341796875,0.173095703125,-0.1227264404296875
0.8596954345703125,0.192474365234375,-0.1297607421875
0.9485931396484376,0.2017822265625,-0.116607666015625
0.928070068359375,0.147552490234375,-0.058258056640625
0.911529541015625,0.093902587890625,-0.064849853515625
0.9878692626953124,0.0482330322265625,-0.1087646484375
1.0236968994140625,0.0625762939453125,-0.1202850341796875
1.0620269775390625,0.086578369140625,-0.131439208984375
1.2115478515625,0.06671142578125,-0.1673583984375
1.2925262451171875,0.04986572265625,-0.166412353515625
1.1267242431640625,0.0860595703125,-0.31842041015625
0.73095703125,0.135955810546875,-0.2528533935546875
1.08184814453125,0.1052093505859375,-0.25531005859375
1.46624755859375,0.100921630859375,-0.1801605224609375
1.2552032470703125,0.0368804931640625,-0.0960540771484375
1.017578125,-0.0424652099609375,-0.12274169921875
0.90277099609375,-0.0233306884765625,-0.0722808837890625
0.9196014404296876,0.0197296142578125,-0.033050537109375
0.8950042724609375,0.0580902099609375,-0.0292816162109375
0.863555908203125,0.0517578125,-0.0652923583984375
0.7825927734375,0.0510101318359375,-0.0767974853515625
0.816375732421875,0.0338897705078125,-0.0496673583984375
0.9672088623046876,0.008392333984375,-0.0063629150390625
1.046966552734375,-0.014617919921875,0.0338592529296875
1.4293060302734375,-0.056243896484375,0.04156494140625
1.427032470703125,0.0244140625,0.0530548095703125
1.2275543212890625,0.1206207275390625,-0.08758544921875
0.9662017822265624,0.1692047119140625,-0.21533203125
0.9333648681640624,0.1617584228515625,-0.1608123779296875
0.9150848388671876,0.1111907958984375,-0.0253448486328125
0.8969268798828125,0.0282440185546875,0.0113067626953125
0.85687255859375,-0.007080078125,-0.003692626953125
0.8800811767578125,0.0195770263671875,-0.031829833984375
0.9377899169921876,0.092803955078125,-0.0455169677734375
0.992828369140625,0.1466217041015625,-0.1281280517578125
0.9136199951171876,0.205596923828125,-0.18902587890625
0.8753204345703125,0.2164306640625,-0.25006103515625
0.9468994140625,0.179595947265625,-0.266357421875
1.1229705810546875,0.121917724609375,-0.29730224609375
1.223175048828125,0.063812255859375,-0.1684417724609375
1.4219207763671875,0.039337158203125,-0.2264556884765625
1.3264312744140625,0.1016693115234375,-0.2716522216796875
1.1684112548828125,0.1527099609375,-0.118865966796875
1.266326904296875,0.148345947265625,-0.0718536376953125
1.3544158935546875,0.0653076171875,0.01641845703125
1.2666473388671875,-0.02099609375,0.0947265625
1.0667724609375,-0.0224456787109375,0.0605926513671875
1.0833587646484375,0.0119171142578125,0.0146331787109375
1.1519317626953125,0.0376129150390625,0.038909912109375
1.101318359375,0.0416107177734375,0.037567138671875
0.9657440185546876,0.03790283203125,0.03057861328125
0.8126068115234375,0.0285491943359375,0.0026092529296875
0.7353668212890625,0.0324554443359375,-0.0150604248046875
0.882171630859375,0.01776123046875,-0.0467529296875
0.952239990234375,0.0026397705078125,-0.0639801025390625
1.2242431640625,-0.062896728515625,-0.0311737060546875
1.199615478515625,-0.034149169921875,0.0244293212890625
1.045867919921875,0.0438232421875,-0.0129241943359375
0.91326904296875,0.0973968505859375,-0.133819580078125
1.1028594970703125,0.14239501953125,-0.1853790283203125
1.17547607421875,0.1595306396484375,-0.1484222412109375
1.1304779052734375,0.0669708251953125,-0.047149658203125
1.03997802734375,0.025421142578125,-0.0285491943359375
1.0637054443359375,0.00537109375,-0.0596466064453125
1.132415771484375,0.034393310546875,-0.06866455078125
1.16796875,0.0849456787109375,-0.1212005615234375
1.028900146484375,0.1206207275390625,-0.1704559326171875
0.886016845703125,0.122955322265625,-0.199737548828125
0.92816162109375,0.1077880859375,-0.263580322265625
1.051971435546875,0.1203765869140625,-0.2951507568359375
1.08111572265625,0.129058837890625,-0.19854736328125
1.319580078125,0.0792999267578125,-0.2606353759765625
1.293060302734375,0.106964111328125,-0.2763671875
1.1265106201171875,0.1324920654296875,-0.2142791748046875
1.2467041015625,0.106109619140625,-0.156341552734375
1.486083984375,0.04449462890625,-0.0629730224609375
1.541412353515625,-0.0447235107421875,-0.0160064697265625
1.3967437744140625,-0.07342529296875,-0.0701751708984375
1.2459259033203125,-0.0413055419921875,-0.0960693359375
1.1002044677734375,-0.001129150390625,-0.0554656982421875
1.029205322265625,0.0158538818359375,-0.0328826904296875
0.9214935302734376,0.00360107421875,-0.047210693359375
0.80596923828125,0.002410888671875,-0.0758514404296875
0.79241943359375,-0.005218505859375,-0.0724639892578125
0.90155029296875,-0.0158233642578125,-0.0968170166015625
1.000885009765625,-0.0518341064453125,-0.00885009765625
1.137725830078125,-0.1395721435546875,0.1017913818359375
1.1722869873046875,-0.182281494140625,0.033599853515625
0.9781341552734376,-0.03424072265625,-0.1432037353515625
0.9250946044921876,0.0819854736328125,-0.1972503662109375
1.290374755859375,0.0897369384765625,-0.2178192138671875
1.473388671875,0.0454864501953125,-0.099334716796875
1.3722991943359375,-0.0221710205078125,0.03668212890625
1.156005859375,-0.04412841796875,0.05804443359375
1.0516204833984375,0.020751953125,0.065460205078125
1.0738067626953125,0.1176910400390625,0.0682373046875
1.0380706787109375,0.2008514404296875,0.09649658203125
0.9690704345703124,0.2584075927734375,0.110626220703125
0.9544525146484376,0.2638702392578125,0.08892822265625
0.9528045654296876,0.264312744140625,0.0652008056640625
0.9861602783203124,0.259490966796875,0.0288543701171875
0.9868927001953124,0.304168701171875,-0.085479736328125
1.3327789306640625,0.3336334228515625,-0.1405029296875
1.5374603271484375,0.420135498046875,-0.3571319580078125
1.143798828125,0.4398956298828125,-0.3489990234375
1.04638671875,0.2374114990234375,-0.3108673095703125
1.175628662109375,0.11090087890625,-0.2852325439453125
1.185821533203125,0.0283966064453125,-0.237335205078125
1.2728271484375,-0.0054779052734375,-0.2869110107421875
1.408355712890625,-0.031158447265625,-0.337249755859375
1.4001312255859375,-0.05035400390625,-0.204559326171875
1.31646728515625,-0.0579833984375,-0.11395263671875
1.12811279296875,-0.06341552734375,-0.0898590087890625
0.9396820068359376,-0.0491180419921875,-0.0755462646484375
0.7723236083984375,-0.02813720703125,-0.060302734375
0.7728729248046875,-0.011016845703125,-0.0762786865234375
0.9198760986328124,-0.0160980224609375,-0.0787353515625
1.015594482421875,-0.0366058349609375,-0.0206298828125
0.997314453125,-0.053192138671875,0.0479278564453125
1.23052978515625,-0.0924835205078125,0.09588623046875
1.09832763671875,0.0105743408203125,0.097320556640625
1.2343902587890625,0.10235595703125,-0.0169830322265625
1.2967376708984375,0.2022705078125,-0.1570281982421875
1.2826690673828125,0.209503173828125,-0.13677978515625
1.168487548828125,0.09735107421875,-0.0351715087890625
1.0297088623046875,0.0345916748046875,0.0070953369140625
0.922607421875,-0.0025482177734375,0.0321044921875
0.9369659423828124,-0.002593994140625,0.0751953125
1.0092010498046875,0.066436767578125,0.056304931640625
1.052398681640625,0.15692138671875,0.0425567626953125
1.031036376953125,0.20416259765625,0.0384979248046875
0.97552490234375,0.2229461669921875,-0.0167999267578125
0.8532562255859375,0.246124267578125,-0.105072021484375
0.9797210693359376,0.22900390625,-0.1957550048828125
1.11102294921875,0.2071533203125,-0.244659423828125
1.37091064453125,0.1396331787109375,-0.2839508056640625
1.3294677734375,0.12518310546875,-0.35791015625
1.0364990234375,0.137054443359375,-0.3432159423828125
1.0774078369140625,0.079010009765625,-0.305145263671875
1.2087554931640625,0.0424652099609375,-0.221954345703125
1.2539215087890625,-0.0008087158203125,-0.164306640625
1.2509307861328125,-0.0307464599609375,-0.1750030517578125
1.163116455078125,-0.0406341552734375,-0.1696929931640625
1.1660308837890625,-0.02313232421875,-0.1104278564453125
1.161102294921875,-0.0079193115234375,-0.0671539306640625
1.0831146240234375,0.0013275146484375,-0.01629638671875
0.96746826171875,0.0017547607421875,-0.045196533203125
0.8312835693359375,-0.0001373291015625,-0.0565032958984375
0.713287353515625,0.0134429931640625,-0.072418212890625
0.7491607666015625,0.0200958251953125,-0.0470428466796875
0.9257659912109376,-0.0193634033203125,-0.0420684814453125
1.0013580322265625,-0.0254058837890625,0.01812744140625
1.251190185546875,-0.0675201416015625,0.080230712890625
1.1053314208984375,0.0338592529296875,0.0294952392578125
1.11053466796875,0.104278564453125,-0.1172027587890625
1.2311859130859375,0.1903839111328125,-0.1503753662109375
1.2256927490234375,0.187713623046875,-0.054412841796875
1.1593017578125,0.1019439697265625,-0.0322265625
1.058135986328125,0.0615081787109375,-0.0556488037109375
0.9676361083984376,0.049835205078125,-0.0621795654296875
0.999298095703125,0.039215087890625,-0.0820770263671875
1.04656982421875,0.060577392578125,-0.10797119140625
1.0782012939453125,0.0649871826171875,-0.162933349609375
0.9781494140625,0.067779541015625,-0.2210235595703125
0.82952880859375,0.0925750732421875,-0.2739105224609375
0.7966766357421875,0.12847900390625,-0.32904052734375
1.020660400390625,0.1409149169921875,-0.3322906494140625
1.142578125,0.0973052978515625,-0.1116943359375
1.5411376953125,0.0265045166015625,-0.105133056640625
1.4104766845703125,0.06365966796875,-0.222442626953125
0.9690093994140624,0.19195556640625,-0.3044586181640625
1.0400543212890625,0.2145843505859375,-0.2210693359375
1.24896240234375,0.1768035888671875,-0.1672515869140625
1.3478546142578125,0.102783203125,-0.0713958740234375
1.336212158203125,0.0128021240234375,-0.091156005859375
1.1497955322265625,-0.0111541748046875,-0.073394775390625
1.06463623046875,-0.044586181640625,-0.0119781494140625
1.007904052734375,-0.0682830810546875,-0.0186767578125
0.9237060546875,-0.0584869384765625,-0.02398681640625
0.8222198486328125,-0.0386962890625,-0.051849365234375
0.7224578857421875,-0.010040283203125,-0.0490875244140625
0.6751861572265625,0.0001220703125,-0.03778076171875
0.73297119140625,-0.005767822265625,-0.0283050537109375
0.8823394775390625,-0.0002899169921875,-0.02783203125
1.0121612548828125,0.0162811279296875,-0.0052490234375
1.4320526123046875,-0.0346527099609375,0.080780029296875
1.452178955078125,0.0319366455078125,0.06402587890625
1.3347625732421875,0.1153411865234375,-0.1278228759765625
1.2751617431640625,0.228485107421875,-0.20458984375
1.1611785888671875,0.288330078125,-0.12109375
1.1643829345703125,0.11187744140625,-0.0030364990234375
1.16680908203125,-0.006683349609375,0.0203399658203125
1.0139923095703125,-0.0153350830078125,0.007476806640625
0.9095458984375,0.044769287109375,-0.029510498046875
0.88311767578125,0.1082305908203125,-0.110931396484375
0.8941802978515625,0.1938629150390625,-0.1797637939453125
0.9681549072265624,0.2198486328125,-0.22369384765625
0.933685302734375,0.229461669921875,-0.17633056640625
0.9542694091796876,0.2480010986328125,-0.211029052734375
1.0679168701171875,0.260894775390625,-0.2882537841796875
1.1722564697265625,0.2369842529296875,-0.1495361328125
1.4089508056640625,0.188629150390625,-0.1682281494140625
1.4959716796875,0.1853179931640625,-0.1564788818359375
1.2812347412109375,0.21832275390625,-0.1831207275390625
1.1086578369140625,0.20513916015625,-0.0697174072265625
1.235260009765625,0.1344451904296875,-0.0265350341796875
1.42535400390625,0.062652587890625,0.0673675537109375
1.4332275390625,-0.0110321044921875,0.1124420166015625
1.398162841796875,-0.0349578857421875,0.1111907958984375
1.25567626953125,0.005218505859375,0.1321868896484375
1.1587066650390625,0.0081939697265625,0.154083251953125
1.0658721923828125,0.0238189697265625,0.167266845703125
0.950836181640625,0.04290771484375,0.1755828857421875
0.810272216796875,0.0681915283203125,0.1644287109375
0.7025604248046875,0.0893707275390625,0.114105224609375
0.7215576171875,0.106109619140625,0.0381927490234375
0.841796875,0.082733154296875,0.027862548828125
1.05035400390625,0.0225830078125,0.1283721923828125
1.1732635498046875,-0.0076446533203125,0.0350494384765625
0.966522216796875,0.044830322265625,-0.24481201171875
1.0075836181640625,0.0403594970703125,-0.2972259521484375
1.3371734619140625,0.0675506591796875,-0.299468994140625
1.3355255126953125,0.0988616943359375,-0.2529144287109375
1.1876678466796875,0.0325927734375,-0.1765594482421875
1.04241943359375,0.0318756103515625,-0.2171478271484375
0.9739990234375,-0.0222320556640625,-0.1640472412109375
1.0504913330078125,-0.06329345703125,-0.151519775390625
1.1015777587890625,-0.0402679443359375,-0.2192230224609375
1.0764007568359375,0.0123748779296875,-0.3061981201171875
0.99554443359375,0.0616455078125,-0.3288116455078125
0.922821044921875,0.070587158203125,-0.331146240234375
0.908660888671875,0.0524139404296875,-0.290771484375
1.0420989990234375,0.0469818115234375,-0.2825927734375
1.220428466796875,0.079345703125,-0.2910614013671875
1.294830322265625,0.107635498046875,-0.207611083984375
1.49853515625,0.1244049072265625,-0.2700042724609375
1.380889892578125,0.1573944091796875,-0.218994140625
1.143646240234375,0.1348724365234375,-0.11785888671875
1.278656005859375,0.098724365234375,-0.0777587890625
1.421478271484375,0.049072265625,0.002166748046875
1.4613037109375,0.0227813720703125,0.0609283447265625
1.3494110107421875,0.0196075439453125,0.021331787109375
1.1390380859375,0.022735595703125,0.01739501953125
0.9844970703125,0.0243377685546875,0.0229644775390625
0.83111572265625,0.028076171875,0.005157470703125
0.723114013671875,0.028350830078125,-0.00531005859375
0.631927490234375,0.01177978515625,-0.0420074462890625
0.547119140625,0.0263824462890625,-0.08416748046875
0.4803314208984375,0.0447845458984375,-0.141021728515625
0.450592041015625,0.0358734130859375,-0.1106719970703125
0.576446533203125,-0.0202178955078125,-0.0420379638671875
0.794677734375,-0.053924560546875,0.0280303955078125
1.2021331787109375,-0.0284423828125,0.08154296875
1.795440673828125,0.0406646728515625,0.051116943359375
2.24688720703125,0.1341094970703125,-0.1160430908203125
2.009033203125,0.2849578857421875,-0.2650909423828125
1.560089111328125,0.565704345703125,-0.489288330078125
1.1609039306640625,0.070159912109375,-0.2547760009765625
1.005157470703125,-0.1779327392578125,0.0265655517578125
0.833770751953125,-0.1317291259765625,0.056732177734375
0.7000579833984375,-0.0916900634765625,-0.06109619140625
0.6748046875,-0.010986328125,-0.1402740478515625
0.68060302734375,0.1311492919921875,-0.066436767578125
0.88623046875,0.2221527099609375,-0.01910400390625
1.097686767578125,0.2625885009765625,0.0379791259765625
1.02447509765625,0.3107147216796875,0.0445098876953125
0.8536834716796875,0.36016845703125,-0.19073486328125
1.0971527099609375,0.41888427734375,-0.445281982421875
1.392364501953125,0.349456787109375,-0.2278289794921875
1.75250244140625,0.09820556640625,-0.1503753662109375
1.4388885498046875,-0.0971832275390625,-0.14337158203125
1.0097198486328125,-0.094970703125,-0.1632843017578125
1.233642578125,-0.0775146484375,-0.1757049560546875
1.56256103515625,-0.043548583984375,-0.0778961181640625
1.374481201171875,-0.1045989990234375,0.05169677734375
1.163116455078125,-0.141845703125,0.02093505859375
1.0197296142578125,-0.0692291259765625,-0.00518798828125
0.95556640625,0.032470703125,0.0104522705078125
0.9056549072265624,0.053955078125,0.041534423828125
0.8251953125,0.033599853515625,0.0444793701171875
0.744598388671875,0.00616455078125,0.0589141845703125
0.656768798828125,-0.0031585693359375,0.084686279296875
0.7238311767578125,0.0128326416015625,0.1124114990234375
0.829315185546875,0.0041961669921875,0.140655517578125
1.0488433837890625,0.0185699462890625,0.155517578125
1.367095947265625,0.0265655517578125,0.2396392822265625
1.6710205078125,0.11102294921875,0.1608428955078125
1.415008544921875,0.266876220703125,-0.199310302734375
1.2645416259765625,0.2988739013671875,-0.31683349609375
1.2351837158203125,0.2111053466796875,-0.0830841064453125
1.255828857421875,0.0579986572265625,0.0773468017578125
1.302032470703125,-0.0937042236328125,0.0130462646484375
1.026031494140625,-0.1371002197265625,-0.0865631103515625
0.83551025390625,-0.0683746337890625,-0.0950927734375
0.7568359375,0.040618896484375,-0.1516265869140625
0.73870849609375,0.1679229736328125,-0.222900390625
0.951751708984375,0.291046142578125,-0.2072601318359375
1.8230133056640625,0.50225830078125,-0.687042236328125
1.5976409912109375,0.7322540283203125,-0.3769378662109375
1.184814453125,0.2723846435546875,-0.209197998046875
1.3002471923828125,-0.11566162109375,-4.57763671875e-05
1.427001953125,-0.266876220703125,0.1405029296875
1.4875640869140625,-0.2269744873046875,0.0360565185546875
1.1382598876953125,-0.219451904296875,-0.050201416015625
0.8674468994140625,-0.097015380859375,-0.1439361572265625
0.7462615966796875,0.00262451171875,-0.0652618408203125
0.646331787109375,0.0639801025390625,-0.2262725830078125
0.6009063720703125,0.1092071533203125,-0.503662109375
0.646270751953125,0.134674072265625,-0.3973541259765625
1.3319091796875,-0.0809478759765625,-0.0706329345703125
3.065948486328125,-0.7923431396484375,-0.0887298583984375
2.65765380859375,-0.9582672119140624,0.221038818359375
1.5330657958984375,-0.9896087646484376,0.3387603759765625
1.2301788330078125,-1.233642578125,0.203277587890625
0.916015625,0.079986572265625,0.136138916015625
0.947296142578125,0.3640899658203125,0.2508392333984375
0.2490997314453125,0.620391845703125,0.8514556884765625
2.333480834960937,2.76116943359375,-1.03143310546875
-0.0142974853515625,2.769073486328125,-0.0859222412109375
1.1737060546875,0.84503173828125,0.1361846923828125
0.9802398681640624,1.8706512451171875,-0.573028564453125
-0.48455810546875,-1.7503509521484375,-0.2794342041015625
1.981353759765625,0.850555419921875,0.4848175048828125
0.6249847412109375,3.5321044921875,-0.7694091796875
0.54241943359375,-0.217620849609375,-0.5988922119140625
0.567108154296875,0.42791748046875,4.04559326171875
-2.435791015625,1.025360107421875,-0.69891357421875
0.681488037109375,-0.7827606201171875,-0.706085205078125
-0.57879638671875,0.3237762451171875,-0.7380523681640625
0.446136474609375,0.7868194580078125,-0.9539794921875
0.2124481201171875,0.2635345458984375,-0.957275390625
0.010009765625,0.35540771484375,-0.8787689208984375
0.150390625,0.3443450927734375,-0.9386138916015624
0.0910491943359375,0.332275390625,-0.92974853515625
0.19775390625,0.3999176025390625,-0.9159698486328124
0.1095733642578125,0.330322265625,-0.9661712646484376
0.13470458984375,0.3525390625,-0.97503662109375
0.039459228515625,0.342620849609375,-0.9791412353515624
0.1453857421875,0.2354583740234375,-0.95684814453125
0.106231689453125,0.263763427734375,-0.94378662109375
0.0926971435546875,0.152618408203125,-0.97662353515625
0.13336181640625,0.15765380859375,-0.9534454345703124
0.0339508056640625,0.2087860107421875,-1.038299560546875
0.047821044921875,0.1779327392578125,-0.99859619140625
0.0552978515625,-0.010040283203125,-1.02099609375
0.09405517578125,0.15496826171875,-0.9819183349609376
0.0406341552734375,0.1569061279296875,-1.022308349609375
0.0690765380859375,0.0818634033203125,-1.0219879150390625
0.07635498046875,0.08233642578125,-1.0025634765625
0.05828857421875,0.0863037109375,-1.004302978515625
0.0301513671875,-0.035919189453125,-0.9939117431640624
0.0567626953125,0.036529541015625,-0.954193115234375
0.08221435546875,0.1468505859375,-1.04156494140625
0.0190887451171875,0.0094757080078125,-0.9999847412109376
0.0789337158203125,-0.0127410888671875,-1.0142974853515625
0.0611724853515625,0.0898895263671875,-1.006683349609375
0.039642333984375,0.033203125,-1.047027587890625
0.017425537109375,-0.057403564453125,-1.0081024169921875
