AccelerationX,AccelerationY,AccelerationZ
-0.0465240478515625,0.11505126953125,-1.0009765625
-0.039825439453125,0.1788330078125,-1.0684814453125
-0.01397705078125,0.2132110595703125,-0.934356689453125
-0.1129608154296875,0.2276153564453125,-1.0068206787109375
-0.073333740234375,0.198272705078125,-0.9909515380859376
-0.0686492919921875,0.2384185791015625,-0.978240966796875
-0.079681396484375,0.2203216552734375,-0.9927215576171876
-0.0702056884765625,0.2179412841796875,-0.980224609375
-0.070068359375,0.213775634765625,-1.0005035400390625
-0.0793609619140625,0.2044219970703125,-1.0037841796875
-0.0579986572265625,0.248687744140625,-0.9835662841796876
-0.0732421875,0.2079925537109375,-0.9972991943359376
-0.066314697265625,0.2243499755859375,-0.9943695068359376
-0.0709991455078125,0.2060699462890625,-0.98260498046875
-0.08245849609375,0.209197998046875,-1.00262451171875
-0.0801849365234375,0.21807861328125,-0.9971923828125
-0.067626953125,0.2175140380859375,-0.9817962646484376
-0.0720062255859375,0.218994140625,-0.990478515625
-0.0517730712890625,0.2699127197265625,-0.97052001953125
-0.07012939453125,0.2037353515625,-0.9820404052734376
-0.063323974609375,0.25689697265625,-0.9848785400390624
-0.0575714111328125,0.244171142578125,-0.99359130859375
-0.0764923095703125,0.219268798828125,-0.99560546875
-0.0641021728515625,0.242156982421875,-0.9770660400390624
-0.07470703125,0.224761962890625,-0.990203857421875
-0.0773162841796875,0.2282257080078125,-0.9937286376953124
-0.0705108642578125,0.2278900146484375,-0.9871978759765624
-0.060943603515625,0.2523956298828125,-0.9847412109375
-0.0614013671875,0.2305755615234375,-0.989501953125
-0.06207275390625,0.2217864990234375,-0.9856414794921876
-0.0654296875,0.233856201171875,-0.9854583740234376
-0.065338134765625,0.2412872314453125,-0.9766693115234376
-0.0743865966796875,0.2276763916015625,-0.9871673583984376
-0.0669097900390625,0.245849609375,-1.00872802734375
-0.040557861328125,0.1812896728515625,-0.9869842529296876
-0.0374298095703125,0.2839202880859375,-1.003082275390625
-0.0416107177734375,0.3337860107421875,-0.9889373779296876
0.123077392578125,0.27490234375,-0.9230499267578124
0.1368865966796875,0.1191864013671875,-0.95001220703125
-0.144989013671875,0.365753173828125,-0.9398040771484376
-0.1947174072265625,0.1006927490234375,-1.0063934326171875
-0.0157928466796875,0.357330322265625,-0.99163818359375
-0.050537109375,0.2566375732421875,-0.9678192138671876
-0.109161376953125,0.1964874267578125,-0.9839935302734376
-0.088226318359375,0.211273193359375,-1.0210113525390625
-0.06146240234375,0.2059326171875,-0.9746856689453124
-0.0575714111328125,0.206787109375,-0.987701416015625
-0.0695648193359375,0.1657257080078125,-0.984222412109375
-0.0758056640625,0.20843505859375,-0.99285888671875
-0.065826416015625,0.0936431884765625,-1.0128021240234375
-0.015716552734375,0.07818603515625,-1.10797119140625
0.1310882568359375,0.4183197021484375,-0.9007110595703125
0.1695556640625,0.2204132080078125,-1.049163818359375
-0.252716064453125,0.5431060791015625,-0.3554840087890625
-0.1260223388671875,0.01019287109375,-1.75054931640625
-0.1619415283203125,0.0266876220703125,-0.96417236328125
-0.0551300048828125,0.0170440673828125,-0.4427947998046875
0.005096435546875,-0.727874755859375,-1.1136627197265625
-0.7865142822265625,0.3774566650390625,-1.7451019287109375
-0.25518798828125,0.04974365234375,-1.1656036376953125
-0.309967041015625,-0.0498809814453125,-0.984893798828125
-0.3431396484375,0.0175323486328125,-0.99554443359375
-0.3612213134765625,-0.0223236083984375,-0.7815704345703125
-0.2623443603515625,-0.001678466796875,-0.96844482421875
-0.2740020751953125,-0.012847900390625,-0.9196624755859376
-0.266998291015625,0.052520751953125,-1.1051177978515625
-0.265625,-0.015960693359375,-0.954681396484375
-0.2816925048828125,0.0082550048828125,-0.96441650390625
-0.2889404296875,0.0101470947265625,-0.935791015625
-0.27728271484375,-0.1115570068359375,-0.9619140625
-0.382965087890625,0.0753936767578125,-0.9839935302734376
-0.2873382568359375,0.0879974365234375,-0.8995208740234375
-0.2676544189453125,-0.01220703125,-0.8202667236328125
-0.2869720458984375,0.0949554443359375,-1.1540374755859375
-0.4418792724609375,0.250640869140625,-1.1754608154296875
-0.3177032470703125,0.0642852783203125,-0.9292755126953124
-0.284881591796875,0.02703857421875,-0.9809722900390624
-0.2392120361328125,0.0248870849609375,-0.9437103271484376
-0.3129730224609375,0.042022705078125,-0.975372314453125
-0.2376251220703125,0.0574188232421875,-0.9552459716796876
-0.2948760986328125,0.03765869140625,-0.9481201171875
-0.313018798828125,0.057891845703125,-0.9647064208984376
-0.304595947265625,0.059051513671875,-0.945953369140625
-0.3098602294921875,0.054168701171875,-0.9444580078125
-0.3152618408203125,0.03564453125,-0.9681854248046876
-0.30419921875,0.047393798828125,-0.966522216796875
-0.3115386962890625,0.0460662841796875,-0.9542999267578124
-0.3119964599609375,0.0632781982421875,-0.9898834228515624
-0.3071441650390625,0.0360107421875,-0.943939208984375
-0.326019287109375,0.046905517578125,-0.976226806640625
-0.303070068359375,0.048553466796875,-0.972808837890625
-0.29315185546875,0.056365966796875,-0.9532470703125
-0.3131866455078125,0.017669677734375,-0.954681396484375
-0.291412353515625,0.0634002685546875,-0.9989471435546876
-0.314544677734375,0.044219970703125,-0.9561309814453124
-0.307281494140625,0.0340576171875,-0.964202880859375
-0.2900390625,0.0373687744140625,-0.9687347412109376
-0.3011474609375,0.044921875,-0.9716949462890624
-0.3063507080078125,0.0437774658203125,-0.9701690673828124
-0.300628662109375,0.0406494140625,-0.9732666015625
-0.2900390625,0.0277862548828125,-0.962890625
-0.3276519775390625,0.06884765625,-0.9618988037109376
-0.3004150390625,0.051025390625,-0.9752960205078124
-0.3098602294921875,0.043975830078125,-0.961883544921875
-0.3091278076171875,0.036102294921875,-0.9630126953125
-0.305389404296875,0.04571533203125,-0.9684600830078124
-0.2916412353515625,0.0552520751953125,-0.9719696044921876
-0.2820892333984375,0.0432281494140625,-0.971435546875
-0.2883758544921875,0.0413665771484375,-0.976104736328125
-0.2900390625,0.0554351806640625,-0.9751434326171876
-0.2947235107421875,0.0603790283203125,-0.9738616943359376
-0.303985595703125,0.0442657470703125,-0.963623046875
-0.2958526611328125,0.0462493896484375,-0.9697265625
-0.29052734375,0.05364990234375,-0.974395751953125
-0.29632568359375,0.0462799072265625,-0.971099853515625
-0.3025970458984375,0.035552978515625,-0.9572601318359376
-0.289703369140625,0.046051025390625,-0.97216796875
-0.297698974609375,0.0409393310546875,-0.9700469970703124
-0.3032073974609375,0.041046142578125,-0.9615478515625
-0.2954559326171875,0.0419769287109375,-0.9723663330078124
-0.302825927734375,0.040985107421875,-0.9634857177734376
-0.2953643798828125,0.049835205078125,-0.9744110107421876
-0.2921295166015625,0.043914794921875,-0.9696197509765624
-0.292755126953125,0.0435638427734375,-0.973175048828125
-0.295654296875,0.03887939453125,-0.967742919921875
-0.2898406982421875,0.0323638916015625,-0.979278564453125
-0.2840423583984375,0.0629730224609375,-0.98626708984375
-0.296295166015625,0.0451202392578125,-0.969940185546875
-0.29644775390625,0.0443878173828125,-0.97003173828125
-0.300445556640625,0.034210205078125,-0.9664459228515624
-0.2967987060546875,0.044586181640625,-0.9594573974609376
-0.2905731201171875,0.04925537109375,-0.9776763916015624
-0.2985382080078125,0.0467681884765625,-0.9700775146484376
-0.286834716796875,0.03509521484375,-0.97320556640625
-0.29803466796875,0.0547637939453125,-0.9778900146484376
-0.2905426025390625,0.0523529052734375,-0.9822998046875
-0.2827911376953125,0.04638671875,-0.982421875
-0.2898406982421875,0.0359344482421875,-0.9705963134765624
-0.3011474609375,0.045074462890625,-0.971160888671875
-0.3111724853515625,0.0345916748046875,-0.94696044921875
-0.278350830078125,0.036102294921875,-0.98248291015625
-0.2941436767578125,0.0390167236328125,-0.9793853759765624
-0.30035400390625,0.0336761474609375,-0.9622955322265624
-0.2964324951171875,0.0409698486328125,-0.974029541015625
-0.2985687255859375,0.0360260009765625,-0.9614105224609376
-0.289031982421875,0.0404815673828125,-0.9757843017578124
-0.295196533203125,0.032501220703125,-0.97607421875
-0.2951812744140625,0.035064697265625,-0.9646148681640624
-0.2949371337890625,0.042572021484375,-0.975006103515625
-0.284210205078125,0.0448455810546875,-0.9736480712890624
-0.290740966796875,0.046905517578125,-0.975128173828125
-0.291351318359375,0.0509490966796875,-0.97247314453125
-0.2770233154296875,0.019561767578125,-0.9605255126953124
-0.2896575927734375,0.03900146484375,-0.9617462158203124
-0.2939910888671875,0.037445068359375,-0.968536376953125
-0.3000640869140625,0.041748046875,-0.966827392578125
-0.302642822265625,0.04437255859375,-0.9593353271484376
-0.3132781982421875,0.0439605712890625,-0.983734130859375
-0.364044189453125,-0.061614990234375,-0.9654083251953124
-0.23541259765625,-0.017486572265625,-0.95361328125
-0.096710205078125,0.1094970703125,-1.0225372314453125
-0.2322845458984375,0.0815277099609375,-0.951141357421875
-0.3162994384765625,0.042388916015625,-0.980010986328125
-0.313385009765625,0.1495361328125,-0.9625091552734376
-0.3568572998046875,0.1819000244140625,-0.9682159423828124
-0.309417724609375,0.0495758056640625,-0.911651611328125
-0.2978515625,0.052490234375,-0.954498291015625
-0.2961578369140625,0.0686492919921875,-0.9404754638671876
-0.3016357421875,-0.0181732177734375,-0.957977294921875
-0.271453857421875,0.03887939453125,-0.966400146484375
-0.2458343505859375,0.0595550537109375,-0.9929046630859376
-0.28375244140625,0.035919189453125,-0.9769134521484376
-0.2934112548828125,0.064361572265625,-0.9726104736328124
-0.287872314453125,0.0576171875,-0.9734954833984376
-0.2773284912109375,0.0539398193359375,-0.98272705078125
-0.280731201171875,0.05499267578125,-0.980377197265625
-0.283905029296875,0.049102783203125,-0.96112060546875
-0.2835845947265625,0.057220458984375,-0.9730224609375
-0.3051300048828125,0.0446929931640625,-0.9606475830078124
-0.292572021484375,0.06103515625,-0.9780731201171876
-0.293060302734375,0.046661376953125,-0.9749908447265624
-0.22528076171875,0.044921875,-0.9877471923828124
-0.281463623046875,0.05096435546875,-0.9876251220703124
-0.2865142822265625,0.05023193359375,-0.963592529296875
-0.312652587890625,0.058502197265625,-0.9754486083984376
-0.3065948486328125,0.0491485595703125,-0.9654388427734376
-0.2756500244140625,0.054931640625,-0.9765167236328124
-0.27191162109375,0.05487060546875,-0.9662933349609376
-0.30548095703125,0.0394287109375,-0.9680328369140624
-0.314666748046875,0.0965576171875,-0.9658966064453124
-0.2633819580078125,0.05609130859375,-0.9740142822265624
-0.2204132080078125,-0.02032470703125,-0.992645263671875
-0.230804443359375,0.046844482421875,-0.986907958984375
-0.2740631103515625,0.0548248291015625,-0.9850921630859376
-0.2607879638671875,0.04156494140625,-0.9688568115234376
-0.2587432861328125,0.0303955078125,-0.984283447265625
-0.2607879638671875,0.06231689453125,-0.9881744384765624
-0.3042449951171875,0.04132080078125,-0.987823486328125
-0.266448974609375,0.045745849609375,-0.9661865234375
-0.2820892333984375,0.055023193359375,-1.01220703125
-0.27825927734375,0.0551300048828125,-0.99969482421875
-0.38006591796875,0.0769195556640625,-0.918365478515625
-0.357666015625,0.0653228759765625,-0.9450836181640624
-0.3469390869140625,0.0594024658203125,-0.9544830322265624
-0.3585662841796875,0.079864501953125,-0.93719482421875
-0.3829803466796875,0.0738372802734375,-0.8573455810546875
-0.3316650390625,0.0601806640625,-1.007415771484375
-0.313751220703125,0.059661865234375,-0.9800262451171876
-0.329742431640625,0.0790252685546875,-0.977294921875
-0.3402252197265625,0.0718994140625,-0.9427490234375
-0.2999420166015625,0.084136962890625,-0.988983154296875
-0.3328857421875,0.03936767578125,-0.952911376953125
-0.3695220947265625,0.072296142578125,-0.9045257568359376
-0.3444061279296875,0.05938720703125,-0.9389190673828124
-0.328338623046875,0.065521240234375,-0.9648895263671876
-0.3214569091796875,0.0574188232421875,-0.9748382568359376
-0.3391876220703125,0.0794219970703125,-0.8924713134765625
-0.309906005859375,0.06378173828125,-0.9995574951171876
-0.3184967041015625,0.07354736328125,-1.0086822509765625
-0.3011474609375,0.0001373291015625,-0.959259033203125
-0.2964630126953125,0.0537567138671875,-0.9610595703125
-0.299591064453125,0.0482940673828125,-0.9633331298828124
-0.2666015625,0.0450439453125,-0.9886932373046876
-0.2810821533203125,0.0382080078125,-0.9683380126953124
-0.3033599853515625,0.0487060546875,-0.975372314453125
-0.3039703369140625,0.046783447265625,-0.94580078125
-0.29473876953125,0.0401458740234375,-0.98388671875
-0.3222198486328125,0.0797271728515625,-0.9538421630859376
-0.283599853515625,0.0187835693359375,-0.9821319580078124
-0.3154449462890625,0.08349609375,-0.953887939453125
-0.3181304931640625,0.031982421875,-0.974090576171875
-0.2973175048828125,0.026519775390625,-0.974884033203125
-0.3849639892578125,0.17523193359375,-0.9344024658203124
-0.3318634033203125,0.03216552734375,-0.9295501708984376
-0.3536376953125,0.04425048828125,-0.941925048828125
-0.300262451171875,0.0646209716796875,-0.980987548828125
-0.268829345703125,0.045013427734375,-0.9774932861328124
-0.2371826171875,0.0560302734375,-1.00128173828125
-0.2848052978515625,0.0452880859375,-0.98614501953125
-0.3483428955078125,0.0983428955078125,-0.930389404296875
-0.291412353515625,0.1161651611328125,-0.9886474609375
-0.2143707275390625,0.07769775390625,-1.0711212158203125
-0.23944091796875,0.1821746826171875,-1.5060882568359375
-0.5679779052734375,0.4125823974609375,-1.21783447265625
-0.349029541015625,0.4786224365234375,-1.0319366455078125
-0.426727294921875,0.49737548828125,-0.880340576171875
-0.4474945068359375,0.3439178466796875,-0.773956298828125
-0.4250335693359375,0.23406982421875,-0.7406768798828125
-0.48028564453125,0.1216278076171875,-0.731109619140625
-0.578216552734375,-0.040924072265625,-0.6707763671875
-0.6566162109375,-0.0670623779296875,-0.749481201171875
-0.5126190185546875,-0.0182037353515625,-0.7516326904296875
-0.3249359130859375,0.0818939208984375,-0.8366546630859375
-0.285858154296875,0.189849853515625,-0.8299560546875
-0.2584381103515625,0.3206787109375,-0.7215118408203125
-0.1969451904296875,0.3580474853515625,-0.58538818359375
-0.17987060546875,0.3378753662109375,-0.592041015625
-0.1168365478515625,0.293060302734375,-0.64691162109375
-0.2062225341796875,0.1753082275390625,-1.1361083984375
-0.179931640625,0.2949676513671875,-1.16180419921875
-0.21942138671875,0.2910919189453125,-1.31597900390625
-0.222442626953125,0.36114501953125,-1.2505950927734375
-0.21563720703125,0.2992401123046875,-1.18560791015625
-0.219268798828125,0.3871612548828125,-1.041473388671875
-0.22979736328125,0.3596038818359375,-1.107421875
-0.240875244140625,0.423858642578125,-1.1625823974609375
-0.2552032470703125,0.394744873046875,-1.16033935546875
-0.238677978515625,0.3596954345703125,-1.035858154296875
-0.6271209716796875,0.118896484375,-0.995147705078125
-0.60888671875,0.0415496826171875,-1.213348388671875
-0.3836212158203125,-0.039459228515625,-1.2045745849609375
-0.291595458984375,0.18011474609375,-1.2439117431640625
-0.2087554931640625,0.116851806640625,-1.2074432373046875
-0.1298828125,0.0107879638671875,-1.0334625244140625
-0.0964202880859375,-0.0702972412109375,-0.9079132080078124
-0.0752410888671875,-0.097259521484375,-0.9258270263671876
-0.1030120849609375,-0.0196533203125,-1.07012939453125
-0.1231231689453125,0.089569091796875,-1.043548583984375
-0.1479644775390625,0.133056640625,-0.854705810546875
-0.143798828125,0.2061309814453125,-0.8709564208984375
-0.17938232421875,0.2751007080078125,-1.008758544921875
-0.197723388671875,0.30645751953125,-1.1294708251953125
-0.21734619140625,0.385406494140625,-1.0506134033203125
-0.3105621337890625,0.4830169677734375,-1.1186065673828125
-0.7665863037109375,0.6207733154296875,-1.0608367919921875
-0.9033050537109376,0.6590423583984375,-0.859344482421875
-0.5990142822265625,0.679290771484375,-1.111572265625
-0.45281982421875,0.6683807373046875,-1.1376495361328125
-0.337127685546875,0.5875396728515625,-1.0447540283203125
-0.2933502197265625,0.4831085205078125,-0.8949432373046875
-0.268890380859375,0.44219970703125,-0.85308837890625
-0.2271881103515625,0.4164276123046875,-0.5921630859375
-0.2480316162109375,0.4178009033203125,-0.5009002685546875
-0.204559326171875,0.2838897705078125,-0.208709716796875
-0.1830291748046875,0.188079833984375,-0.15155029296875
-0.2406158447265625,0.2031707763671875,-0.3671875
-0.2976531982421875,0.1934661865234375,-0.526092529296875
-0.3096466064453125,0.180694580078125,-0.5782928466796875
-0.199432373046875,0.225494384765625,-0.7206878662109375
-0.1781158447265625,0.225372314453125,-0.932464599609375
-0.2863616943359375,0.38592529296875,-1.363616943359375
-0.3488616943359375,0.359954833984375,-1.5375213623046875
-0.101348876953125,0.3966827392578125,-1.5608673095703125
0.077423095703125,0.4016265869140625,-1.068756103515625
0.0970001220703125,0.4087677001953125,-1.19427490234375
0.0518035888671875,0.438995361328125,-1.26312255859375
0.087493896484375,0.3995361328125,-0.9849395751953124
0.0001373291015625,0.4293365478515625,-1.1206512451171875
-0.04815673828125,0.4393768310546875,-1.10858154296875
-0.0688629150390625,0.437286376953125,-1.03839111328125
-0.1211700439453125,0.4943695068359375,-1.1675567626953125
-0.1810150146484375,0.5519561767578125,-1.220184326171875
-0.28741455078125,0.6293487548828125,-1.390594482421875
-0.378387451171875,0.728759765625,-1.553497314453125
-0.4204254150390625,0.710723876953125,-1.5227813720703125
-0.410430908203125,0.6880340576171875,-1.1668701171875
-0.476531982421875,0.5295257568359375,-1.001617431640625
-0.5197601318359375,0.2835845947265625,-1.04461669921875
-0.3667144775390625,0.3325042724609375,-1.322235107421875
-0.2835235595703125,0.1973876953125,-1.573089599609375
-0.153106689453125,0.2675018310546875,-1.8766937255859373
-0.0445404052734375,0.236175537109375,-1.6810150146484375
0.0886077880859375,0.1073760986328125,-1.3332061767578125
0.09417724609375,0.0474395751953125,-1.0255584716796875
0.0471038818359375,0.0399627685546875,-0.7506103515625
0.018463134765625,0.050384521484375,-0.6331329345703125
0.00457763671875,0.0442962646484375,-0.6403656005859375
0.016204833984375,0.032257080078125,-0.81134033203125
0.0011138916015625,0.042236328125,-1.0163116455078125
0.040802001953125,0.04736328125,-1.2789459228515625
-0.02728271484375,0.080352783203125,-1.6227264404296875
-0.0241851806640625,0.1526947021484375,-1.567779541015625
-0.0245513916015625,0.2210540771484375,-1.4510955810546875
-0.034423828125,0.2681427001953125,-1.387969970703125
-0.0333404541015625,0.29681396484375,-1.4532012939453125
-0.0047454833984375,0.33038330078125,-1.6280364990234375
-0.031036376953125,0.421173095703125,-1.8129730224609373
-0.0329132080078125,0.4947967529296875,-1.653778076171875
-0.0639495849609375,0.52093505859375,-1.5047607421875
-0.1075592041015625,0.5316925048828125,-1.3489837646484375
-0.134796142578125,0.5061798095703125,-1.1688995361328125
-0.18780517578125,0.469940185546875,-1.1317138671875
-0.196746826171875,0.4325714111328125,-1.152313232421875
-0.2058868408203125,0.3832550048828125,-1.2230987548828125
-0.226593017578125,0.3634490966796875,-1.30364990234375
-0.189361572265625,0.3085784912109375,-1.1924591064453125
-0.197418212890625,0.3096466064453125,-0.9946136474609376
-0.2548980712890625,0.3705596923828125,-0.9764404296875
-0.28594970703125,0.4033355712890625,-1.015045166015625
-0.2938385009765625,0.3946533203125,-1.188629150390625
-0.281524658203125,0.3779754638671875,-1.4349212646484375
-0.2716064453125,0.3317413330078125,-1.68609619140625
-0.26324462890625,0.191619873046875,-1.88104248046875
-0.230316162109375,0.2738189697265625,-2.0009002685546875
-0.12109375,0.24737548828125,-1.7203826904296875
-0.082977294921875,0.231201171875,-1.400787353515625
-0.0570526123046875,0.1925506591796875,-1.0518951416015625
-0.063690185546875,0.139190673828125,-0.801116943359375
-0.068511962890625,0.11932373046875,-0.75506591796875
-0.0584564208984375,0.0939483642578125,-0.730621337890625
-0.070587158203125,0.052947998046875,-0.91302490234375
-0.0773468017578125,0.00677490234375,-1.1818084716796875
-0.067352294921875,-0.0062255859375,-1.1051025390625
-0.051727294921875,0.03070068359375,-1.134124755859375
-0.067474365234375,0.10931396484375,-1.2968597412109375
-0.02777099609375,0.1669464111328125,-1.2541046142578125
-0.0175933837890625,0.2149810791015625,-1.2256317138671875
-0.0398101806640625,0.25146484375,-1.2402801513671875
-0.070068359375,0.26824951171875,-1.310272216796875
-0.12890625,0.2699432373046875,-1.450531005859375
-0.1374359130859375,0.3083038330078125,-1.7291717529296875
-0.2364349365234375,0.3494720458984375,-2.0366363525390625
-0.1938018798828125,0.3756866455078125,-2.1097412109375
-0.218292236328125,0.3910369873046875,-2.1250762939453125
-0.200225830078125,0.3741455078125,-1.838348388671875
-0.2836456298828125,0.3972015380859375,-1.768402099609375
-0.28515625,0.3762969970703125,-1.5493927001953125
-0.250885009765625,0.33056640625,-1.23333740234375
-0.204132080078125,0.303497314453125,-0.8070068359375
-0.2076873779296875,0.2666168212890625,-0.494293212890625
-0.2195587158203125,0.2397918701171875,-0.3875732421875
-0.2041778564453125,0.2281494140625,-0.4211883544921875
-0.1839752197265625,0.2038421630859375,-0.538818359375
-0.172943115234375,0.1897125244140625,-0.6763763427734375
-0.2018585205078125,0.2090911865234375,-0.9245147705078124
-0.224761962890625,0.2006988525390625,-1.1215057373046875
-0.2528839111328125,0.2014007568359375,-1.3539276123046875
-0.2727203369140625,0.222442626953125,-1.559173583984375
-0.2512054443359375,0.2244873046875,-1.7053680419921875
-0.2624359130859375,0.239410400390625,-1.8851470947265625
-0.258331298828125,0.238494873046875,-1.9994659423828125
-0.33038330078125,0.2627105712890625,-2.2745361328125
-0.2924957275390625,0.2444305419921875,-2.042572021484375
-0.2843780517578125,0.2170867919921875,-1.7697601318359375
-0.2596435546875,0.215240478515625,-1.4677886962890625
-0.2837066650390625,0.1930084228515625,-1.2426300048828125
-0.246490478515625,0.1413116455078125,-0.9601287841796876
-0.184234619140625,0.08380126953125,-0.6421661376953125
-0.163238525390625,0.058013916015625,-0.5356903076171875
-0.1362457275390625,0.0357666015625,-0.4400482177734375
-0.121826171875,0.0139312744140625,-0.3890838623046875
-0.1073760986328125,-0.0074310302734375,-0.3978271484375
-0.0992889404296875,-0.0238494873046875,-0.483428955078125
-0.0789337158203125,-0.0374603271484375,-0.6381988525390625
-0.0232696533203125,-0.062255859375,-0.832489013671875
0.045318603515625,-0.0312347412109375,-1.034210205078125
0.0690155029296875,0.03411865234375,-1.4001312255859375
0.0926513671875,0.155426025390625,-1.951080322265625
0.0811614990234375,0.3480987548828125,-2.721435546875
-0.0791015625,0.5995635986328125,-3.3426666259765625
-0.207305908203125,0.7083740234375,-2.8548736572265625
-0.1753692626953125,0.5164947509765625,-1.8457489013671875
-0.1195068359375,0.3354034423828125,-1.344085693359375
-0.11376953125,0.2325592041015625,-1.342681884765625
-0.10662841796875,0.182098388671875,-1.381256103515625
-0.121337890625,0.1512908935546875,-1.3109130859375
-0.1039581298828125,0.1427459716796875,-1.0936279296875
-0.1087493896484375,0.1717987060546875,-0.9348907470703124
-0.1436004638671875,0.19866943359375,-0.8296356201171875
-0.1931915283203125,0.211517333984375,-0.8951263427734375
-0.2709503173828125,0.2398223876953125,-1.0883941650390625
-0.3022613525390625,0.2811431884765625,-1.0680999755859375
-0.30889892578125,0.2942962646484375,-1.0307769775390625
-0.2919769287109375,0.2769622802734375,-1.0076446533203125
-0.319427490234375,0.2854156494140625,-1.073272705078125
-0.369781494140625,0.30987548828125,-1.1808929443359375
-0.4142913818359375,0.3404998779296875,-1.347930908203125
-0.458831787109375,0.335357666015625,-1.6625213623046875
-0.5161285400390625,0.3074493408203125,-2.0025177001953125
-0.473175048828125,0.2310333251953125,-2.1301422119140625
-0.429046630859375,0.166656494140625,-2.0111236572265625
-0.3263702392578125,0.093414306640625,-1.638885498046875
-0.2868499755859375,0.059417724609375,-1.317352294921875
-0.2360992431640625,0.0576171875,-1.0449676513671875
-0.2027587890625,0.0654144287109375,-0.8740234375
-0.1988525390625,0.0692291259765625,-0.79034423828125
-0.212249755859375,0.056793212890625,-0.78607177734375
-0.21978759765625,0.04278564453125,-0.87896728515625
-0.236907958984375,0.0390167236328125,-1.009674072265625
-0.2347412109375,0.045196533203125,-1.162811279296875
-0.169158935546875,0.0287933349609375,-1.20257568359375
-0.0956268310546875,0.044952392578125,-1.2713470458984375
-0.1456756591796875,0.1346588134765625,-1.646026611328125
-0.2024688720703125,0.274200439453125,-1.9945831298828125
-0.1640167236328125,0.3312835693359375,-1.9345703125
-0.0511474609375,0.2840423583984375,-1.5216827392578125
0.0085296630859375,0.20068359375,-1.2443084716796875
-0.094146728515625,0.212005615234375,-1.4237213134765625
-0.1309967041015625,0.2272796630859375,-1.3817291259765625
-0.1838226318359375,0.2155914306640625,-1.376373291015625
-0.2176513671875,0.2176666259765625,-1.30877685546875
-0.2293701171875,0.2388916015625,-1.1898040771484375
-0.269927978515625,0.2588043212890625,-1.2200164794921875
-0.30548095703125,0.263336181640625,-1.2953948974609375
-0.3114471435546875,0.2475738525390625,-1.2713775634765625
-0.29144287109375,0.224578857421875,-1.2624969482421875
-0.2288055419921875,0.2195587158203125,-1.086883544921875
-0.2260284423828125,0.2272186279296875,-0.9284210205078124
-0.2868804931640625,0.2603302001953125,-0.952789306640625
-0.3281707763671875,0.2743377685546875,-0.948699951171875
-0.309722900390625,0.2801361083984375,-0.8883514404296875
-0.3228607177734375,0.290679931640625,-0.97772216796875
-0.3660888671875,0.318695068359375,-1.2180328369140625
-0.42352294921875,0.355499267578125,-1.6294708251953125
-0.48052978515625,0.3417510986328125,-2.05615234375
-0.415435791015625,0.250701904296875,-1.952392578125
-0.31072998046875,0.184844970703125,-1.677703857421875
-0.2356719970703125,0.1511077880859375,-1.42486572265625
-0.20379638671875,0.14190673828125,-1.240570068359375
-0.1805877685546875,0.116607666015625,-1.1278076171875
-0.1666107177734375,0.0865631103515625,-1.0537261962890625
-0.177886962890625,0.0540771484375,-1.0904693603515625
-0.1513519287109375,0.0228424072265625,-0.9954071044921876
-0.1411895751953125,0.0111846923828125,-0.990875244140625
-0.1309661865234375,0.06036376953125,-1.0827789306640625
-0.1186065673828125,0.1190185546875,-1.113250732421875
-0.069671630859375,0.12847900390625,-1.00384521484375
-0.0389862060546875,0.1186981201171875,-0.8579254150390625
-0.0701446533203125,0.1066436767578125,-0.9008026123046876
-0.1190032958984375,0.0959625244140625,-1.0403900146484375
-0.1508636474609375,0.1009368896484375,-1.2345733642578125
-0.1982574462890625,0.117340087890625,-1.5276336669921875
-0.260986328125,0.168426513671875,-1.763763427734375
-0.3240814208984375,0.244873046875,-1.9164581298828125
-0.3473968505859375,0.311309814453125,-2.034286499023437
-0.330108642578125,0.350006103515625,-1.957275390625
-0.3082427978515625,0.298126220703125,-1.9205474853515625
-0.1982879638671875,0.2340850830078125,-1.5344085693359375
-0.18389892578125,0.218414306640625,-1.1984405517578125
-0.1961822509765625,0.2227630615234375,-0.9805908203125
-0.18499755859375,0.2058563232421875,-0.81988525390625
-0.1490478515625,0.1689605712890625,-0.6385955810546875
-0.140228271484375,0.15625,-0.5280609130859375
-0.1627044677734375,0.17242431640625,-0.53704833984375
-0.2230072021484375,0.223480224609375,-0.754913330078125
-0.268402099609375,0.2489166259765625,-0.87127685546875
-0.281280517578125,0.264129638671875,-0.9677734375
-0.2860107421875,0.2830810546875,-1.109893798828125
-0.300750732421875,0.298797607421875,-1.39923095703125
-0.33380126953125,0.3195648193359375,-1.814666748046875
-0.3218231201171875,0.3098602294921875,-2.162582397460937
-0.4172821044921875,0.277923583984375,-2.2509307861328125
-0.42181396484375,0.18719482421875,-2.223968505859375
-0.3067169189453125,0.0848388671875,-1.7525177001953125
-0.1160736083984375,0.0117950439453125,-1.10626220703125
-0.1608734130859375,0.0307464599609375,-0.958953857421875
-0.271453857421875,0.1007232666015625,-0.9874114990234376
-0.2534027099609375,0.1339874267578125,-0.87701416015625
-0.1748504638671875,0.11181640625,-0.683197021484375
-0.1800689697265625,0.097503662109375,-0.6149749755859375
-0.176788330078125,0.0623779296875,-0.56390380859375
-0.2090606689453125,0.051513671875,-0.6857452392578125
-0.1977691650390625,0.0460662841796875,-0.79736328125
-0.1770782470703125,0.054931640625,-0.8934478759765625
-0.1412811279296875,0.081817626953125,-0.9998779296875
-0.22314453125,0.2507171630859375,-1.323516845703125
-0.1770477294921875,0.304595947265625,-1.615753173828125
-0.2116241455078125,0.303009033203125,-2.0779266357421875
-0.1963043212890625,0.3796844482421875,-2.3719482421875
-0.0782623291015625,0.35784912109375,-1.9457244873046875
-0.0929412841796875,0.341796875,-1.6925811767578125
-0.1375274658203125,0.2967987060546875,-1.47021484375
-0.1673431396484375,0.2178802490234375,-1.1617431640625
-0.1376953125,0.16326904296875,-0.8773345947265625
-0.1184234619140625,0.148406982421875,-0.6732940673828125
-0.0960540771484375,0.135711669921875,-0.519256591796875
-0.1261749267578125,0.1490020751953125,-0.56671142578125
-0.1783447265625,0.165283203125,-0.71209716796875
-0.1998138427734375,0.1834716796875,-0.8031768798828125
-0.1972808837890625,0.206329345703125,-0.9182586669921876
-0.194671630859375,0.2477569580078125,-1.07666015625
-0.18072509765625,0.2792510986328125,-1.16827392578125
-0.221923828125,0.3211669921875,-1.373809814453125
-0.2576446533203125,0.3463897705078125,-1.6302337646484375
-0.3028106689453125,0.335357666015625,-1.7991943359375
-0.4592742919921875,0.37847900390625,-2.105316162109375
-0.568389892578125,0.36669921875,-2.29669189453125
-0.48699951171875,0.289031982421875,-2.0641021728515625
-0.313018798828125,0.20098876953125,-1.58929443359375
-0.1882781982421875,0.1199798583984375,-1.12799072265625
-0.1610565185546875,0.0731658935546875,-0.881011962890625
-0.167205810546875,0.048492431640625,-0.79864501953125
-0.1592864990234375,0.0369873046875,-0.7061004638671875
-0.151885986328125,0.0308380126953125,-0.6605072021484375
-0.138214111328125,0.0187530517578125,-0.6164093017578125
-0.141845703125,0.010589599609375,-0.6310882568359375
-0.1542510986328125,0.0188446044921875,-0.7134857177734375
-0.2248992919921875,0.061065673828125,-0.925872802734375
-0.29278564453125,0.0845794677734375,-1.1683197021484375
-0.27667236328125,0.110992431640625,-1.2525787353515625
-0.3718719482421875,0.1954193115234375,-1.5977630615234375
-0.56866455078125,0.335174560546875,-2.2047271728515625
-0.6375885009765625,0.513916015625,-2.454925537109375
-0.442291259765625,0.5042877197265625,-1.9283447265625
-0.3170623779296875,0.419464111328125,-1.4338531494140625
-0.2746429443359375,0.3312225341796875,-1.157745361328125
-0.2962799072265625,0.275787353515625,-1.0940704345703125
-0.314727783203125,0.22412109375,-1.0272674560546875
-0.299896240234375,0.183685302734375,-0.9667816162109376
-0.3111419677734375,0.177154541015625,-0.981292724609375
-0.360870361328125,0.177734375,-1.15338134765625
-0.4083404541015625,0.1970062255859375,-1.3634796142578125
-0.3741607666015625,0.226654052734375,-1.401153564453125
-0.2045745849609375,0.2070770263671875,-1.040435791015625
-0.1351165771484375,0.199737548828125,-0.7787628173828125
-0.2078399658203125,0.227996826171875,-0.8378753662109375
-0.2552490234375,0.2637786865234375,-0.9335784912109376
-0.239349365234375,0.2702484130859375,-0.8975677490234375
-0.2733917236328125,0.288299560546875,-1.0124969482421875
-0.3133087158203125,0.3103485107421875,-1.193695068359375
-0.3867950439453125,0.3372344970703125,-1.4819183349609375
-0.508056640625,0.3343963623046875,-1.9091796875
-0.51873779296875,0.23638916015625,-2.006195068359375
-0.366424560546875,0.127410888671875,-1.6119232177734375
-0.2457733154296875,0.079132080078125,-1.2538299560546875
-0.2123870849609375,0.0816802978515625,-1.0697784423828125
-0.231964111328125,0.1209259033203125,-1.0415802001953125
-0.288909912109375,0.15289306640625,-1.1622314453125
-0.32159423828125,0.137451171875,-1.23590087890625
-0.28350830078125,0.1184539794921875,-1.0953826904296875
-0.2792816162109375,0.12176513671875,-1.040802001953125
-0.319488525390625,0.15277099609375,-1.1340179443359375
-0.2792816162109375,0.148193359375,-1.0562591552734375
-0.22198486328125,0.1344451904296875,-0.892303466796875
-0.1729278564453125,0.1134185791015625,-0.733612060546875
-0.1578369140625,0.1015625,-0.6631317138671875
-0.172698974609375,0.096221923828125,-0.6668548583984375
-0.2430267333984375,0.1056060791015625,-0.8741607666015625
-0.2908782958984375,0.09552001953125,-1.13995361328125
-0.3046417236328125,0.0721893310546875,-1.3493499755859375
-0.3537139892578125,0.0879669189453125,-1.6203765869140625
-0.3857269287109375,0.1563568115234375,-1.8144683837890625
-0.4032440185546875,0.24212646484375,-1.9108123779296875
-0.3435516357421875,0.288787841796875,-1.6859130859375
-0.2517547607421875,0.255950927734375,-1.239593505859375
-0.2451171875,0.244598388671875,-0.9217681884765624
-0.24713134765625,0.23126220703125,-0.79620361328125
-0.2164459228515625,0.1985015869140625,-0.6139984130859375
-0.18896484375,0.1693115234375,-0.5095062255859375
-0.1918792724609375,0.1527557373046875,-0.4720306396484375
-0.2322235107421875,0.162872314453125,-0.5505523681640625
-0.296875,0.1808624267578125,-0.721405029296875
-0.3633270263671875,0.1952056884765625,-0.8829803466796875
-0.3668060302734375,0.2194671630859375,-0.9559478759765624
-0.3916473388671875,0.254119873046875,-1.071533203125
-0.4183349609375,0.2913970947265625,-1.293212890625
-0.4552764892578125,0.326751708984375,-1.5225067138671875
-0.519866943359375,0.334930419921875,-1.908203125
-0.4896392822265625,0.284210205078125,-2.03265380859375
-0.3933868408203125,0.214263916015625,-1.887451171875
-0.2992095947265625,0.1450958251953125,-1.56329345703125
-0.2366485595703125,0.118988037109375,-1.2486114501953125
-0.16925048828125,0.1037750244140625,-0.9374847412109376
-0.1123046875,0.0877227783203125,-0.69122314453125
-0.1170501708984375,0.0774688720703125,-0.6196746826171875
-0.147125244140625,0.0787353515625,-0.6320343017578125
-0.18804931640625,0.087799072265625,-0.718292236328125
-0.2177581787109375,0.085052490234375,-0.783294677734375
-0.242218017578125,0.07421875,-0.8811187744140625
-0.2852783203125,0.060760498046875,-1.0952301025390625
-0.2904815673828125,0.0385589599609375,-1.25555419921875
-0.3140716552734375,0.0362396240234375,-1.4008636474609375
-0.2731781005859375,0.053070068359375,-1.394012451171875
-0.2253875732421875,0.0946044921875,-1.286712646484375
-0.2841033935546875,0.1864166259765625,-1.3990020751953125
-0.3392333984375,0.26904296875,-1.4783935546875
-0.3021087646484375,0.2961883544921875,-1.3390960693359375
-0.26708984375,0.281494140625,-1.1095428466796875
-0.24932861328125,0.2933807373046875,-0.98773193359375
-0.231231689453125,0.291229248046875,-0.8448944091796875
-0.2410736083984375,0.287872314453125,-0.7987060546875
-0.2577972412109375,0.27996826171875,-0.780181884765625
-0.27032470703125,0.2616119384765625,-0.8238525390625
-0.303375244140625,0.2510528564453125,-0.9186248779296876
-0.31781005859375,0.2310333251953125,-1.0074920654296875
-0.331695556640625,0.233184814453125,-1.1176605224609375
-0.4051513671875,0.243133544921875,-1.4374542236328125
-0.455902099609375,0.259613037109375,-1.6904296875
-0.4160919189453125,0.2576446533203125,-1.704559326171875
-0.3401336669921875,0.2539215087890625,-1.5397796630859375
-0.2525482177734375,0.231201171875,-1.3218536376953125
-0.2048187255859375,0.201446533203125,-1.1328125
-0.221405029296875,0.2058258056640625,-1.1394805908203125
-0.2554931640625,0.1974945068359375,-1.2265472412109375
-0.263763427734375,0.159881591796875,-1.212890625
-0.2427520751953125,0.1111602783203125,-1.145294189453125
-0.238861083984375,0.0736083984375,-1.1247711181640625
-0.2589111328125,0.0548858642578125,-1.1455841064453125
-0.25189208984375,0.0384979248046875,-1.17230224609375
-0.2368927001953125,0.0296630859375,-1.175933837890625
-0.2214508056640625,0.009735107421875,-1.160614013671875
-0.1463165283203125,-0.004913330078125,-0.9288787841796876
-0.2538909912109375,0.0490264892578125,-1.0935821533203125
-0.43731689453125,0.14837646484375,-1.44403076171875
-0.36077880859375,0.16473388671875,-1.259521484375
-0.27410888671875,0.1257171630859375,-1.01837158203125
-0.247344970703125,0.1092376708984375,-0.9286041259765624
-0.22308349609375,0.1558990478515625,-0.8922576904296875
-0.2540283203125,0.105224609375,-0.9816131591796876
-0.2574615478515625,0.1264495849609375,-1.070159912109375
-0.2967681884765625,0.1381378173828125,-1.195068359375
-0.33575439453125,0.1834259033203125,-1.281890869140625
-0.3447265625,0.23388671875,-1.33367919921875
-0.3282470703125,0.2662200927734375,-1.317901611328125
-0.3422088623046875,0.2783050537109375,-1.32318115234375
-0.3719024658203125,0.267242431640625,-1.4679718017578125
-0.3124237060546875,0.2300567626953125,-1.2707672119140625
-0.3073577880859375,0.2314605712890625,-1.1261749267578125
-0.296661376953125,0.253570556640625,-1.0224456787109375
-0.2558746337890625,0.2458343505859375,-0.962158203125
-0.2491607666015625,0.247955322265625,-0.9309539794921876
-0.274993896484375,0.2556610107421875,-0.9598846435546876
-0.3010406494140625,0.2654876708984375,-1.0465087890625
-0.3121795654296875,0.2720184326171875,-1.1682586669921875
-0.337493896484375,0.2535552978515625,-1.305023193359375
-0.357574462890625,0.2340240478515625,-1.462921142578125
-0.355499267578125,0.191009521484375,-1.5289154052734375
-0.353424072265625,0.12530517578125,-1.5952301025390625
-0.2961273193359375,0.072906494140625,-1.419097900390625
-0.2612457275390625,0.0428009033203125,-1.255126953125
-0.245635986328125,0.044921875,-1.1455230712890625
-0.1535491943359375,0.0476837158203125,-0.8776397705078125
-0.1365203857421875,0.0534820556640625,-0.7485809326171875
-0.33453369140625,0.130645751953125,-1.1145782470703125
-0.4446258544921875,0.19366455078125,-1.3062591552734375
-0.3356475830078125,0.172332763671875,-1.078948974609375
-0.2743072509765625,0.15252685546875,-0.9626617431640624
-0.2666015625,0.140716552734375,-0.9569549560546876
-0.3047332763671875,0.152496337890625,-1.0597076416015625
-0.346527099609375,0.1861724853515625,-1.2404632568359375
-0.3824462890625,0.2348175048828125,-1.384674072265625
-0.412078857421875,0.297760009765625,-1.4808502197265625
-0.4152679443359375,0.3406982421875,-1.48492431640625
-0.4267425537109375,0.3670654296875,-1.5086822509765625
-0.4450225830078125,0.3792724609375,-1.4986572265625
-0.448638916015625,0.3707733154296875,-1.467315673828125
-0.45257568359375,0.3457794189453125,-1.4786529541015625
-0.3672027587890625,0.3042449951171875,-1.2920684814453125
-0.2769622802734375,0.259368896484375,-0.99908447265625
-0.2309417724609375,0.2321929931640625,-0.8461761474609375
-0.2158050537109375,0.2205963134765625,-0.7786102294921875
-0.2437896728515625,0.2249755859375,-0.8480072021484375
-0.2918243408203125,0.251983642578125,-1.0057373046875
-0.4070281982421875,0.2963714599609375,-1.4048004150390625
-0.463653564453125,0.3361358642578125,-1.7017059326171875
-0.4994049072265625,0.3693084716796875,-2.026580810546875
-0.4971771240234375,0.3817901611328125,-2.317733764648437
-0.5085296630859375,0.3552398681640625,-2.5200958251953125
-0.3556060791015625,0.3067779541015625,-2.02325439453125
-0.298248291015625,0.2714080810546875,-1.6767578125
-0.258026123046875,0.249542236328125,-1.35101318359375
-0.1892242431640625,0.22222900390625,-1.0467376708984375
-0.1568145751953125,0.2202301025390625,-0.9687347412109376
-0.1331329345703125,0.2114715576171875,-0.8801727294921875
-0.096221923828125,0.19195556640625,-0.756927490234375
-0.0442962646484375,0.1514129638671875,-0.5843353271484375
0.0242767333984375,0.0962371826171875,-0.3493804931640625
0.0504608154296875,0.0807952880859375,-0.2487030029296875
0.04034423828125,0.062652587890625,-0.290069580078125
0.0172882080078125,0.0603485107421875,-0.38140869140625
-0.014739990234375,0.054229736328125,-0.4152679443359375
-0.05242919921875,0.0640411376953125,-0.5633392333984375
-0.1016082763671875,0.06640625,-0.73858642578125
-0.1485137939453125,0.047698974609375,-0.86456298828125
-0.2476654052734375,0.0768585205078125,-1.1243743896484375
-0.3901519775390625,0.0538787841796875,-1.501251220703125
-0.3618621826171875,0.0687408447265625,-1.45465087890625
-0.39111328125,0.090728759765625,-1.5262603759765625
-0.3407440185546875,0.127227783203125,-1.2830047607421875
-0.3357391357421875,0.159423828125,-1.1851806640625
-0.345489501953125,0.18212890625,-1.1546478271484375
-0.350860595703125,0.169097900390625,-1.117645263671875
-0.3862457275390625,0.164886474609375,-1.2222442626953125
-0.397369384765625,0.14892578125,-1.2600555419921875
-0.4412078857421875,0.1300048828125,-1.20391845703125
-0.4086761474609375,0.0888824462890625,-1.234130859375
-0.378082275390625,0.0752410888671875,-1.1416473388671875
-0.41827392578125,0.0620880126953125,-1.086578369140625
-0.3539276123046875,0.11419677734375,-1.0402679443359375
-0.3382568359375,0.1325225830078125,-1.048828125
-0.3333892822265625,0.133209228515625,-1.04962158203125
-0.301483154296875,0.146759033203125,-1.0762786865234375
-0.2664337158203125,0.1393890380859375,-1.0444793701171875
-0.2256927490234375,0.118743896484375,-0.9571990966796876
-0.192840576171875,0.09222412109375,-0.7445068359375
-0.1336212158203125,0.0601654052734375,-0.37640380859375
-0.0166473388671875,-0.004608154296875,-0.1163482666015625
-0.0181427001953125,0.054443359375,-0.1733856201171875
0.0200653076171875,0.0144805908203125,0.0269012451171875
0.000457763671875,0.0103912353515625,-0.0333099365234375
0.00067138671875,0.009674072265625,-0.0420989990234375
-0.00048828125,0.0135498046875,-0.0453033447265625
-0.0020294189453125,0.0109100341796875,-0.0525970458984375
-0.006378173828125,0.0096282958984375,-0.05889892578125
-0.011474609375,0.0042572021484375,-0.064453125
-0.0107421875,0.0056915283203125,-0.0721282958984375
-0.0140838623046875,0.006317138671875,-0.08209228515625
-0.017303466796875,0.0060577392578125,-0.0937042236328125
-0.01922607421875,0.00970458984375,-0.10552978515625
-0.0139923095703125,0.0103759765625,-0.1208953857421875
-0.0231781005859375,0.0096435546875,-0.1399078369140625
-0.035400390625,0.0152587890625,-0.1540679931640625
-0.03778076171875,0.023193359375,-0.168609619140625
-0.0418243408203125,0.0281829833984375,-0.179412841796875
-0.038055419921875,0.0325164794921875,-0.190673828125
-0.0552215576171875,0.03662109375,-0.203399658203125
-0.0666961669921875,0.0308685302734375,-0.203094482421875
-0.0663909912109375,0.0330047607421875,-0.2505645751953125
1.499725341796875,1.9056243896484373,-3.59588623046875
-0.5323638916015625,-0.06842041015625,-1.0912017822265625
0.0381622314453125,0.0527496337890625,-0.6299285888671875
0.0964813232421875,-0.0632476806640625,0.0157623291015625
0.116455078125,0.174652099609375,-1.0201873779296875
0.2647705078125,0.2675323486328125,-1.0319671630859375
0.0634765625,0.0965423583984375,-1.092254638671875
0.0015411376953125,0.104248046875,-0.93988037109375
-0.122100830078125,0.052886962890625,-0.9924468994140624
-0.2412872314453125,0.030731201171875,-1.048797607421875
-0.2233428955078125,-0.0030517578125,-1.03277587890625
-0.6185150146484375,-0.0879669189453125,-1.0085296630859375
-0.40673828125,-0.0115814208984375,-0.778656005859375
-0.3659820556640625,0.0079498291015625,-0.8448638916015625
-0.32696533203125,-0.0113983154296875,-1.0079498291015625
-0.2438812255859375,-0.0091400146484375,-1.051666259765625
-0.189849853515625,0.042572021484375,-0.9881439208984376
-0.258697509765625,0.01251220703125,-1.004241943359375
-0.302337646484375,-0.001068115234375,-0.9526824951171876
-0.300018310546875,0.0078277587890625,-0.9610443115234376
-0.2684478759765625,0.0093231201171875,-0.9865264892578124
-0.2693023681640625,0.0103912353515625,-0.9847259521484376
-0.285552978515625,0.0056610107421875,-0.9705047607421876
-0.277801513671875,0.007781982421875,-0.9794921875
-0.27398681640625,0.0075531005859375,-0.980316162109375
-0.27960205078125,0.009552001953125,-0.972320556640625
-0.27642822265625,0.008056640625,-0.978240966796875
-0.2784881591796875,0.00860595703125,-0.9801788330078124
-0.2808074951171875,0.006561279296875,-0.977752685546875
-0.27691650390625,0.006195068359375,-0.9774017333984376
-0.27606201171875,0.0097198486328125,-0.97723388671875
-0.2776336669921875,0.0085906982421875,-0.9796142578125
-0.2688751220703125,-0.0019989013671875,-0.9674072265625
-0.2902069091796875,0.0190582275390625,-0.9717254638671876
-0.254425048828125,0.018341064453125,-1.0237579345703125
-0.2827911376953125,-0.0104827880859375,-0.9340972900390624
-0.253753662109375,0.01788330078125,-0.9858245849609376
-0.263885498046875,0.0091552734375,-0.958282470703125
-0.28778076171875,0.0037384033203125,-0.9981536865234376
-0.2712860107421875,0.027923583984375,-0.9875640869140624
-0.2721710205078125,-0.03656005859375,-0.9424285888671876
-0.305389404296875,0.00958251953125,-0.9860382080078124
-0.32733154296875,-0.000213623046875,-0.9120635986328124
-0.3356170654296875,0.031463623046875,-1.029571533203125
-0.2353973388671875,0.028533935546875,-1.0126495361328125
-0.2632293701171875,-0.006500244140625,-0.9772491455078124
-0.243743896484375,-0.017791748046875,-1.0280609130859375
-0.27874755859375,0.091156005859375,-0.9700164794921876
-0.29241943359375,0.037811279296875,-0.9592437744140624
-0.304962158203125,-0.036163330078125,-0.998199462890625
-0.3480377197265625,0.0107269287109375,-0.8757171630859375
-0.261474609375,-0.0234527587890625,-0.981170654296875
-0.2989959716796875,0.0279083251953125,-1.0143585205078125
-0.2379302978515625,0.033599853515625,-0.992218017578125
-0.2808837890625,0.009124755859375,-0.9808197021484376
-0.2917022705078125,0.001708984375,-0.9644927978515624
-0.2659454345703125,0.007476806640625,-0.9713592529296876
-0.2558746337890625,0.0122528076171875,-1.0228729248046875
-0.3114013671875,0.0432891845703125,-1.0628662109375
-0.3394012451171875,0.0211181640625,-0.6763153076171875
-0.291168212890625,0.000885009765625,-0.983154296875
-0.3238677978515625,0.009429931640625,-0.9910125732421876
-0.30096435546875,0.0258941650390625,-1.0107269287109375
-0.3021240234375,0.012359619140625,-0.9731597900390624
-0.2789154052734375,0.0201873779296875,-1.022735595703125
-0.2958526611328125,-0.0032196044921875,-0.9815673828125
-0.331939697265625,0.014892578125,-0.9152984619140624
-0.3029022216796875,0.0104217529296875,-0.97674560546875
-0.267486572265625,0.024658203125,-0.9685516357421876
-0.2735137939453125,0.011932373046875,-0.973297119140625
-0.3050994873046875,0.027008056640625,-1.0288238525390625
-0.3155975341796875,0.0288543701171875,-0.9129791259765624
-0.2995758056640625,-0.007720947265625,-0.937042236328125
-0.2810516357421875,0.01947021484375,-1.0076751708984375
-0.3118896484375,0.022491455078125,-0.9220123291015624
-0.2904205322265625,0.0247344970703125,-0.910919189453125
-0.3060760498046875,0.02349853515625,-0.8948974609375
-0.308868408203125,0.005706787109375,-0.9548187255859376
-0.25982666015625,0.0231781005859375,-1.0154266357421875
-0.2630615234375,0.0174407958984375,-0.9901275634765624
-0.302398681640625,-0.0028076171875,-0.9436492919921876
-0.2865447998046875,-0.0048980712890625,-0.9425811767578124
-0.2861175537109375,0.011962890625,-0.9719390869140624
-0.2891387939453125,0.0102386474609375,-1.0056304931640625
-0.274566650390625,0.0071868896484375,-0.9854888916015624
-0.258453369140625,0.021636962890625,-0.9989471435546876
-0.325164794921875,0.019500732421875,-0.9868011474609376
-0.368560791015625,-0.004730224609375,-0.947784423828125
-0.3192901611328125,0.01666259765625,-0.9629974365234376
-0.3571014404296875,-0.0493927001953125,-0.9284820556640624
-0.348114013671875,0.0536041259765625,-0.929046630859375
-0.3586273193359375,0.0074005126953125,-1.040191650390625
-0.339996337890625,-0.006561279296875,-1.00653076171875
-0.4518280029296875,-0.0086517333984375,-0.8870086669921875
-0.3835296630859375,-0.0216064453125,-0.8946075439453125
-0.472320556640625,-0.0196380615234375,-0.9203338623046876
-0.4646759033203125,-0.0589141845703125,-0.7730865478515625
-0.4866790771484375,-0.0116729736328125,-0.748046875
-0.4736175537109375,-0.072845458984375,-0.69781494140625
-0.4022216796875,0.0183563232421875,-0.9409942626953124
-0.351409912109375,-0.059600830078125,-1.181243896484375
-0.3491363525390625,-0.027130126953125,-0.9659881591796876
-0.14508056640625,0.104339599609375,-1.0177764892578125
-0.131072998046875,-0.043548583984375,-1.0628204345703125
-0.160369873046875,0.0464324951171875,-1.0121917724609375
-0.2033538818359375,-0.00732421875,-0.979400634765625
-0.22552490234375,-0.013519287109375,-0.99310302734375
-0.2191619873046875,0.011260986328125,-1.0088348388671875
-0.21826171875,-9.1552734375e-05,-0.959930419921875
-0.216461181640625,0.00726318359375,-0.99072265625
-0.2411346435546875,-0.0028533935546875,-0.9859619140625
-0.2498626708984375,-0.033233642578125,-0.9759979248046876
-0.237274169921875,0.00970458984375,-0.98211669921875
-0.1958770751953125,-0.0172271728515625,-0.9502410888671876
-0.3139801025390625,-0.0158233642578125,-0.97979736328125
-0.2051849365234375,0.0128021240234375,-1.0596923828125
-0.194671630859375,0.0001373291015625,-1.015380859375
-0.197509765625,-0.0493316650390625,-0.98455810546875
-0.235137939453125,-0.0634765625,-0.9727935791015624
-0.237823486328125,-0.0845489501953125,-0.95440673828125
-0.196990966796875,-0.032257080078125,-1.011749267578125
-0.20294189453125,-0.0135345458984375,-1.00323486328125
-0.21844482421875,-0.0282440185546875,-1.004241943359375
-0.228271484375,-0.0255126953125,-0.9911651611328124
-0.2355499267578125,0.0077972412109375,-0.96807861328125
-0.275177001953125,-0.0048370361328125,-0.974456787109375
-0.2625274658203125,-0.0153045654296875,-0.971405029296875
-0.24957275390625,-0.0094757080078125,-1.0191192626953125
-0.32806396484375,0.000885009765625,-0.957427978515625
-0.2929534912109375,-0.00848388671875,-1.1039581298828125
-0.0498809814453125,-0.0513458251953125,-1.0299072265625
-0.2500152587890625,0.005523681640625,-1.029754638671875
-0.1489410400390625,0.0219268798828125,-1.0735321044921875
-0.2489013671875,-0.0038909912109375,-0.9948272705078124
-0.32818603515625,0.020111083984375,-0.8883819580078125
-0.3007049560546875,0.0248260498046875,-1.0740966796875
-0.24566650390625,0.0334014892578125,-0.99932861328125
-0.0353546142578125,-0.015838623046875,-1.0673675537109375
-0.5354461669921875,-0.129364013671875,-0.8564910888671875
-0.369964599609375,0.215179443359375,-1.1210479736328125
-0.2933807373046875,-0.0184326171875,-1.066680908203125
-0.32305908203125,0.02337646484375,-0.97283935546875
-0.2962188720703125,0.000823974609375,-0.9433135986328124
-0.2653961181640625,0.0102081298828125,-0.9843292236328124
-0.274017333984375,0.0232086181640625,-0.992462158203125
-0.290496826171875,0.025115966796875,-0.96905517578125
-0.2881927490234375,0.013397216796875,-0.9857025146484376
-0.2846221923828125,-0.00140380859375,-0.96112060546875
-0.2403106689453125,-0.0703277587890625,-1.14190673828125
-0.4474334716796875,0.099365234375,-0.8357086181640625
-0.3480682373046875,0.03485107421875,-0.9942169189453124
-0.2422027587890625,-0.03436279296875,-0.9665679931640624
-0.3301239013671875,-0.00787353515625,-0.962158203125
-0.2926177978515625,0.015045166015625,-0.9568939208984376
-0.3093414306640625,0.0227813720703125,-0.9592742919921876
-0.3100738525390625,-0.019073486328125,-0.948944091796875
-0.3097991943359375,-0.008056640625,-0.9008636474609376
-0.3059539794921875,0.00274658203125,-0.964813232421875
-0.306884765625,0.0304107666015625,-0.9725494384765624
-0.3140869140625,0.021636962890625,-0.9635772705078124
-0.30682373046875,-0.009857177734375,-0.9579315185546876
-0.30877685546875,0.0120086669921875,-0.9697723388671876
-0.31689453125,0.0103759765625,-0.9644775390625
-0.316162109375,0.0065765380859375,-0.97027587890625
-0.2961578369140625,0.009918212890625,-0.991912841796875
-0.299285888671875,-0.0175628662109375,-0.9679107666015624
-0.3221588134765625,-0.043853759765625,-0.933197021484375
-0.3133544921875,-0.00390625,-0.971832275390625
-0.264190673828125,-0.0225830078125,-0.945831298828125
-0.295196533203125,-0.095855712890625,-0.9310150146484376
-0.333770751953125,-0.0023193359375,-0.9829864501953124
-0.2750701904296875,-0.0146484375,-1.005279541015625
-0.3274688720703125,0.0180816650390625,-0.9697265625
-0.280792236328125,-0.00189208984375,-0.973175048828125
-0.2629852294921875,0.000885009765625,-0.9849395751953124
-0.2472686767578125,0.0087890625,-0.992889404296875
-0.295684814453125,0.02154541015625,-0.9627227783203124
-0.30615234375,0.0022125244140625,-0.9758453369140624
-0.2530364990234375,-0.06011962890625,-0.96734619140625
-0.268463134765625,-0.0315093994140625,-0.994781494140625
-0.271392822265625,-0.0044708251953125,-1.009979248046875
-0.3103790283203125,0.0031585693359375,-0.8319244384765625
-0.20758056640625,-0.044281005859375,-0.9730224609375
-0.22930908203125,-0.061920166015625,-1.0069732666015625
-0.2609405517578125,-0.03753662109375,-0.9739227294921876
-0.2886199951171875,-0.0364837646484375,-0.9680328369140624
-0.2591400146484375,-0.0419769287109375,-0.9831390380859376
-0.231964111328125,-0.067138671875,-0.9983062744140624
-0.2435302734375,-0.0591583251953125,-0.9937896728515624
-0.237762451171875,-0.0690765380859375,-0.988922119140625
-0.236907958984375,-0.0640869140625,-0.976104736328125
-0.2458343505859375,-0.059295654296875,-0.978057861328125
-0.25311279296875,-0.0588531494140625,-0.98553466796875
-0.2383880615234375,-0.066192626953125,-0.977294921875
-0.2563629150390625,-0.0675048828125,-0.98638916015625
-0.2388763427734375,-0.073089599609375,-0.981048583984375
-0.248046875,-0.0721435546875,-0.981414794921875
-0.24542236328125,-0.0749053955078125,-0.980804443359375
-0.2463836669921875,-0.0717926025390625,-0.9820098876953124
-0.2320404052734375,-0.0759735107421875,-0.9720916748046876
-0.2462158203125,-0.073944091796875,-0.9884185791015624
-0.24310302734375,-0.0852508544921875,-0.9764251708984376
-0.238067626953125,-0.091156005859375,-0.9643707275390624
-0.2513885498046875,-0.079071044921875,-0.9851837158203124
-0.2602691650390625,-0.087249755859375,-0.9766845703125
-0.236419677734375,-0.0668487548828125,-0.9862823486328124
