AccelerationX,AccelerationY,AccelerationZ
0.9520263671875,0.0027313232421875,-0.3285369873046875
0.92999267578125,-0.023162841796875,-0.3154754638671875
0.9438323974609376,-0.021820068359375,-0.32757568359375
0.9310150146484376,-0.033905029296875,-0.33966064453125
0.9482269287109376,-0.0485992431640625,-0.3478546142578125
0.9449615478515624,-0.0594329833984375,-0.334930419921875
0.9347381591796876,-0.0642242431640625,-0.3422393798828125
0.95245361328125,-0.062286376953125,-0.3472442626953125
0.920684814453125,-0.0782012939453125,-0.3203277587890625
0.9406585693359376,-0.0731353759765625,-0.32830810546875
0.933135986328125,-0.056427001953125,-0.322509765625
0.9251556396484376,-0.055084228515625,-0.313232421875
0.9438323974609376,-0.059417724609375,-0.3040924072265625
0.9636688232421876,-0.0987091064453125,-0.29364013671875
0.919586181640625,-0.080047607421875,-0.2911529541015625
0.93048095703125,-0.0698699951171875,-0.2814483642578125
0.9189453125,-0.0645751953125,-0.2758636474609375
0.9029693603515624,-0.085418701171875,-0.25262451171875
0.93341064453125,-0.1216278076171875,-0.2459259033203125
0.9642486572265624,-0.1307525634765625,-0.2553253173828125
0.9959869384765624,-0.1148681640625,-0.210418701171875
0.960784912109375,-0.096954345703125,-0.17529296875
0.92333984375,-0.0534820556640625,-0.1380462646484375
0.919189453125,-0.006744384765625,-0.111480712890625
0.9033660888671876,0.0280914306640625,-0.0948486328125
0.9105682373046876,0.0381622314453125,-0.122528076171875
0.96099853515625,0.1024322509765625,-0.1370697021484375
1.0090179443359375,0.0637664794921875,-0.1068878173828125
1.0996246337890625,0.0853118896484375,-0.1441497802734375
1.083038330078125,0.11358642578125,-0.15179443359375
1.077606201171875,0.0981292724609375,-0.1463165283203125
1.08599853515625,0.096405029296875,-0.1418304443359375
1.1445465087890625,0.0846710205078125,-0.1450653076171875
1.157470703125,0.0921478271484375,-0.127593994140625
1.290435791015625,0.1160125732421875,-0.14276123046875
1.2577667236328125,0.1678314208984375,-0.2218780517578125
1.121246337890625,0.234771728515625,-0.3299102783203125
0.89813232421875,0.2787322998046875,-0.314666748046875
0.9638824462890624,0.2756500244140625,-0.2567291259765625
1.1020355224609375,0.201324462890625,-0.1618499755859375
1.2540740966796875,0.117645263671875,-0.0658111572265625
1.4244842529296875,0.06463623046875,-0.0310821533203125
1.3331451416015625,0.04791259765625,0.0699310302734375
1.3368682861328125,0.013092041015625,0.096435546875
1.242828369140625,0.0538177490234375,0.0882720947265625
1.12603759765625,0.0832061767578125,0.1025543212890625
1.035614013671875,0.08551025390625,0.078277587890625
0.992523193359375,0.0843658447265625,0.0693511962890625
0.92205810546875,0.067657470703125,0.0599365234375
0.8634185791015625,0.05328369140625,0.043548583984375
0.9471893310546876,0.0289154052734375,0.0664215087890625
1.0103759765625,-0.0032196044921875,0.061553955078125
1.2271270751953125,-0.05682373046875,0.0093994140625
0.9676055908203124,-0.018341064453125,-0.1588897705078125
0.918731689453125,-0.0006256103515625,-0.2463836669921875
1.0244140625,0.05682373046875,-0.2530364990234375
1.074371337890625,0.0369415283203125,-0.232269287109375
0.9616546630859376,-7.62939453125e-05,-0.1820831298828125
0.8353271484375,0.0053863525390625,-0.180267333984375
0.799652099609375,0.0349578857421875,-0.119415283203125
0.92950439453125,0.051910400390625,-0.077606201171875
1.1251373291015625,0.0884857177734375,-0.1390380859375
1.226043701171875,0.121551513671875,-0.1335601806640625
1.1884613037109375,0.152252197265625,-0.189483642578125
1.020904541015625,0.191558837890625,-0.2604522705078125
0.9756622314453124,0.1930084228515625,-0.2827606201171875
1.170928955078125,0.177764892578125,-0.3101654052734375
1.3490447998046875,0.19036865234375,-0.2650604248046875
1.4483795166015625,0.1630401611328125,-0.3061676025390625
1.4665374755859375,0.2023162841796875,-0.4337005615234375
1.21026611328125,0.2589874267578125,-0.364044189453125
1.1271820068359375,0.209136962890625,-0.2532958984375
1.2230072021484375,0.1760101318359375,-0.1569061279296875
1.4496307373046875,0.0697479248046875,-0.0872650146484375
1.3652801513671875,0.0140533447265625,0.039764404296875
1.29718017578125,0.011505126953125,0.09222412109375
1.283477783203125,0.031768798828125,0.1501312255859375
1.2630157470703125,0.057769775390625,0.206573486328125
1.1611328125,0.06707763671875,0.278167724609375
0.9940185546875,0.0832366943359375,0.256866455078125
0.8119354248046875,0.1175384521484375,0.1841583251953125
0.832427978515625,0.1259307861328125,0.1317901611328125
1.0066680908203125,0.1633148193359375,0.08758544921875
1.1576690673828125,0.1143341064453125,0.0863494873046875
1.174774169921875,0.04888916015625,0.0245208740234375
0.861236572265625,0.0346527099609375,-0.2573394775390625
0.5617828369140625,0.004913330078125,-0.5380706787109375
0.545379638671875,-0.002410888671875,-0.4204864501953125
0.8559112548828125,-0.1323089599609375,-0.21405029296875
1.3039703369140625,-0.2169342041015625,-0.104278564453125
1.4950103759765625,-0.047637939453125,-0.147003173828125
1.535980224609375,0.1685028076171875,-0.1754302978515625
1.4336090087890625,0.331298828125,-0.232757568359375
1.2950897216796875,0.4664459228515625,-0.19580078125
1.174407958984375,0.28839111328125,-0.0812835693359375
1.1287841796875,0.242431640625,-0.0788726806640625
0.9973907470703124,0.2128753662109375,-0.09283447265625
0.9665374755859376,0.257598876953125,-0.10333251953125
1.0422821044921875,0.3758392333984375,-0.28924560546875
1.0229644775390625,0.4757080078125,-0.205963134765625
1.185577392578125,0.4908447265625,-0.264129638671875
1.3912811279296875,0.5106353759765625,-0.3061370849609375
1.2281951904296875,0.3215484619140625,-0.187286376953125
1.1101837158203125,0.1793975830078125,-0.0941925048828125
1.2527008056640625,0.16168212890625,-0.082855224609375
1.5625762939453125,0.150909423828125,-0.077911376953125
1.6220550537109375,0.091705322265625,-0.0269775390625
1.3426513671875,0.07470703125,0.0919647216796875
1.1221923828125,0.04998779296875,0.129302978515625
1.003662109375,0.0072174072265625,0.1570281982421875
0.9730682373046876,-0.017242431640625,0.1592559814453125
0.8961181640625,0.0118865966796875,0.1607513427734375
0.7657470703125,0.048675537109375,0.1009674072265625
0.7420501708984375,0.0924224853515625,0.0281982421875
0.831634521484375,0.1094970703125,0.004364013671875
0.9627685546875,0.078826904296875,-0.00018310546875
1.094451904296875,0.0296173095703125,-0.0876922607421875
0.9379425048828124,0.02374267578125,-0.2793121337890625
0.8404083251953125,0.0188140869140625,-0.3422698974609375
1.1122894287109375,-0.0211029052734375,-0.22906494140625
1.484222412109375,-0.0074310302734375,-0.2082061767578125
1.403717041015625,0.0364532470703125,-0.1802978515625
1.121124267578125,0.12750244140625,-0.1791839599609375
0.8943634033203125,0.1531982421875,-0.1939544677734375
0.9001312255859375,0.1245269775390625,-0.13214111328125
1.024169921875,0.143890380859375,-0.0340423583984375
1.1576385498046875,0.170654296875,-0.0084991455078125
1.158721923828125,0.2014617919921875,-0.0268402099609375
0.991363525390625,0.2712860107421875,-0.1524505615234375
0.833343505859375,0.35064697265625,-0.1882781982421875
0.96502685546875,0.4359588623046875,-0.2898712158203125
1.000244140625,0.4222259521484375,-0.1912078857421875
1.328094482421875,0.3052978515625,-0.1572723388671875
1.389495849609375,0.3177947998046875,-0.1745452880859375
1.1354827880859375,0.2857818603515625,-0.2229766845703125
1.0688323974609375,0.251678466796875,-0.2040252685546875
1.2458343505859375,0.23046875,-0.1779327392578125
1.4427490234375,0.1481475830078125,-0.0629119873046875
1.446807861328125,0.0354461669921875,-0.055572509765625
1.258636474609375,0.0062408447265625,-0.026336669921875
1.0685882568359375,0.0038604736328125,-0.018280029296875
0.922515869140625,0.021728515625,-0.0491180419921875
0.836273193359375,0.033294677734375,-0.0420684814453125
0.7741241455078125,0.02227783203125,-0.0422515869140625
0.7113494873046875,0.0175933837890625,-0.03558349609375
0.7299652099609375,0.0138702392578125,-0.06524658203125
0.82861328125,0.0251922607421875,-0.0380859375
0.9515228271484376,-0.0116119384765625,0.0091705322265625
1.226806640625,-0.035003662109375,-0.0052642822265625
1.1514434814453125,0.008575439453125,-0.133087158203125
1.14947509765625,0.069244384765625,-0.19134521484375
1.034454345703125,0.1314544677734375,-0.2529296875
0.9499053955078124,0.1937255859375,-0.23345947265625
1.0023651123046875,0.152374267578125,-0.102630615234375
1.1273345947265625,0.065277099609375,-0.07098388671875
1.08837890625,0.0290374755859375,-0.043121337890625
1.1114959716796875,0.00927734375,0.00225830078125
1.1205596923828125,0.0360870361328125,-0.0377044677734375
1.0650634765625,0.1492156982421875,-0.1475372314453125
1.0163726806640625,0.21734619140625,-0.168121337890625
1.0455474853515625,0.2614288330078125,-0.250518798828125
0.9633941650390624,0.3101348876953125,-0.3929443359375
1.04339599609375,0.321136474609375,-0.4524993896484375
1.2920074462890625,0.23248291015625,-0.237396240234375
1.6777191162109375,0.0839691162109375,-0.15008544921875
1.19525146484375,0.095428466796875,-0.1667938232421875
0.6789093017578125,0.1208648681640625,-0.1465911865234375
0.69818115234375,0.1420440673828125,-0.1544036865234375
1.071533203125,0.1439208984375,-0.181488037109375
1.2993011474609375,0.1243438720703125,-0.161041259765625
1.2560272216796875,0.131011962890625,-0.0754852294921875
1.0980224609375,0.1007080078125,-0.0617218017578125
0.9968414306640624,0.0629119873046875,-0.0508880615234375
0.8983306884765625,0.041259765625,-0.0397491455078125
0.83050537109375,0.01849365234375,-0.0474090576171875
0.7618408203125,0.0271759033203125,-0.0654449462890625
0.7111663818359375,0.03857421875,-0.05682373046875
0.738311767578125,0.0262451171875,-0.0487823486328125
0.967926025390625,0.012908935546875,-0.0404052734375
1.4301300048828125,-0.0134124755859375,0.0988922119140625
1.709991455078125,0.004974365234375,0.1329498291015625
1.3153839111328125,0.0576934814453125,-0.2254638671875
0.9033050537109376,0.2126922607421875,-0.4940643310546875
0.904510498046875,0.2540130615234375,-0.2994232177734375
1.0110931396484375,0.0206146240234375,0.0115966796875
1.1896514892578125,-0.191558837890625,0.0389556884765625
0.9569091796875,-0.1880645751953125,-0.033721923828125
0.7168731689453125,-0.0637359619140625,-0.08477783203125
0.6325225830078125,0.05572509765625,-0.1339874267578125
0.7681121826171875,0.1382293701171875,-0.1329193115234375
0.9307098388671876,0.1771240234375,-0.1019439697265625
0.997100830078125,0.180816650390625,-0.1181793212890625
0.869873046875,0.1881561279296875,-0.14752197265625
0.8625946044921875,0.1649627685546875,-0.175537109375
1.090576171875,0.1289825439453125,-0.2348785400390625
1.2111968994140625,0.11016845703125,-0.1636810302734375
1.5309600830078125,0.0010528564453125,-0.1388092041015625
1.3148193359375,0.09051513671875,-0.180511474609375
1.1973724365234375,0.18603515625,-0.34124755859375
1.0420684814453125,0.2579345703125,-0.3059539794921875
1.1453857421875,0.2625579833984375,-0.275787353515625
1.192962646484375,0.15802001953125,-0.1560211181640625
1.07904052734375,0.030364990234375,-0.08782958984375
0.918975830078125,-0.028656005859375,-0.0440216064453125
0.8839569091796875,-0.024688720703125,0.0117034912109375
0.91033935546875,-0.0056304931640625,0.026214599609375
0.925048828125,0.03521728515625,0.019805908203125
0.97576904296875,0.0711517333984375,0.00762939453125
0.9461212158203124,0.0967254638671875,-0.02392578125
0.838043212890625,0.0987396240234375,-0.0181121826171875
0.870086669921875,0.0725860595703125,-0.0048828125
1.0462646484375,0.037933349609375,-0.0095977783203125
1.2682647705078125,0.003173828125,0.025970458984375
1.29498291015625,-0.037353515625,-0.0587921142578125
1.0561981201171875,-0.0081634521484375,-0.2034149169921875
0.848876953125,0.0354766845703125,-0.2785797119140625
0.98565673828125,0.0678863525390625,-0.32012939453125
1.1105194091796875,0.03155517578125,-0.204986572265625
1.1173248291015625,-0.009246826171875,-0.1329345703125
0.97314453125,0.008087158203125,-0.14447021484375
0.8295440673828125,0.0439605712890625,-0.102264404296875
0.8736572265625,0.0628662109375,-0.1020660400390625
0.9116363525390624,0.1036529541015625,-0.045135498046875
0.930999755859375,0.15618896484375,-0.06134033203125
0.903045654296875,0.2147216796875,-0.1164093017578125
0.8632049560546875,0.2465362548828125,-0.1224822998046875
0.9481201171875,0.234649658203125,-0.1558990478515625
1.1262359619140625,0.1966552734375,-0.1920318603515625
1.195892333984375,0.1259765625,-0.15423583984375
1.34423828125,0.0286407470703125,-0.1917877197265625
1.3213958740234375,0.0383758544921875,-0.18328857421875
1.2165069580078125,0.0943450927734375,-0.3290252685546875
0.851104736328125,0.13330078125,-0.2623443603515625
0.9131622314453124,0.1529388427734375,-0.2516632080078125
1.13629150390625,0.1827239990234375,-0.220062255859375
1.330841064453125,0.1260223388671875,-0.1542205810546875
1.3028106689453125,0.056182861328125,-0.16748046875
1.1434478759765625,-6.103515625e-05,-0.1155242919921875
1.0321044921875,-0.0400238037109375,-0.0734405517578125
0.9991302490234376,-0.065765380859375,-0.070587158203125
0.9461517333984376,-0.0609130859375,-0.091064453125
0.844940185546875,-0.0277862548828125,-0.1121826171875
0.712615966796875,0.0078125,-0.133544921875
0.655303955078125,0.028594970703125,-0.100433349609375
0.770599365234375,0.0194244384765625,-0.0835113525390625
0.8999176025390625,0.0003509521484375,-0.0891571044921875
0.9638671875,0.00732421875,-0.039031982421875
1.3061370849609375,-0.000457763671875,0.0060272216796875
1.461029052734375,0.079864501953125,-0.054473876953125
1.32781982421875,0.139892578125,-0.2285003662109375
1.1608734130859375,0.1917877197265625,-0.270050048828125
1.0558929443359375,0.1744232177734375,-0.1605224609375
1.0425872802734375,0.031494140625,-0.0361175537109375
0.95306396484375,-0.028472900390625,0.0316925048828125
0.8378753662109375,-0.0380096435546875,0.0367279052734375
0.8957366943359375,0.0077667236328125,0.002838134765625
0.9654998779296876,0.1007537841796875,0.0015716552734375
0.9422149658203124,0.1896514892578125,0.0145721435546875
0.8944549560546875,0.2493133544921875,0.010955810546875
0.9358367919921876,0.2626190185546875,-0.035675048828125
0.9604339599609376,0.2640533447265625,-0.11517333984375
1.13201904296875,0.264190673828125,-0.2493438720703125
1.105133056640625,0.254974365234375,-0.28814697265625
1.3623809814453125,0.1685028076171875,-0.2617034912109375
1.39703369140625,0.1204986572265625,-0.2167205810546875
1.1739959716796875,0.1264495849609375,-0.3048858642578125
0.780853271484375,0.1356048583984375,-0.4106292724609375
0.81060791015625,0.1115570068359375,-0.4231719970703125
1.1318511962890625,0.128082275390625,-0.3300628662109375
1.4503173828125,0.0340728759765625,-0.2442626953125
1.4079742431640625,-0.0303802490234375,-0.24957275390625
1.155120849609375,-0.07470703125,-0.1688690185546875
1.050933837890625,-0.092193603515625,-0.1020050048828125
0.97265625,-0.04571533203125,-0.0736236572265625
0.8990325927734375,-0.002410888671875,-0.05035400390625
0.784881591796875,0.0418701171875,-0.09063720703125
0.6967620849609375,0.0621337890625,-0.114654541015625
0.665252685546875,0.0591888427734375,-0.118560791015625
0.7732696533203125,0.0307769775390625,-0.04815673828125
0.979583740234375,-0.00714111328125,-0.0483551025390625
0.891387939453125,0.005401611328125,-0.1064453125
1.15057373046875,-0.0332489013671875,-0.0780792236328125
1.1258697509765625,0.0210113525390625,-0.049652099609375
1.2206878662109375,0.0577850341796875,-0.102752685546875
1.197723388671875,0.1165618896484375,-0.1585235595703125
1.205169677734375,0.1502227783203125,-0.1842041015625
1.1704864501953125,0.1139984130859375,-0.1900634765625
0.9716033935546876,0.07177734375,-0.1692352294921875
0.782470703125,0.0817108154296875,-0.0813140869140625
0.844146728515625,0.0884246826171875,-0.0875701904296875
1.0532684326171875,0.12823486328125,-0.121826171875
1.17047119140625,0.2119140625,-0.128936767578125
1.1371612548828125,0.315673828125,-0.2389373779296875
0.8806304931640625,0.3703155517578125,-0.2441253662109375
0.887451171875,0.23724365234375,-0.2436370849609375
1.133148193359375,0.1382598876953125,-0.2228240966796875
1.1964263916015625,0.136871337890625,-0.0562591552734375
1.376190185546875,0.1298828125,-0.208251953125
1.2448272705078125,0.1924896240234375,-0.2559967041015625
1.00457763671875,0.2566375732421875,-0.2637176513671875
1.1143798828125,0.230255126953125,-0.2520904541015625
1.2863616943359375,0.1982421875,-0.1524658203125
1.41455078125,0.0949859619140625,-0.0624237060546875
1.38775634765625,-0.00341796875,-0.05963134765625
1.19195556640625,-0.04364013671875,-0.016265869140625
1.0537109375,-0.0597381591796875,0.01837158203125
0.958038330078125,-0.0424652099609375,-0.0159454345703125
0.8640289306640625,-0.0129241943359375,-0.045013427734375
0.7490234375,0.0219879150390625,-0.0719757080078125
0.6926727294921875,0.0386199951171875,-0.0909271240234375
0.6601409912109375,0.037811279296875,-0.0911102294921875
0.6787872314453125,0.0200653076171875,-0.0841522216796875
0.8105621337890625,-0.0095672607421875,-0.084991455078125
0.9483795166015624,-0.03118896484375,-0.012054443359375
1.368316650390625,-0.0497589111328125,0.096649169921875
1.4462127685546875,0.07220458984375,-0.0256195068359375
1.3849945068359375,0.1980438232421875,-0.355743408203125
1.3282470703125,0.35919189453125,-0.428558349609375
1.0589447021484375,0.4023895263671875,-0.1917877197265625
1.0662841796875,0.0308074951171875,-0.01513671875
1.079864501953125,-0.1489410400390625,0.0938873291015625
0.9509124755859376,-0.160797119140625,0.077606201171875
0.888641357421875,-0.0582733154296875,-0.004241943359375
0.8409881591796875,0.1076507568359375,-0.0155792236328125
0.99285888671875,0.2188568115234375,-0.02044677734375
0.9758453369140624,0.2944488525390625,-0.0644683837890625
0.871612548828125,0.32183837890625,-0.1212921142578125
0.9195709228515624,0.2987213134765625,-0.2008819580078125
1.146484375,0.268646240234375,-0.3423309326171875
1.4703521728515625,0.2668914794921875,-0.2944183349609375
1.544097900390625,0.2121124267578125,-0.2594451904296875
1.224090576171875,0.143310546875,-0.2579193115234375
0.921478271484375,0.072052001953125,-0.2098541259765625
1.0126800537109375,0.08880615234375,-0.2029571533203125
1.268218994140625,0.117706298828125,-0.195892333984375
1.39495849609375,0.0730133056640625,-0.1237640380859375
1.2289581298828125,0.0348968505859375,-0.07427978515625
1.151580810546875,-0.01483154296875,0.0045928955078125
1.1003570556640625,-0.0321197509765625,0.06756591796875
1.052703857421875,-0.0158538818359375,0.0634613037109375
0.95843505859375,0.00823974609375,0.046173095703125
0.81512451171875,0.03814697265625,0.0024871826171875
0.685302734375,0.0657806396484375,-0.0045928955078125
0.666046142578125,0.080169677734375,-0.0062408447265625
0.867889404296875,0.06121826171875,-0.02667236328125
0.8721771240234375,0.0587158203125,-0.06005859375
1.1256561279296875,0.00274658203125,-0.0582275390625
0.99468994140625,0.05059814453125,-0.1507720947265625
1.1475982666015625,0.0107574462890625,-0.0420074462890625
1.1704559326171875,0.0523223876953125,-0.12109375
1.3404693603515625,0.1253204345703125,-0.2165679931640625
1.30816650390625,0.1936187744140625,-0.209320068359375
1.088897705078125,0.1650390625,-0.1577606201171875
0.88909912109375,0.1031646728515625,-0.1244964599609375
0.865264892578125,0.05780029296875,-0.0623779296875
0.972442626953125,0.06842041015625,0.001373291015625
1.0930023193359375,0.1320953369140625,-0.0351104736328125
1.0544281005859375,0.22808837890625,-0.0901641845703125
0.9546661376953124,0.322723388671875,-0.17376708984375
0.87908935546875,0.4059600830078125,-0.2371673583984375
1.0293426513671875,0.37005615234375,-0.2725677490234375
1.2032623291015625,0.2918701171875,-0.22833251953125
1.342376708984375,0.196746826171875,-0.1683197021484375
1.3814239501953125,0.1742095947265625,-0.17529296875
1.16656494140625,0.2025299072265625,-0.25750732421875
0.9012908935546876,0.2391357421875,-0.180572509765625
1.0501861572265625,0.2440185546875,-0.1559295654296875
1.2922210693359375,0.239715576171875,-0.0579833984375
1.6254730224609375,0.163665771484375,-0.036773681640625
1.4455718994140625,0.1065673828125,0.0285491943359375
1.165069580078125,0.038177490234375,0.090850830078125
0.961151123046875,-0.0101318359375,0.058685302734375
0.8836212158203125,-0.0239105224609375,0.08245849609375
0.8612823486328125,-0.00604248046875,0.0372772216796875
0.80780029296875,0.02337646484375,-0.011138916015625
0.712921142578125,0.0708465576171875,-0.0460205078125
0.65911865234375,0.0854339599609375,-0.068328857421875
0.778411865234375,0.0574493408203125,-0.0461578369140625
0.8268890380859375,0.0308380126953125,-0.054534912109375
1.050079345703125,-0.003997802734375,0.0442352294921875
1.18121337890625,0.02044677734375,-0.008514404296875
1.297119140625,0.112030029296875,-0.189666748046875
1.355804443359375,0.1844482421875,-0.2418365478515625
1.117340087890625,0.3036346435546875,-0.225555419921875
1.0202789306640625,0.3069000244140625,-0.1723175048828125
1.187347412109375,0.0537872314453125,-0.0651397705078125
1.271636962890625,-0.0230255126953125,-0.029266357421875
1.112579345703125,-0.04425048828125,-0.049957275390625
0.870452880859375,0.0545196533203125,-0.0603179931640625
0.7718353271484375,0.1299285888671875,-0.0806427001953125
0.8629608154296875,0.181854248046875,-0.0605621337890625
0.9961395263671876,0.2278289794921875,-0.0631256103515625
1.0015869140625,0.23736572265625,-0.0532684326171875
0.9300537109375,0.22039794921875,-0.1236724853515625
0.86358642578125,0.2151031494140625,-0.17205810546875
1.0169525146484375,0.2148590087890625,-0.249542236328125
1.09161376953125,0.2016448974609375,-0.2146453857421875
1.438385009765625,0.1205291748046875,-0.1370849609375
1.6069183349609375,0.1390228271484375,-0.20050048828125
1.1674346923828125,0.2177886962890625,-0.300689697265625
0.7900543212890625,0.253509521484375,-0.19793701171875
1.0353546142578125,0.2589874267578125,-0.1780853271484375
1.247222900390625,0.22222900390625,-0.0702667236328125
1.375244140625,0.0856475830078125,-0.02587890625
1.1781768798828125,0.049652099609375,0.022247314453125
1.0932464599609375,0.013214111328125,0.0352935791015625
1.045257568359375,0.0114898681640625,0.0637054443359375
0.9839935302734376,0.0245361328125,0.077728271484375
0.920196533203125,0.02801513671875,0.06817626953125
0.822357177734375,0.0494537353515625,0.0411376953125
0.7212066650390625,0.06982421875,0.0130157470703125
0.732177734375,0.077728271484375,-0.0190582275390625
0.93206787109375,0.0613861083984375,-0.0237884521484375
1.0836639404296875,0.0345611572265625,0.0113372802734375
1.2626953125,-0.02813720703125,-0.0035552978515625
1.122650146484375,0.007965087890625,-0.10064697265625
0.9546966552734376,0.076202392578125,-0.19921875
1.0446319580078125,0.1498260498046875,-0.2995452880859375
1.1692352294921875,0.17486572265625,-0.2864227294921875
1.1544952392578125,0.1331634521484375,-0.1372528076171875
1.0330657958984375,0.063751220703125,-0.1156768798828125
0.9025421142578124,0.0089111328125,-0.1178131103515625
0.897216796875,0.00653076171875,-0.0851593017578125
0.96978759765625,0.0497283935546875,-0.0651397705078125
1.034027099609375,0.1037445068359375,-0.09149169921875
1.016357421875,0.1812744140625,-0.1248016357421875
0.9549713134765624,0.219512939453125,-0.163482666015625
0.9024505615234376,0.2279052734375,-0.18414306640625
1.0327301025390625,0.2142181396484375,-0.25689697265625
1.102935791015625,0.2310943603515625,-0.2628326416015625
1.1908111572265625,0.17144775390625,-0.124114990234375
1.393646240234375,0.133331298828125,-0.162353515625
1.40765380859375,0.21923828125,-0.2070159912109375
1.1005401611328125,0.27532958984375,-0.2261505126953125
0.963134765625,0.18316650390625,-0.1590118408203125
1.1154327392578125,0.1429901123046875,-0.11419677734375
1.2548828125,0.1081390380859375,-0.0641021728515625
1.2112579345703125,0.0521087646484375,-0.0345001220703125
1.0396728515625,0.045013427734375,0.01080322265625
0.9668426513671876,0.05096435546875,0.042083740234375
0.9511566162109376,0.0454864501953125,0.0337371826171875
0.949981689453125,0.0387115478515625,0.06170654296875
0.908294677734375,0.040924072265625,0.036651611328125
0.8568267822265625,0.046112060546875,0.0105438232421875
0.7519683837890625,0.0571746826171875,-0.02099609375
0.693756103515625,0.0725250244140625,-0.0649261474609375
0.819305419921875,0.07086181640625,-0.090240478515625
0.9607391357421876,0.0630035400390625,-0.0894775390625
1.250732421875,0.0197906494140625,-0.1334381103515625
1.064483642578125,0.0587921142578125,-0.1284332275390625
0.9851837158203124,0.050811767578125,-0.1642913818359375
1.06658935546875,0.0820770263671875,-0.2279205322265625
1.1770477294921875,0.155670166015625,-0.14227294921875
1.3026123046875,0.1578826904296875,-0.0993499755859375
1.26019287109375,0.071197509765625,-0.0944671630859375
1.11083984375,0.07012939453125,-0.124420166015625
0.8621063232421875,0.088836669921875,-0.1988677978515625
0.749664306640625,0.134613037109375,-0.18389892578125
0.8476104736328125,0.149505615234375,-0.1578216552734375
0.9394073486328124,0.1740875244140625,-0.17755126953125
1.02398681640625,0.1940155029296875,-0.181793212890625
0.9573822021484376,0.2170257568359375,-0.231719970703125
0.9017791748046876,0.2118072509765625,-0.225677490234375
1.11383056640625,0.1661529541015625,-0.233001708984375
1.0613250732421875,0.1380157470703125,-0.185302734375
1.188751220703125,0.068328857421875,-0.166900634765625
1.1595306396484375,0.113433837890625,-0.1682891845703125
1.3291778564453125,0.165283203125,-0.201141357421875
1.1315460205078125,0.2182159423828125,-0.208770751953125
0.973846435546875,0.231536865234375,-0.1710662841796875
1.072113037109375,0.177520751953125,-0.139892578125
1.1146240234375,0.1309967041015625,-0.06500244140625
1.150482177734375,0.0798492431640625,0.0018157958984375
1.0553131103515625,0.0441131591796875,0.0301971435546875
0.950653076171875,0.0319366455078125,0.0282440185546875
0.884185791015625,0.04632568359375,0.021087646484375
0.8502655029296875,0.058502197265625,0.03912353515625
0.8992156982421875,0.04119873046875,0.0269775390625
0.8596343994140625,0.0564422607421875,-0.022430419921875
0.812164306640625,0.0853729248046875,-0.09466552734375
0.7344207763671875,0.1131744384765625,-0.1351318359375
0.757720947265625,0.1017608642578125,-0.1880950927734375
0.989410400390625,0.0649566650390625,-0.2015533447265625
1.2209014892578125,0.025787353515625,-0.0877685546875
1.3675079345703125,0.0046844482421875,-0.0234375
1.406341552734375,-0.025909423828125,-0.1417694091796875
0.986663818359375,0.0551300048828125,-0.302001953125
0.6689453125,0.1874542236328125,-0.283050537109375
0.783599853515625,0.1866302490234375,-0.21649169921875
1.08819580078125,0.085845947265625,0.023773193359375
1.465850830078125,-0.00933837890625,-0.0975799560546875
1.0538787841796875,0.093536376953125,-0.142242431640625
0.8034515380859375,0.2015380859375,-0.2142181396484375
0.7714996337890625,0.2122039794921875,-0.2186431884765625
0.927642822265625,0.12518310546875,-0.0560302734375
0.9830474853515624,0.052459716796875,-0.086639404296875
0.83160400390625,0.0630950927734375,-0.1410675048828125
0.7803497314453125,0.0753936767578125,-0.2278900146484375
0.840362548828125,0.1094818115234375,-0.2390289306640625
1.0912628173828125,0.1113739013671875,-0.1671142578125
1.1615142822265625,0.0428924560546875,-0.1628570556640625
1.1187744140625,0.07379150390625,-0.23016357421875
1.252349853515625,0.1874847412109375,-0.36505126953125
1.2310791015625,0.3158111572265625,-0.335723876953125
1.0916290283203125,0.336944580078125,-0.3041839599609375
1.0676727294921875,0.184173583984375,-0.149261474609375
1.2271881103515625,0.089111328125,-0.1472625732421875
1.251373291015625,0.0373382568359375,-0.1334075927734375
1.0827789306640625,-0.0041046142578125,-0.167236328125
0.8032073974609375,0.001068115234375,-0.18597412109375
0.95806884765625,0.023529052734375,-0.1582183837890625
1.1486663818359375,0.052978515625,-0.0842742919921875
1.0703887939453125,0.053009033203125,-0.001251220703125
0.8731689453125,0.0507965087890625,-0.0134429931640625
0.7093963623046875,0.0635986328125,-0.09124755859375
0.7201080322265625,0.1077880859375,-0.063690185546875
0.8148040771484375,0.121307373046875,-0.1017608642578125
0.963287353515625,0.0783233642578125,-0.124969482421875
1.2757110595703125,-0.0274658203125,-0.011932373046875
1.2595977783203125,-0.0381011962890625,-0.0105133056640625
1.098297119140625,-0.0054779052734375,-0.1431121826171875
0.854156494140625,0.079437255859375,-0.2111053466796875
0.9432220458984376,0.115203857421875,-0.1439361572265625
1.2203216552734375,0.05718994140625,-0.0518951416015625
1.2050018310546875,0.091094970703125,-0.1257476806640625
0.91363525390625,0.1627960205078125,-0.1034393310546875
0.933197021484375,0.1237335205078125,-0.0485382080078125
1.084869384765625,0.10821533203125,-0.072052001953125
1.2489471435546875,0.0881500244140625,-0.1361083984375
1.1604461669921875,0.1011199951171875,-0.0833587646484375
0.923675537109375,0.0683441162109375,-0.007476806640625
0.951873779296875,0.0533447265625,-0.035552978515625
1.098968505859375,0.1328125,-0.1643829345703125
1.1662445068359375,0.3459320068359375,-0.268951416015625
1.2635650634765625,0.3982086181640625,-0.2950439453125
1.2294921875,0.4825897216796875,-0.3260955810546875
1.1504058837890625,0.5013885498046875,-0.3672332763671875
1.0544586181640625,0.2938995361328125,-0.28387451171875
1.026702880859375,0.29791259765625,-0.1982269287109375
1.1216278076171875,0.2658538818359375,-0.153106689453125
1.4958038330078125,0.0169525146484375,-0.1451263427734375
1.4160614013671875,-0.1049346923828125,-0.035308837890625
1.4945068359375,-0.133392333984375,0.0055389404296875
1.3241119384765625,-0.0936737060546875,0.0858612060546875
1.196075439453125,-0.0393829345703125,0.0941009521484375
1.01708984375,-0.0026397705078125,-0.0422515869140625
0.8188018798828125,0.0774993896484375,-0.1781158447265625
0.6775665283203125,0.173187255859375,-0.2273712158203125
0.6811676025390625,0.164306640625,-0.2126312255859375
0.828338623046875,0.0501251220703125,-0.147247314453125
1.12030029296875,-0.085418701171875,0.085052490234375
1.1085205078125,-0.1255035400390625,0.1103363037109375
0.9591827392578124,-0.043365478515625,-0.0858154296875
0.839141845703125,0.1251220703125,-0.18060302734375
0.9121856689453124,0.2051544189453125,-0.2114410400390625
0.906768798828125,0.1874542236328125,-0.162567138671875
0.95025634765625,0.0790557861328125,-0.0791168212890625
1.11041259765625,-0.048370361328125,0.110870361328125
1.358489990234375,-0.06195068359375,0.1979522705078125
1.6082763671875,0.12493896484375,0.0999298095703125
1.6482086181640625,0.41766357421875,0.1184844970703125
1.48992919921875,0.6151275634765625,-0.008514404296875
1.2388458251953125,0.707183837890625,-0.052734375
1.219879150390625,0.5763092041015625,-0.102203369140625
1.2726898193359375,0.542999267578125,-0.1634521484375
1.1914825439453125,0.6458740234375,-0.15966796875
1.0952301025390625,0.7513275146484375,-0.2744598388671875
1.120086669921875,0.707855224609375,-0.3147125244140625
1.141815185546875,0.604888916015625,-0.2307891845703125
1.167236328125,0.439697265625,-0.1183624267578125
1.47821044921875,0.2919769287109375,-0.1513214111328125
1.8694305419921875,0.1139068603515625,0.0173492431640625
1.86468505859375,-0.0360870361328125,0.145294189453125
1.6556549072265625,-0.1352691650390625,0.164276123046875
1.3523406982421875,-0.115264892578125,0.18359375
1.087158203125,-0.0200653076171875,0.107574462890625
0.9299468994140624,0.0718231201171875,0.046173095703125
0.8495330810546875,0.1296234130859375,-0.0442657470703125
0.8471832275390625,0.1395263671875,-0.03857421875
0.824432373046875,0.098419189453125,-0.0317840576171875
0.8118438720703125,0.031097412109375,-0.049285888671875
0.862396240234375,-0.0588531494140625,0.0147857666015625
1.024993896484375,-0.1390380859375,0.01971435546875
0.85174560546875,-0.0494537353515625,-0.1268463134765625
0.8372344970703125,0.0252227783203125,-0.1268310546875
1.26458740234375,0.08880615234375,-0.065948486328125
1.81005859375,0.17059326171875,-0.16241455078125
1.651214599609375,0.246551513671875,-0.2049407958984375
1.2083740234375,0.200927734375,0.0833740234375
1.136383056640625,0.0903167724609375,0.0414886474609375
1.4188995361328125,-0.0660552978515625,0.0466461181640625
1.4601593017578125,0.0529022216796875,0.1117706298828125
1.4332733154296875,0.1815338134765625,-0.004058837890625
1.2638702392578125,0.2557220458984375,-0.015045166015625
1.2586212158203125,0.301513671875,-0.047027587890625
1.2511138916015625,0.380859375,-0.1151275634765625
1.3184356689453125,0.4455413818359375,-0.1460723876953125
1.36383056640625,0.456390380859375,-0.14996337890625
1.192840576171875,0.405120849609375,-0.201141357421875
0.7761688232421875,0.3361053466796875,-0.1450042724609375
0.780853271484375,0.2669525146484375,-0.2516326904296875
1.0842742919921875,0.2777099609375,-0.265045166015625
1.432373046875,0.2113037109375,-0.257720947265625
1.5064697265625,0.14544677734375,-0.1397857666015625
1.5679931640625,0.0735015869140625,-0.045562744140625
1.5547332763671875,0.0257110595703125,0.045928955078125
1.4636077880859375,-0.0064697265625,0.098663330078125
1.3011932373046875,-0.0387115478515625,0.09112548828125
1.0430145263671875,-0.011749267578125,0.063018798828125
0.8081207275390625,0.0232086181640625,0.0484771728515625
0.7505950927734375,0.0313568115234375,0.0435333251953125
0.8729400634765625,0.0001678466796875,0.0391845703125
0.8885650634765625,-0.0142669677734375,0.0620574951171875
1.1800994873046875,-0.0677490234375,0.1108856201171875
1.099090576171875,-0.0089569091796875,0.093780517578125
1.016998291015625,0.0672454833984375,-0.0477142333984375
1.2028656005859375,0.147216796875,-0.1912384033203125
1.256439208984375,0.2061920166015625,-0.1016387939453125
1.0826263427734375,0.175628662109375,0.0043792724609375
0.9595794677734376,0.0938873291015625,-0.022735595703125
0.91796875,0.0527801513671875,0.006134033203125
1.05047607421875,0.0315093994140625,0.008331298828125
1.193328857421875,0.088104248046875,-0.0413818359375
1.1748199462890625,0.1654815673828125,-0.107086181640625
1.0595855712890625,0.1981201171875,-0.1046295166015625
1.0402984619140625,0.1688079833984375,-0.1694183349609375
1.19384765625,0.1786041259765625,-0.280792236328125
1.2491455078125,0.264312744140625,-0.3397369384765625
1.2979736328125,0.2648162841796875,-0.394622802734375
1.266876220703125,0.227386474609375,-0.3611907958984375
1.0557098388671875,0.1392974853515625,-0.3038482666015625
1.05462646484375,0.0763092041015625,-0.201202392578125
1.2934112548828125,0.07635498046875,-0.183990478515625
1.51580810546875,0.0532073974609375,-0.13922119140625
1.5508575439453125,0.010467529296875,-0.1097259521484375
1.3721160888671875,-0.027618408203125,-0.0194244384765625
1.2899169921875,-0.03082275390625,0.019744873046875
1.2716522216796875,-0.029327392578125,-0.0243377685546875
1.16851806640625,-0.0207977294921875,0.035064697265625
1.093017578125,-0.0250701904296875,0.06951904296875
0.8872222900390625,-0.0081634521484375,-0.06109619140625
0.6365966796875,0.0804443359375,-0.1291656494140625
0.6929779052734375,0.0726776123046875,-0.0780029296875
0.8125457763671875,-0.0055694580078125,-0.0482635498046875
0.94415283203125,-0.0677642822265625,0.0015716552734375
0.8903656005859375,-0.091552734375,-0.01605224609375
0.86175537109375,-0.0232696533203125,-0.2236480712890625
1.0246734619140625,0.0534820556640625,-0.2601470947265625
1.31182861328125,0.05047607421875,-0.140960693359375
1.39068603515625,-0.0197906494140625,-0.0184478759765625
1.3696746826171875,-0.0416107177734375,-0.014068603515625
1.1441802978515625,0.0565032958984375,-0.0197601318359375
1.0679931640625,0.10076904296875,-0.0103607177734375
1.2286834716796875,0.1555328369140625,0.0312957763671875
1.281463623046875,0.2115631103515625,-0.01318359375
1.1901397705078125,0.249359130859375,-0.06732177734375
1.078369140625,0.229095458984375,-0.0950469970703125
1.0492706298828125,0.2221527099609375,-0.1880645751953125
1.13397216796875,0.237091064453125,-0.3697509765625
1.20697021484375,0.2809295654296875,-0.399444580078125
1.1944580078125,0.247406005859375,-0.3877410888671875
1.12286376953125,0.1714630126953125,-0.2821502685546875
0.9676361083984376,0.0746612548828125,-0.23187255859375
0.89996337890625,-0.0030059814453125,-0.16510009765625
1.1918792724609375,-0.058258056640625,-0.173858642578125
1.55731201171875,-0.0319976806640625,-0.293670654296875
1.4432525634765625,-0.0035552978515625,-0.276580810546875
1.3397674560546875,-0.000457763671875,-0.24615478515625
1.27984619140625,-0.016876220703125,-0.203216552734375
1.123809814453125,-0.0536346435546875,-0.1437225341796875
0.929351806640625,-0.069732666015625,-0.13385009765625
0.7587127685546875,-0.0841064453125,-0.1419219970703125
0.6651153564453125,-0.0930023193359375,-0.0937957763671875
0.67230224609375,-0.0814971923828125,-0.09967041015625
0.8282470703125,-0.062042236328125,-0.1118927001953125
0.95233154296875,-0.0595550537109375,-0.0361785888671875
1.311065673828125,-0.07281494140625,0.038421630859375
1.30657958984375,0.024688720703125,0.0035552978515625
1.3144989013671875,0.097625732421875,-0.238037109375
1.2935791015625,0.16680908203125,-0.31781005859375
1.1637115478515625,0.1517333984375,-0.13458251953125
1.0797271728515625,0.032684326171875,0.0334930419921875
1.055145263671875,-0.0358428955078125,0.006927490234375
0.9105987548828124,-0.017303466796875,0.02655029296875
0.8795166015625,0.0518035888671875,0.0421600341796875
0.9658966064453124,0.11322021484375,0.017669677734375
1.073760986328125,0.19549560546875,-0.029754638671875
1.0609283447265625,0.2431488037109375,-0.104827880859375
0.948028564453125,0.2277069091796875,-0.11773681640625
0.8716888427734375,0.21478271484375,-0.2034759521484375
1.0254364013671875,0.209564208984375,-0.2656402587890625
1.2436065673828125,0.19744873046875,-0.1839141845703125
1.5016021728515625,0.1401519775390625,-0.2275543212890625
1.3092041015625,0.1459503173828125,-0.2788848876953125
0.9611663818359376,0.149078369140625,-0.338958740234375
0.8299407958984375,0.1313323974609375,-0.2797698974609375
1.0760040283203125,0.143157958984375,-0.22052001953125
1.41949462890625,0.11602783203125,-0.17132568359375
1.433013916015625,0.0295257568359375,-0.1104736328125
1.308441162109375,-0.0109100341796875,-0.14312744140625
1.24755859375,-0.032989501953125,-0.0492095947265625
1.183929443359375,-0.050537109375,0.014190673828125
1.0781707763671875,-0.04833984375,0.01373291015625
0.90155029296875,-0.034271240234375,-0.0374908447265625
0.7113189697265625,-0.007080078125,-0.0692138671875
0.623291015625,0.014251708984375,-0.05645751953125
0.68603515625,0.0070648193359375,-0.0535736083984375
0.8436431884765625,0.0118560791015625,-0.0706329345703125
0.9093475341796876,0.0196533203125,-0.04852294921875
1.173370361328125,-0.0088958740234375,0.0472259521484375
1.2722625732421875,0.0490264892578125,0.0281524658203125
1.315185546875,0.1181488037109375,-0.1342620849609375
1.4273529052734375,0.215576171875,-0.2020263671875
1.2454681396484375,0.272369384765625,-0.1165771484375
1.0289459228515625,0.1439666748046875,-0.0864715576171875
0.843841552734375,0.0302886962890625,-0.04180908203125
0.8110809326171875,0.004302978515625,0.0124664306640625
0.90814208984375,0.012847900390625,0.03033447265625
1.0829010009765625,0.0611419677734375,-0.0287933349609375
1.161590576171875,0.1600799560546875,-0.055511474609375
1.0619659423828125,0.218719482421875,-0.0619354248046875
0.9079742431640624,0.254302978515625,-0.0809783935546875
1.0084381103515625,0.22552490234375,-0.1955108642578125
1.2003631591796875,0.2672271728515625,-0.282135009765625
1.342803955078125,0.2434234619140625,-0.2356109619140625
1.325531005859375,0.1985626220703125,-0.291900634765625
1.1873931884765625,0.1699371337890625,-0.3761138916015625
1.004974365234375,0.1357879638671875,-0.295440673828125
1.220703125,0.11395263671875,-0.24346923828125
1.30706787109375,0.1098175048828125,-0.161773681640625
1.3899078369140625,0.024932861328125,-0.0826873779296875
1.2665863037109375,-0.0462493896484375,-0.0581512451171875
1.2082061767578125,-0.090179443359375,-0.041290283203125
1.1349334716796875,-0.0625,0.0316619873046875
1.0623016357421875,-0.013519287109375,0.0230865478515625
0.9705352783203124,0.0141448974609375,-0.0038299560546875
0.834197998046875,0.0484771728515625,-0.02996826171875
0.687744140625,0.0796051025390625,-0.04705810546875
0.6278076171875,0.0709381103515625,-0.067657470703125
0.7369384765625,0.034698486328125,-0.03173828125
0.8150787353515625,-0.0081939697265625,-0.0052947998046875
1.0926055908203125,-0.033172607421875,0.0597076416015625
1.1331787109375,0.00921630859375,0.0575103759765625
1.176788330078125,0.0957183837890625,-0.0595703125
1.3407135009765625,0.17236328125,-0.201202392578125
1.41619873046875,0.23834228515625,-0.1852569580078125
1.2378387451171875,0.2212982177734375,-0.072662353515625
1.1530303955078125,0.0767669677734375,-0.0615386962890625
1.0415191650390625,-0.0060577392578125,-0.028045654296875
1.014923095703125,-0.0068511962890625,0.0052947998046875
1.053558349609375,0.0428924560546875,-0.077789306640625
1.0655364990234375,0.1304168701171875,-0.1417388916015625
1.0724639892578125,0.1912384033203125,-0.185394287109375
0.9668731689453124,0.220733642578125,-0.223541259765625
0.8177337646484375,0.2297515869140625,-0.2520904541015625
1.00604248046875,0.19537353515625,-0.3270721435546875
1.279541015625,0.225250244140625,-0.2948455810546875
1.4270782470703125,0.201934814453125,-0.262115478515625
1.36456298828125,0.1435546875,-0.2483673095703125
1.190399169921875,0.1097259521484375,-0.2235260009765625
1.07867431640625,0.141265869140625,-0.137298583984375
1.28460693359375,0.1185760498046875,-0.1199951171875
1.3922576904296875,0.0654144287109375,0.008056640625
1.557098388671875,0.026763916015625,0.0116119384765625
1.35443115234375,0.0107879638671875,0.075897216796875
1.1633453369140625,0.0029754638671875,0.0984649658203125
1.0336456298828125,0.012603759765625,0.095306396484375
0.914947509765625,0.016937255859375,0.0871124267578125
0.793060302734375,0.0268096923828125,0.073455810546875
0.707763671875,0.034881591796875,0.028900146484375
0.63433837890625,0.0532989501953125,-0.0125885009765625
0.6198272705078125,0.0447235107421875,-0.026123046875
0.7907257080078125,0.0311126708984375,-0.03485107421875
0.9416961669921876,0.0093841552734375,-0.01947021484375
1.310272216796875,-0.0213470458984375,0.1092681884765625
1.5266571044921875,0.0096435546875,0.0567779541015625
1.3682098388671875,0.13458251953125,-0.27056884765625
1.3537445068359375,0.2725982666015625,-0.371917724609375
1.1620025634765625,0.4021759033203125,-0.23883056640625
1.025146484375,0.1320648193359375,-0.033599853515625
1.1407012939453125,-0.1025543212890625,0.0408782958984375
1.065887451171875,-0.0446929931640625,0.084747314453125
1.069915771484375,0.0372161865234375,0.0117034912109375
1.0247650146484375,0.134735107421875,-0.0535125732421875
1.0890960693359375,0.2122955322265625,-0.08343505859375
0.972747802734375,0.273834228515625,-0.107635498046875
0.8318939208984375,0.2894439697265625,-0.123779296875
0.8359832763671875,0.26934814453125,-0.1699371337890625
1.0723876953125,0.24017333984375,-0.2784576416015625
1.131988525390625,0.274749755859375,-0.286956787109375
1.2411346435546875,0.19207763671875,-0.2378997802734375
1.3009033203125,0.1470794677734375,-0.24517822265625
1.2272491455078125,0.14874267578125,-0.2967681884765625
1.0073089599609375,0.1388092041015625,-0.1825103759765625
1.2016448974609375,0.1199493408203125,-0.1481781005859375
1.4385833740234375,0.110748291015625,-0.079559326171875
1.591552734375,0.0355224609375,-0.0099945068359375
1.448394775390625,0.0084228515625,0.00299072265625
1.2881927490234375,-0.009552001953125,0.0524444580078125
1.1468353271484375,-0.02423095703125,0.085235595703125
0.99920654296875,-0.0078887939453125,0.0691070556640625
0.8588409423828125,0.001190185546875,0.0186004638671875
0.7498779296875,0.0344390869140625,0.0532379150390625
0.6638946533203125,0.03607177734375,-0.0527801513671875
0.5419769287109375,0.0576019287109375,-0.0512542724609375
0.5613861083984375,0.0421142578125,-0.065093994140625
0.7442626953125,0.004852294921875,-0.0463714599609375
1.0120086669921875,0.002197265625,-0.0679473876953125
1.3469085693359375,0.00982666015625,0.0160064697265625
1.4803009033203125,0.055511474609375,-0.0468597412109375
1.53338623046875,0.0824127197265625,-0.2000732421875
1.4416961669921875,0.240234375,-0.1825714111328125
1.0731658935546875,0.284759521484375,-0.0651397705078125
1.16375732421875,-0.0784912109375,0.00457763671875
1.1925048828125,-0.0212554931640625,0.09161376953125
1.0864410400390625,0.0455169677734375,0.0794219970703125
0.9276123046875,0.102691650390625,0.0043792724609375
0.8727569580078125,0.2273712158203125,-0.0453338623046875
1.040985107421875,0.241912841796875,-0.045074462890625
1.0599212646484375,0.2788543701171875,-0.04925537109375
0.9283447265625,0.30438232421875,-0.08538818359375
0.9588775634765624,0.265960693359375,-0.264556884765625
1.0720367431640625,0.268218994140625,-0.269317626953125
1.3727264404296875,0.2880096435546875,-0.253021240234375
1.5875701904296875,0.2441558837890625,-0.2417449951171875
1.1541900634765625,0.1884918212890625,-0.294769287109375
0.84088134765625,0.1451263427734375,-0.2658538818359375
1.0000152587890625,0.163482666015625,-0.1262054443359375
1.4288787841796875,0.1310882568359375,-0.095916748046875
1.5162811279296875,0.0697174072265625,-0.07666015625
1.3874664306640625,0.0488433837890625,-0.0642547607421875
1.2624969482421875,0.02239990234375,0.0435791015625
1.1346435546875,-0.0267486572265625,0.0887603759765625
1.0763397216796875,-0.0529327392578125,0.0416259765625
0.9768524169921876,-0.0477447509765625,0.027008056640625
0.8231964111328125,-0.01519775390625,-0.0459136962890625
0.5870513916015625,0.0493316650390625,-0.1028594970703125
0.541656494140625,0.064239501953125,-0.088836669921875
0.6821746826171875,0.02191162109375,-0.0406341552734375
0.7885589599609375,0.00531005859375,-0.0902862548828125
1.015625,0.003662109375,-0.06158447265625
1.1157989501953125,0.002838134765625,0.0511016845703125
1.50604248046875,0.0277557373046875,0.0819549560546875
1.72119140625,0.13812255859375,-0.11187744140625
1.5940704345703125,0.29547119140625,-0.1630096435546875
1.2102508544921875,0.4971771240234375,-0.195343017578125
1.0673980712890625,0.1599578857421875,-0.1169586181640625
1.0951690673828125,-0.0136260986328125,-0.05999755859375
1.035552978515625,-0.0098419189453125,0.0146026611328125
1.060882568359375,0.016754150390625,-0.101959228515625
0.9997711181640624,0.1090240478515625,-0.243865966796875
0.9041748046875,0.2662353515625,-0.3468780517578125
0.92938232421875,0.4461669921875,-0.401519775390625
0.988372802734375,0.5305633544921875,-0.3896636962890625
0.9279327392578124,0.273712158203125,-0.3177490234375
0.9253387451171876,0.1014251708984375,-0.2931060791015625
1.0820770263671875,-0.0357208251953125,-0.2717132568359375
1.1479949951171875,-0.069061279296875,-0.10528564453125
1.4072113037109375,-0.09039306640625,-0.2104034423828125
1.48077392578125,0.0179443359375,-0.13006591796875
1.5191497802734375,0.0775604248046875,-0.1065673828125
1.3325042724609375,0.1381378173828125,-0.0976409912109375
1.307373046875,0.1623382568359375,-0.0694732666015625
1.3212738037109375,0.1490325927734375,-0.028717041015625
1.248138427734375,0.0805511474609375,0.08526611328125
1.0950927734375,0.0110015869140625,0.0511932373046875
0.9118804931640624,-0.006988525390625,0.033935546875
0.76104736328125,-0.021881103515625,0.094329833984375
0.645172119140625,-0.0244293212890625,0.1077117919921875
0.610870361328125,0.001708984375,0.113555908203125
0.6435394287109375,0.006072998046875,0.0878448486328125
0.6201019287109375,0.0500030517578125,0.0388336181640625
0.58697509765625,0.111846923828125,0.016021728515625
0.73828125,0.1038818359375,0.0361175537109375
1.0231781005859375,0.0779876708984375,0.0209503173828125
1.5004730224609375,0.1300811767578125,0.063568115234375
2.218841552734375,0.1957550048828125,0.02337646484375
2.26422119140625,0.436981201171875,-0.2635650634765625
1.2703399658203125,0.6593780517578125,-0.2760772705078125
0.99072265625,0.0474853515625,-0.1720428466796875
1.1066436767578125,-0.1840362548828125,0.032958984375
1.0027618408203125,-0.0829620361328125,0.0151519775390625
0.8505706787109375,-0.015045166015625,-0.1405792236328125
0.6435546875,0.021484375,-0.1425323486328125
0.690399169921875,0.0946502685546875,-0.1329498291015625
0.8616485595703125,0.1461029052734375,-0.0984954833984375
0.916229248046875,0.2205810546875,-0.0952606201171875
0.954742431640625,0.2661895751953125,-0.11279296875
0.9768524169921876,0.274993896484375,-0.23095703125
1.1624298095703125,0.257415771484375,-0.388214111328125
1.2953033447265625,0.213714599609375,-0.2789154052734375
1.4274444580078125,0.1128082275390625,-0.246551513671875
1.2511138916015625,0.1158905029296875,-0.1715087890625
1.097259521484375,0.146514892578125,-0.1924591064453125
1.1765289306640625,0.16900634765625,-0.1736602783203125
1.3563995361328125,0.1902923583984375,-0.0802764892578125
1.4743194580078125,0.0868377685546875,0.0453338623046875
1.40521240234375,-0.01739501953125,0.0598907470703125
1.21759033203125,-0.0336151123046875,0.0469207763671875
1.0981597900390625,-0.0121002197265625,0.0367889404296875
0.9677276611328124,0.028472900390625,0.0543060302734375
0.8639373779296875,0.044342041015625,0.038665771484375
0.7626800537109375,-0.001007080078125,0.012969970703125
0.6845550537109375,-0.0356903076171875,-0.0118408203125
0.6133575439453125,-0.0425262451171875,0.0017547607421875
0.7001190185546875,-0.053314208984375,0.004730224609375
0.8255615234375,-0.05224609375,0.075164794921875
1.183013916015625,-0.0310516357421875,0.11962890625
1.3009490966796875,0.0811920166015625,0.10113525390625
1.49267578125,0.1805877685546875,-0.0797271728515625
1.7637481689453125,0.3120574951171875,-0.3863067626953125
1.5434417724609375,0.440277099609375,-0.252899169921875
1.0904998779296875,0.3234405517578125,-0.05584716796875
0.9777069091796876,-0.043365478515625,-0.0112762451171875
0.89495849609375,-0.049346923828125,0.1043548583984375
1.003936767578125,-0.0317840576171875,0.0573577880859375
1.0848541259765625,0.0512542724609375,0.0149688720703125
1.0925140380859375,0.1909027099609375,-0.0149383544921875
0.996917724609375,0.2877197265625,-0.0521392822265625
0.8016510009765625,0.3384246826171875,-0.0479278564453125
0.854522705078125,0.3439788818359375,-0.2105560302734375
1.110076904296875,0.4182281494140625,-0.347991943359375
1.34368896484375,0.3429718017578125,-0.23992919921875
1.5013885498046875,0.2364501953125,-0.2491302490234375
1.3187103271484375,0.199462890625,-0.3579864501953125
1.016204833984375,0.0880889892578125,-0.1766510009765625
1.29193115234375,0.115936279296875,-0.1587677001953125
1.5906829833984375,0.11285400390625,-0.09454345703125
1.5837860107421875,-0.0354156494140625,-0.0653533935546875
1.440460205078125,-0.069610595703125,-0.068695068359375
1.3447418212890625,-0.077880859375,-0.01129150390625
1.1940765380859375,-0.03509521484375,0.0463714599609375
1.0267486572265625,0.000701904296875,0.0508270263671875
0.8446197509765625,0.0050811767578125,0.042724609375
0.674652099609375,0.025146484375,0.0100860595703125
0.5649871826171875,0.0535736083984375,-0.0192108154296875
0.6056060791015625,0.0547637939453125,-0.0111083984375
0.7883148193359375,0.020263671875,0.056671142578125
1.105194091796875,-0.0400238037109375,0.1184844970703125
1.2074432373046875,-0.032073974609375,0.0572509765625
1.0416717529296875,0.0692291259765625,-0.082061767578125
1.3364715576171875,0.113128662109375,-0.096710205078125
1.6905517578125,0.210205078125,-0.1759796142578125
1.4300689697265625,0.253448486328125,-0.1256103515625
1.0876617431640625,0.141143798828125,-0.1297607421875
0.92889404296875,0.09820556640625,-0.099334716796875
0.952484130859375,0.0361175537109375,0.00921630859375
1.1393585205078125,-0.0150299072265625,0.0083770751953125
1.2390594482421875,0.0433502197265625,-0.110076904296875
1.241729736328125,0.1643218994140625,-0.209930419921875
1.1018218994140625,0.2778167724609375,-0.19732666015625
0.9554595947265624,0.34881591796875,-0.2530670166015625
1.0562286376953125,0.2799530029296875,-0.371978759765625
1.11639404296875,0.169219970703125,-0.26055908203125
1.32159423828125,0.0977935791015625,-0.24005126953125
1.3462982177734375,0.079193115234375,-0.209228515625
1.323883056640625,0.094329833984375,-0.3744354248046875
0.9567413330078124,0.14111328125,-0.289886474609375
1.1180877685546875,0.157623291015625,-0.2633514404296875
1.4768829345703125,0.1290740966796875,-0.1712646484375
1.6386871337890625,0.0146026611328125,0.0084381103515625
1.5196380615234375,-0.03662109375,0.0093994140625
1.34625244140625,-0.08331298828125,0.02587890625
1.1483306884765625,-0.0659027099609375,0.06561279296875
1.0329437255859375,-0.0295867919921875,0.003936767578125
0.8674774169921875,0.132659912109375,-0.09185791015625
0.7266693115234375,0.048126220703125,-0.0872039794921875
0.63079833984375,-0.0140533447265625,-0.0276336669921875
0.6611785888671875,-0.086395263671875,0.02838134765625
0.7252349853515625,-0.1079254150390625,0.0238037109375
0.9398956298828124,-0.110565185546875,-0.0045318603515625
1.017547607421875,-0.0255889892578125,0.0101165771484375
1.231353759765625,0.0438995361328125,-0.0184326171875
1.4151458740234375,0.14849853515625,-0.1493072509765625
1.65264892578125,0.2405242919921875,-0.17547607421875
1.4639892578125,0.2514495849609375,-0.0709075927734375
1.1475830078125,0.161163330078125,-0.1012115478515625
1.0286865234375,-0.0014190673828125,-0.092132568359375
0.98797607421875,0.059967041015625,0.0467071533203125
1.1088104248046875,0.040069580078125,0.0475311279296875
1.0862884521484375,0.11639404296875,0.0287933349609375
1.0982666015625,0.185699462890625,-0.0210418701171875
1.0005645751953125,0.2306060791015625,-0.011260986328125
0.921875,0.26251220703125,-0.0591888427734375
1.085205078125,0.29150390625,-0.190582275390625
1.3255157470703125,0.34942626953125,-0.2697296142578125
1.44818115234375,0.40625,-0.2935638427734375
1.2182769775390625,0.3209381103515625,-0.3097991943359375
0.9559173583984376,0.1725921630859375,-0.310821533203125
0.9075164794921876,0.0651397705078125,-0.2251739501953125
1.16546630859375,0.0236968994140625,-0.1610260009765625
1.3889617919921875,0.0172119140625,-0.1822662353515625
1.389434814453125,0.005462646484375,-0.22174072265625
1.4044952392578125,0.02703857421875,-0.22491455078125
1.4232025146484375,0.0200042724609375,-0.1305999755859375
1.3455352783203125,0.042999267578125,-0.070343017578125
1.1717376708984375,-0.0383758544921875,-0.0039825439453125
0.9586181640625,-0.102752685546875,-0.0038299560546875
0.747039794921875,-0.095062255859375,-0.0436248779296875
0.6448974609375,-0.07183837890625,-0.0718231201171875
0.6968231201171875,-0.0662689208984375,-0.056732177734375
0.7471923828125,-0.0226287841796875,-0.0656585693359375
0.72308349609375,-0.005615234375,-0.0478363037109375
1.0668182373046875,-0.05389404296875,0.0274658203125
1.0439300537109375,-0.0110931396484375,0.093536376953125
1.219573974609375,0.055755615234375,0.0366058349609375
1.4649658203125,0.15130615234375,-0.073577880859375
1.6595001220703125,0.26416015625,-0.08245849609375
1.3674163818359375,0.303436279296875,-0.0576019287109375
1.087860107421875,0.163177490234375,-0.095672607421875
1.009674072265625,0.09979248046875,-0.06427001953125
1.01702880859375,0.067535400390625,0.0214385986328125
1.0810699462890625,0.0588226318359375,0.0323028564453125
1.1197662353515625,0.0884552001953125,-0.050750732421875
1.0881195068359375,0.133392333984375,-0.0865325927734375
0.966033935546875,0.1772003173828125,-0.085906982421875
0.8859100341796875,0.213348388671875,-0.146514892578125
1.0793609619140625,0.198272705078125,-0.2384796142578125
1.4234619140625,0.242828369140625,-0.2938079833984375
1.51995849609375,0.266754150390625,-0.2454681396484375
1.30902099609375,0.1713714599609375,-0.2940826416015625
0.841522216796875,0.0997772216796875,-0.268035888671875
0.7351531982421875,0.060943603515625,-0.2288055419921875
1.1605682373046875,0.1030426025390625,-0.211639404296875
1.540985107421875,0.089111328125,-0.2111968994140625
1.4160919189453125,0.040008544921875,-0.14300537109375
1.2260284423828125,-0.0193634033203125,-0.0547027587890625
1.1210174560546875,-0.0507965087890625,0.027984619140625
1.0677337646484375,-0.053680419921875,0.017486572265625
0.9835357666015624,-0.020721435546875,0.021209716796875
0.8491668701171875,0.00634765625,-0.0266571044921875
0.7052764892578125,0.03826904296875,-0.0583953857421875
0.67510986328125,0.0450592041015625,-0.0711669921875
0.85150146484375,0.027923583984375,-0.0523529052734375
0.9193878173828124,-0.0147857666015625,-0.0381927490234375
1.1578369140625,-0.0623321533203125,0.0214996337890625
1.0911102294921875,-0.034515380859375,0.0169677734375
1.1153564453125,0.0399627685546875,-0.0716552734375
1.317840576171875,0.103851318359375,-0.15692138671875
1.4831085205078125,0.14215087890625,-0.121063232421875
1.340087890625,0.12176513671875,-0.075347900390625
1.0428009033203125,0.0836334228515625,-0.1075592041015625
0.8341827392578125,0.0806884765625,-0.1126708984375
0.8186187744140625,0.0684356689453125,-0.068084716796875
0.9323577880859376,0.0865325927734375,-0.0472259521484375
1.0556182861328125,0.12127685546875,-0.0640869140625
1.0276031494140625,0.1604156494140625,-0.0660552978515625
0.8831329345703125,0.1942138671875,-0.1077880859375
0.8855743408203125,0.2156829833984375,-0.187103271484375
1.0833892822265625,0.2546844482421875,-0.24652099609375
1.477935791015625,0.2518463134765625,-0.243255615234375
1.4170074462890625,0.1922454833984375,-0.181488037109375
1.240814208984375,0.113861083984375,-0.2391815185546875
0.98162841796875,0.1252899169921875,-0.260467529296875
0.91448974609375,0.1325225830078125,-0.236968994140625
1.1140289306640625,0.145294189453125,-0.2830047607421875
1.2167205810546875,0.1367950439453125,-0.2132110595703125
1.1588592529296875,0.075531005859375,-0.1286773681640625
1.140960693359375,0.015594482421875,-0.1295166015625
1.1061248779296875,-0.0366973876953125,-0.0800018310546875
1.022247314453125,-0.0622100830078125,0.005096435546875
0.9865264892578124,-0.0565032958984375,0.02166748046875
0.9108428955078124,-0.0464630126953125,0.0277252197265625
0.8105621337890625,-0.0032958984375,0.0339813232421875
0.7573394775390625,0.0401611328125,0.00665283203125
0.8265838623046875,0.06207275390625,-0.020904541015625
0.875152587890625,0.060394287109375,-0.084716796875
0.9622344970703124,0.068328857421875,-0.0652923583984375
1.3086090087890625,-0.015777587890625,-0.0363311767578125
1.15966796875,0.0281524658203125,-0.0239105224609375
1.099639892578125,0.0601348876953125,-0.05596923828125
1.3369293212890625,0.1055755615234375,-0.159881591796875
1.34039306640625,0.1670989990234375,-0.158355712890625
1.0446929931640625,0.1639556884765625,-0.0677337646484375
0.820953369140625,0.1217803955078125,-0.0550079345703125
0.907135009765625,0.0615386962890625,-0.1113739013671875
1.0285186767578125,0.021240234375,-0.07073974609375
1.1703338623046875,0.00579833984375,-0.122772216796875
1.0948944091796875,0.0453033447265625,-0.2221832275390625
0.962921142578125,0.0858306884765625,-0.255859375
0.924713134765625,0.105560302734375,-0.24456787109375
1.052581787109375,0.1320037841796875,-0.30706787109375
1.21600341796875,0.1678466796875,-0.23541259765625
1.4181365966796875,0.1789398193359375,-0.24151611328125
1.3897247314453125,0.210968017578125,-0.2766571044921875
1.0999908447265625,0.14947509765625,-0.184783935546875
1.082611083984375,0.0879974365234375,-0.076202392578125
1.3299407958984375,0.104034423828125,-0.0261993408203125
1.39874267578125,0.0928192138671875,-0.0271759033203125
1.21539306640625,0.0557708740234375,0.00408935546875
1.122039794921875,0.031158447265625,-0.00048828125
1.0909576416015625,0.0377044677734375,0.0211181640625
1.03759765625,0.0384521484375,0.04388427734375
0.925872802734375,0.0315093994140625,0.0326385498046875
0.76947021484375,0.016632080078125,0.0050048828125
0.6319732666015625,0.029144287109375,-0.01153564453125
0.6667633056640625,0.03033447265625,-0.0516204833984375
0.8369598388671875,0.04107666015625,-0.084014892578125
0.915557861328125,0.0122222900390625,-0.0602569580078125
1.3549957275390625,-0.0754547119140625,0.032135009765625
1.214202880859375,-0.03485107421875,0.009307861328125
1.1757354736328125,0.01788330078125,-0.122833251953125
1.4051666259765625,0.05718994140625,-0.1889495849609375
1.40069580078125,0.153839111328125,-0.099700927734375
1.2170867919921875,0.128631591796875,-0.0576019287109375
0.9925689697265624,0.067047119140625,-0.0916900634765625
0.8636627197265625,0.0560455322265625,-0.1063690185546875
0.890228271484375,0.0576324462890625,-0.087493896484375
0.9184722900390624,0.06390380859375,-0.0645751953125
1.0207672119140625,0.0775146484375,-0.12860107421875
1.0422515869140625,0.1050872802734375,-0.1702880859375
0.9309844970703124,0.09429931640625,-0.1435546875
0.90911865234375,0.12200927734375,-0.1906890869140625
1.09722900390625,0.164093017578125,-0.218658447265625
1.580596923828125,0.1836700439453125,-0.2779541015625
1.4149932861328125,0.2344970703125,-0.2016754150390625
1.0770721435546875,0.1935272216796875,-0.2621307373046875
0.7927093505859375,0.139404296875,-0.168853759765625
0.9887542724609376,0.1588592529296875,-0.10308837890625
1.3777923583984375,0.1836395263671875,-0.05908203125
1.5363006591796875,0.11920166015625,-0.107879638671875
1.324737548828125,0.083099365234375,-0.0492095947265625
1.2173919677734375,0.020660400390625,-0.011627197265625
1.1840667724609375,0.0013580322265625,0.034027099609375
1.146484375,-0.03131103515625,-0.0034027099609375
1.04168701171875,-0.06060791015625,-0.0351104736328125
0.8876495361328125,-0.0660858154296875,-0.0979766845703125
0.7529449462890625,-0.03948974609375,-0.1180419921875
0.692535400390625,-0.0254974365234375,-0.1531982421875
0.7509307861328125,-0.0433197021484375,-0.1890716552734375
0.70208740234375,-0.0721282958984375,-0.2127532958984375
0.9820098876953124,-0.1406402587890625,-0.0770416259765625
1.0152587890625,-0.1270599365234375,0.032318115234375
1.2380523681640625,-0.0093231201171875,-0.0006866455078125
1.59912109375,0.102203369140625,0.022552490234375
1.6731109619140625,0.1956329345703125,-0.035614013671875
1.326751708984375,0.177886962890625,0.0442047119140625
1.067718505859375,0.148406982421875,0.0258941650390625
1.0455322265625,0.142852783203125,0.0308837890625
1.0496063232421875,0.1055908203125,0.08245849609375
1.11968994140625,0.0958709716796875,0.0876007080078125
1.2170867919921875,0.1253814697265625,0.081512451171875
1.1219024658203125,0.1810455322265625,0.0353546142578125
0.9969635009765624,0.2296142578125,-0.0514068603515625
0.992340087890625,0.24688720703125,-0.1993560791015625
1.060638427734375,0.29840087890625,-0.3200225830078125
1.256195068359375,0.340789794921875,-0.406646728515625
1.1406097412109375,0.302032470703125,-0.3986968994140625
1.0144500732421875,0.25799560546875,-0.391326904296875
1.08843994140625,0.1437530517578125,-0.30224609375
1.1690673828125,0.08233642578125,-0.1531524658203125
1.306243896484375,0.02740478515625,-0.124847412109375
1.4893341064453125,-0.02105712890625,-0.1437835693359375
1.446136474609375,-0.021820068359375,-0.1871490478515625
1.4044036865234375,-0.0421142578125,-0.17718505859375
1.42352294921875,-0.063507080078125,-0.143157958984375
1.279022216796875,-0.0593109130859375,-0.120269775390625
1.0643768310546875,-0.074066162109375,-0.1729888916015625
0.871734619140625,-0.09521484375,-0.24993896484375
0.7315826416015625,-0.0923309326171875,-0.2292327880859375
0.6641693115234375,-0.0764312744140625,-0.1842498779296875
0.696044921875,-0.0905609130859375,-0.14520263671875
0.76702880859375,-0.1058807373046875,-0.0757293701171875
1.045013427734375,-0.0952911376953125,-0.0157470703125
1.00750732421875,-0.014984130859375,0.0018463134765625
1.1923980712890625,0.0611419677734375,-0.07989501953125
1.5011444091796875,0.1269378662109375,-0.124786376953125
1.5191497802734375,0.1681671142578125,0.00872802734375
1.232879638671875,0.094482421875,0.0820465087890625
1.0539398193359375,0.01422119140625,-0.0272369384765625
1.0254974365234375,0.064697265625,-0.00079345703125
1.10467529296875,0.1213226318359375,0.044891357421875
1.100341796875,0.1709136962890625,0.05242919921875
1.1107177734375,0.195465087890625,0.1310882568359375
1.1732330322265625,0.14013671875,0.141845703125
1.03778076171875,0.179901123046875,0.060882568359375
0.9256134033203124,0.273345947265625,0.008819580078125
1.1493988037109375,0.2923736572265625,-0.1033935546875
1.289398193359375,0.2828826904296875,-0.127105712890625
1.36688232421875,0.2726898193359375,-0.2055511474609375
1.2348480224609375,0.2657318115234375,-0.3481597900390625
0.99774169921875,0.26788330078125,-0.484405517578125
0.797698974609375,0.2143402099609375,-0.383209228515625
1.004669189453125,0.1476287841796875,-0.2691650390625
1.160125732421875,0.115936279296875,-0.1548614501953125
1.27783203125,0.0617828369140625,-0.172210693359375
1.26593017578125,-0.0233154296875,-0.1937408447265625
1.244598388671875,-0.068023681640625,-0.1906280517578125
1.3555450439453125,-0.0933380126953125,-0.1643829345703125
1.3294219970703125,-0.085052490234375,-0.102325439453125
1.1886749267578125,-0.0624237060546875,-0.11090087890625
1.01800537109375,-0.0540618896484375,-0.170257568359375
0.8886260986328125,-0.0300140380859375,-0.1473541259765625
0.819244384765625,-0.02191162109375,-0.112396240234375
0.8811798095703125,-0.0292510986328125,-0.12725830078125
0.8383026123046875,-0.02825927734375,-0.081512451171875
1.12420654296875,-0.077423095703125,0.0123291015625
1.019134521484375,-0.0290985107421875,0.05731201171875
0.930511474609375,0.049102783203125,-0.020843505859375
1.0655364990234375,0.0982208251953125,-0.12176513671875
1.2451629638671875,0.1859588623046875,-0.10980224609375
1.2518463134765625,0.176239013671875,0.0483551025390625
1.0300750732421875,0.1285400390625,0.0841064453125
0.952667236328125,0.0835418701171875,0.0199737548828125
1.08905029296875,0.072662353515625,0.0475921630859375
1.2996826171875,0.099639892578125,0.0452423095703125
1.3481292724609375,0.153533935546875,-0.000885009765625
1.209686279296875,0.2060699462890625,-0.0964202880859375
1.070159912109375,0.2242279052734375,-0.1613922119140625
1.01190185546875,0.1851654052734375,-0.19683837890625
1.145904541015625,0.14886474609375,-0.21136474609375
1.1918487548828125,0.176605224609375,-0.180511474609375
1.3544921875,0.242431640625,-0.2994537353515625
1.2314300537109375,0.3773040771484375,-0.3771820068359375
0.99713134765625,0.3956298828125,-0.3336334228515625
0.995574951171875,0.2600250244140625,-0.199798583984375
1.16717529296875,0.22998046875,-0.0689239501953125
1.4602508544921875,0.14630126953125,0.0287322998046875
1.6525115966796875,0.216827392578125,-0.11981201171875
1.4482269287109375,0.32440185546875,0.006591796875
1.46075439453125,0.0826873779296875,0.1846923828125
1.39373779296875,-0.0596160888671875,0.2924652099609375
1.193756103515625,-0.1142578125,0.207794189453125
0.99493408203125,-0.1416015625,0.0959625244140625
0.801483154296875,-0.076568603515625,0.0139617919921875
0.650604248046875,0.0985565185546875,-0.1779022216796875
0.7901153564453125,0.4245758056640625,-0.5507659912109375
0.8648681640625,0.1691436767578125,-0.6090545654296875
0.57452392578125,-0.23712158203125,-0.3689727783203125
0.6571044921875,-0.446319580078125,-0.5301361083984375
0.6466064453125,-0.3786163330078125,-0.6280059814453125
0.849853515625,-0.0720672607421875,-0.7181243896484375
0.9711151123046876,0.1275787353515625,-0.74053955078125
0.8217010498046875,0.004974365234375,-0.6616668701171875
0.6964111328125,0.038787841796875,-0.6702117919921875
0.4134063720703125,0.0454559326171875,-0.6380157470703125
0.4366455078125,0.051300048828125,-0.5912322998046875
0.433837890625,0.1007537841796875,-0.6135101318359375
0.499359130859375,0.0156707763671875,-0.6342620849609375
0.5902862548828125,0.05712890625,-0.728729248046875
0.54901123046875,0.13665771484375,-0.7682037353515625
0.5802001953125,0.1842193603515625,-0.8519439697265625
0.69830322265625,0.154449462890625,-0.8610076904296875
0.74749755859375,0.134735107421875,-0.690277099609375
1.0212860107421875,0.1591644287109375,-0.58038330078125
1.1169281005859375,0.188629150390625,-0.5356292724609375
0.8816070556640625,0.1776123046875,-0.3560028076171875
0.9311676025390624,0.17352294921875,-0.2279052734375
1.003509521484375,0.1565399169921875,-0.1876373291015625
1.060882568359375,0.172088623046875,-0.167083740234375
0.942657470703125,0.143463134765625,-0.122039794921875
0.854705810546875,0.13323974609375,-0.08538818359375
0.857574462890625,0.10687255859375,-0.0673065185546875
0.942657470703125,0.096954345703125,-0.03790283203125
1.0471343994140625,0.0867767333984375,0.0166473388671875
1.189483642578125,0.090057373046875,0.0493011474609375
1.2368621826171875,0.1233673095703125,0.1051788330078125
1.223907470703125,0.156585693359375,0.142730712890625
1.3193817138671875,0.1830596923828125,0.13714599609375
1.296875,0.2227630615234375,0.147979736328125
1.35809326171875,0.2701568603515625,0.1829376220703125
1.2718048095703125,0.26751708984375,0.2028961181640625
1.0799407958984375,0.258575439453125,0.1158599853515625
0.887939453125,0.2470703125,0.006256103515625
0.9421234130859376,0.1906280517578125,-0.0594024658203125
0.9960784912109376,0.0948944091796875,-0.0472412109375
0.882720947265625,0.0106201171875,-0.0772705078125
0.6565093994140625,0.00830078125,-0.1380767822265625
0.5982513427734375,0.030853271484375,-0.1444091796875
0.8153076171875,-0.0461578369140625,-0.1546478271484375
0.977783203125,-0.0283050537109375,-0.1592254638671875
1.0309295654296875,0.011993408203125,-0.2578582763671875
0.996124267578125,0.063018798828125,-0.34320068359375
0.9091033935546876,-0.045989990234375,-0.438079833984375
1.2592010498046875,0.1698455810546875,-0.4398651123046875
1.555419921875,0.092987060546875,-0.3137664794921875
1.517425537109375,0.090179443359375,-0.22943115234375
1.418914794921875,0.0592193603515625,-0.28570556640625
1.0993194580078125,0.0423431396484375,-0.2281036376953125
1.204254150390625,-0.016204833984375,-0.138153076171875
1.304443359375,0.0256805419921875,0.0099945068359375
1.5246429443359375,-0.033294677734375,-0.0716552734375
1.35125732421875,-0.0565185546875,-0.0630035400390625
1.214569091796875,-0.0494232177734375,-0.023101806640625
1.1327362060546875,-0.01019287109375,-0.0290679931640625
0.9907379150390624,0.01904296875,-0.0731048583984375
0.8262786865234375,0.034759521484375,-0.092041015625
0.6685638427734375,0.03717041015625,-0.1042938232421875
0.5351409912109375,0.0260009765625,-0.1145782470703125
0.4926300048828125,0.006561279296875,-0.1304779052734375
0.6150970458984375,-0.014129638671875,-0.1074371337890625
0.768341064453125,-0.0135955810546875,-0.0317535400390625
1.205963134765625,0.0045623779296875,0.0722503662109375
1.3899688720703125,0.1521759033203125,0.004241943359375
1.582672119140625,0.195220947265625,-0.1319122314453125
1.56268310546875,0.2223358154296875,-0.2217254638671875
1.3039093017578125,0.1731109619140625,-0.140899658203125
1.124664306640625,0.0488739013671875,-0.093048095703125
0.9784393310546876,-0.0342864990234375,-0.031951904296875
0.9374847412109376,-0.0563812255859375,0.02374267578125
0.997650146484375,-0.008056640625,0.050262451171875
1.0812835693359375,0.09832763671875,0.082855224609375
1.1128387451171875,0.2238616943359375,0.1300506591796875
1.10638427734375,0.33123779296875,0.17144775390625
1.0660858154296875,0.4099273681640625,0.1514892578125
1.1018829345703125,0.46368408203125,-0.0072784423828125
1.0111236572265625,0.4633636474609375,-0.0990447998046875
1.219024658203125,0.4190673828125,-0.1861114501953125
1.2565765380859375,0.4083099365234375,-0.3056488037109375
1.0935516357421875,0.4256591796875,-0.346405029296875
1.118560791015625,0.3560791015625,-0.3305816650390625
1.239532470703125,0.0240936279296875,-0.2449493408203125
1.3817291259765625,-0.09649658203125,-0.206939697265625
1.5064239501953125,-0.0548858642578125,-0.2783203125
1.5470428466796875,-0.0591888427734375,-0.2590484619140625
1.4964599609375,-0.0565032958984375,-0.246795654296875
1.2628936767578125,-0.025848388671875,-0.2401123046875
1.004180908203125,0.000152587890625,-0.1117401123046875
0.8290557861328125,-0.004364013671875,-0.0849761962890625
0.675201416015625,0.0140533447265625,-0.1569976806640625
0.5657501220703125,0.0206756591796875,-0.152435302734375
0.538482666015625,-0.0154876708984375,-0.13995361328125
0.5992431640625,-0.077362060546875,-0.087615966796875
0.7282257080078125,-0.1357421875,-0.0550079345703125
0.992279052734375,-0.1407623291015625,0.03741455078125
1.608428955078125,-0.0933837890625,0.05657958984375
1.757537841796875,0.0662994384765625,-0.0864410400390625
1.704681396484375,0.18212890625,-0.5355072021484375
1.42523193359375,0.24407958984375,-0.3313751220703125
1.1562652587890625,0.207122802734375,-0.0259552001953125
1.118316650390625,-0.0784912109375,0.0413818359375
0.94482421875,-0.0806121826171875,0.1096649169921875
0.8541412353515625,-0.00885009765625,0.0943603515625
0.7977294921875,0.142974853515625,0.1082611083984375
0.862701416015625,0.27410888671875,0.1181793212890625
0.9349212646484376,0.3491668701171875,0.0830230712890625
0.8954010009765625,0.370819091796875,0.0245361328125
0.90460205078125,0.3775482177734375,-0.01849365234375
1.1141510009765625,0.3730010986328125,-0.16497802734375
1.28057861328125,0.3454132080078125,-0.281219482421875
1.3035736083984375,0.26678466796875,-0.2842254638671875
1.5073394775390625,0.006927490234375,-0.342987060546875
1.3131561279296875,-0.2349395751953125,-0.2644500732421875
1.1475067138671875,-0.2493133544921875,-0.3858184814453125
1.20501708984375,-0.03814697265625,-0.652069091796875
1.1897735595703125,-0.654144287109375,-0.7802276611328125
1.3073272705078125,-0.8428955078125,-0.3197784423828125
0.6013336181640625,-1.031951904296875,-0.343994140625
0.9949951171875,-0.83660888671875,-0.8054962158203125
1.2069091796875,-0.4970855712890625,-0.788848876953125
1.3342742919921875,-0.34930419921875,-0.572479248046875
2.08587646484375,0.0069122314453125,-0.718048095703125
1.4338836669921875,0.3054656982421875,-0.40380859375
0.8106231689453125,0.54071044921875,0.0797271728515625
-0.073333740234375,0.79119873046875,0.0869598388671875
0.0757293701171875,0.4364013671875,0.0066375732421875
0.54364013671875,0.2612152099609375,1.025421142578125
0.1661834716796875,0.099761962890625,2.0890350341796875
-1.1304168701171875,-0.2397308349609375,2.5906219482421875
-0.9318695068359376,-0.5152740478515625,2.250228881835937
0.8528594970703125,-0.2189788818359375,1.73681640625
2.796859741210937,0.5115814208984375,-0.5268402099609375
4.9839935302734375,2.9058380126953125,-2.258651733398437
1.6785736083984375,-0.1055450439453125,-1.3984375
-0.86236572265625,-0.646240234375,-0.6474761962890625
0.6515960693359375,-1.289093017578125,1.9486846923828125
-0.6985626220703125,2.261337280273437,-1.2258758544921875
0.498748779296875,0.0597686767578125,-0.4595489501953125
-0.545806884765625,0.4471435546875,-0.33465576171875
2.374984741210937,0.578704833984375,0.9604949951171876
-1.701690673828125,2.455810546875,-1.34478759765625
-0.48822021484375,0.4770050048828125,-1.0841064453125
0.365814208984375,0.2274932861328125,-1.002655029296875
0.0218658447265625,0.3398895263671875,-0.992156982421875
-0.158905029296875,1.6655120849609375,0.037109375
-0.017486572265625,0.329803466796875,-0.926605224609375
0.1553955078125,0.5446929931640625,-0.8937835693359375
0.254119873046875,0.5765533447265625,-0.8997650146484375
0.1090850830078125,0.3568572998046875,-0.9310760498046876
0.0866851806640625,0.3325653076171875,-0.9545440673828124
0.1025238037109375,0.402435302734375,-0.915374755859375
0.1374664306640625,0.326416015625,-0.9044189453125
-0.07183837890625,0.4290008544921875,-0.9190673828125
0.1170196533203125,0.417816162109375,-0.9544830322265624
0.2201995849609375,0.1974334716796875,-0.9405670166015624
0.089080810546875,0.3633270263671875,-0.9027099609375
0.1777496337890625,0.371856689453125,-0.950347900390625
0.1259918212890625,0.2754974365234375,-0.9574127197265624
0.1273956298828125,0.34765625,-0.9596710205078124
0.10430908203125,0.3700408935546875,-0.9309234619140624
0.0312347412109375,0.3403472900390625,-0.9767608642578124
0.146697998046875,0.3567962646484375,-0.9403076171875
0.0781707763671875,0.2628326416015625,-0.9583740234375
0.1468505859375,0.3477783203125,-0.9483642578125
0.0440673828125,0.3871002197265625,-0.944488525390625
0.1203155517578125,0.3245391845703125,-0.9467010498046876
0.06475830078125,0.37945556640625,-0.9392242431640624
0.1758575439453125,0.2928009033203125,-0.9453277587890624
0.0305633544921875,0.418914794921875,-0.903472900390625
0.024627685546875,0.330596923828125,-0.90765380859375
0.1163177490234375,0.3673858642578125,-0.9319915771484376
0.15447998046875,0.3012237548828125,-0.9445648193359376
0.0558319091796875,0.338470458984375,-0.9344329833984376
0.0906524658203125,0.3843841552734375,-0.951019287109375
0.1159210205078125,0.2901458740234375,-0.948883056640625
0.0871124267578125,0.30999755859375,-0.9355316162109376
0.0742034912109375,0.3336181640625,-0.9509124755859376
0.1187744140625,0.3036346435546875,-0.9503631591796876
0.0709228515625,0.3450775146484375,-0.9420623779296876
0.107879638671875,0.316619873046875,-0.954193115234375
0.0672149658203125,0.332183837890625,-0.9449310302734376
0.0938568115234375,0.3134765625,-0.9509124755859376
0.0943450927734375,0.324676513671875,-0.9563751220703124
0.07421875,0.33941650390625,-0.948150634765625
0.1058197021484375,0.329559326171875,-0.9437255859375
0.0699615478515625,0.299896240234375,-0.94677734375
0.104339599609375,0.32647705078125,-0.955108642578125
0.053680419921875,0.302886962890625,-0.9557037353515624
0.1000213623046875,0.296783447265625,-0.964080810546875
0.074371337890625,0.3150482177734375,-0.9476470947265624
0.0993499755859375,0.3121337890625,-0.95098876953125
0.076080322265625,0.3135528564453125,-0.9486541748046876
0.0821380615234375,0.3235015869140625,-0.951934814453125
0.0847625732421875,0.3193511962890625,-0.9521636962890624
0.070709228515625,0.3098297119140625,-0.95037841796875
0.0993804931640625,0.29754638671875,-0.95294189453125
0.077423095703125,0.3324432373046875,-0.952484130859375
0.0839385986328125,0.307037353515625,-0.9522705078125
0.084869384765625,0.303985595703125,-0.948699951171875
0.074737548828125,0.322296142578125,-0.9456329345703124
0.0801544189453125,0.25341796875,-0.946380615234375
0.106414794921875,0.350372314453125,-0.9786529541015624
0.0999603271484375,0.3085479736328125,-0.9550323486328124
0.0851287841796875,0.3353424072265625,-0.9637298583984376
0.07080078125,0.3032379150390625,-0.962615966796875
0.1168365478515625,0.3152923583984375,-0.944488525390625
0.065673828125,0.3546295166015625,-0.9305572509765624
0.09954833984375,0.316650390625,-0.94708251953125
0.08660888671875,0.3632354736328125,-0.944000244140625
0.1079559326171875,0.32586669921875,-0.9444122314453124
0.0949554443359375,0.3222198486328125,-0.93475341796875
0.1016082763671875,0.37939453125,-0.95062255859375
0.0749053955078125,0.3294677734375,-0.9446258544921876
0.0850067138671875,0.357635498046875,-0.93853759765625
0.0948486328125,0.3531951904296875,-0.9335174560546876
0.0848388671875,0.3571929931640625,-0.9373931884765624
0.0968170166015625,0.352447509765625,-0.941253662109375
0.084869384765625,0.3517913818359375,-0.9354705810546876
0.0941009521484375,0.33709716796875,-0.9390411376953124
0.0812530517578125,0.3630523681640625,-0.936279296875
0.091766357421875,0.35430908203125,-0.9438934326171876
0.0796661376953125,0.4155120849609375,-0.927764892578125
0.09857177734375,0.2405853271484375,-0.936187744140625
0.0784759521484375,0.4469757080078125,-0.92578125
0.085845947265625,0.3113861083984375,-0.9493408203125
0.0888824462890625,0.3603515625,-0.9384613037109376
0.0853271484375,0.3543548583984375,-0.9363250732421876
0.088897705078125,0.34405517578125,-0.9405670166015624
0.0887298583984375,0.3543853759765625,-0.937896728515625
0.08441162109375,0.354522705078125,-0.93707275390625
0.0954132080078125,0.3464813232421875,-0.9399261474609376
0.0778350830078125,0.3685455322265625,-0.93560791015625
0.0943603515625,0.3470916748046875,-0.9398956298828124
0.084442138671875,0.3548736572265625,-0.9405517578125
0.085906982421875,0.362823486328125,-0.9426422119140624
0.0898895263671875,0.350677490234375,-0.940704345703125
0.08123779296875,0.365509033203125,-0.9357452392578124
0.0976104736328125,0.350433349609375,-0.9405364990234376
0.07904052734375,0.3547821044921875,-0.937408447265625
0.088409423828125,0.35186767578125,-0.93603515625
0.0911865234375,0.3599395751953125,-0.938568115234375
0.0821075439453125,0.357330322265625,-0.938568115234375
0.0897369384765625,0.3469696044921875,-0.9362945556640624
0.0865478515625,0.359771728515625,-0.93780517578125
0.09228515625,0.347015380859375,-0.9339599609375
0.082000732421875,0.365234375,-0.934417724609375
0.0919342041015625,0.338043212890625,-0.9372100830078124
0.09002685546875,0.3611907958984375,-0.936920166015625
0.081878662109375,0.3593597412109375,-0.936370849609375
0.08917236328125,0.347625732421875,-0.9379119873046876
0.0841064453125,0.36669921875,-0.9336700439453124
0.0904388427734375,0.35223388671875,-0.938262939453125
0.0829010009765625,0.35845947265625,-0.9375
0.084564208984375,0.3593597412109375,-0.9355621337890624
0.08734130859375,0.35821533203125,-0.9372711181640624
0.0853729248046875,0.354766845703125,-0.937164306640625
0.0813446044921875,0.36376953125,-0.9353179931640624
0.08892822265625,0.3568878173828125,-0.93548583984375
0.0907135009765625,0.3597412109375,-0.9350433349609376
0.084075927734375,0.3615570068359375,-0.93463134765625
0.0923309326171875,0.359588623046875,-0.9373016357421876
0.0830535888671875,0.358642578125,-0.9364471435546876
0.0860443115234375,0.36114501953125,-0.9347381591796876
0.090545654296875,0.363250732421875,-0.93865966796875
0.0795745849609375,0.3578643798828125,-0.9365997314453124
0.0894622802734375,0.360076904296875,-0.935699462890625
0.08551025390625,0.3567047119140625,-0.9346466064453124
0.084442138671875,0.365264892578125,-0.934783935546875
0.0872650146484375,0.36102294921875,-0.936676025390625
0.0864410400390625,0.362457275390625,-0.934844970703125
0.084716796875,0.3590240478515625,-0.93536376953125
0.0860443115234375,0.36212158203125,-0.9370574951171876
0.08453369140625,0.3601837158203125,-0.9338836669921876
0.095245361328125,0.4087066650390625,-0.9579925537109376
0.080108642578125,0.3145751953125,-0.9454345703125
0.0916290283203125,0.3704986572265625,-0.934356689453125
