AccelerationX,AccelerationY,AccelerationZ
0.130401611328125,-0.19158935546875,-0.9995574951171876
0.1131591796875,-0.2059478759765625,-0.88409423828125
0.0582275390625,-0.1756744384765625,-0.9530792236328124
0.1195220947265625,-0.1790771484375,-0.996246337890625
0.093048095703125,-0.141387939453125,-0.9374847412109376
0.102996826171875,-0.1370697021484375,-0.9369049072265624
0.1318359375,-0.1724395751953125,-0.8666229248046875
0.0607757568359375,-0.1608428955078125,-0.8669586181640625
0.0811309814453125,-0.1715850830078125,-0.7541961669921875
-0.0559844970703125,-0.1454620361328125,-0.73907470703125
-0.0446929931640625,-0.10125732421875,-0.8624725341796875
-0.21600341796875,0.0604705810546875,-0.937744140625
-0.22174072265625,-0.0703582763671875,-0.511810302734375
-0.198486328125,-0.08154296875,-0.51776123046875
-0.5152130126953125,0.1964874267578125,-0.73492431640625
-0.6645965576171875,0.189300537109375,-0.4144744873046875
-0.5995635986328125,0.126190185546875,-0.41009521484375
-0.6964111328125,0.3433685302734375,-0.3720703125
-0.797943115234375,0.668975830078125,-0.9068145751953124
-0.8524322509765625,0.7861785888671875,-0.8098602294921875
-1.015655517578125,0.818206787109375,-0.289703369140625
-1.1734771728515625,1.031158447265625,-0.47186279296875
-1.292724609375,1.11297607421875,-0.940338134765625
-1.41192626953125,0.8958587646484375,-0.8363189697265625
-1.3121185302734375,0.64788818359375,-0.6611175537109375
-1.261444091796875,0.5521697998046875,-0.575469970703125
-1.40887451171875,0.56927490234375,-0.4542388916015625
-1.222198486328125,0.4853668212890625,-0.2945556640625
-1.251129150390625,0.4773406982421875,-0.2866363525390625
-1.3813018798828125,0.591339111328125,-0.5582275390625
-1.1226043701171875,0.5413970947265625,-0.617340087890625
-1.1061553955078125,0.68829345703125,-0.3535308837890625
-1.305267333984375,0.989013671875,-0.1949920654296875
-1.2143096923828125,1.088043212890625,-0.24530029296875
-1.026397705078125,1.0191650390625,-0.3309478759765625
-0.90484619140625,0.9868927001953124,-0.264190673828125
-0.774169921875,0.95306396484375,-0.20745849609375
-0.863616943359375,1.1300201416015625,-0.1606903076171875
-0.719390869140625,1.1710052490234375,-0.238555908203125
-0.605438232421875,1.1732940673828125,0.0099334716796875
-0.139892578125,0.9839019775390624,0.2840576171875
0.225006103515625,0.811248779296875,0.1847991943359375
-0.092620849609375,0.847503662109375,0.2178802490234375
-0.3708648681640625,0.78717041015625,0.2052154541015625
-0.7436065673828125,1.2168731689453125,0.140899658203125
-0.9809417724609376,1.4921417236328125,0.0723724365234375
-1.0434112548828125,1.4032440185546875,0.104949951171875
-1.144683837890625,1.0661773681640625,0.182403564453125
-1.1510162353515625,0.8013458251953125,0.1758575439453125
-1.0418853759765625,0.62286376953125,-0.0054779052734375
-1.0804443359375,0.5341949462890625,-0.1123809814453125
-1.2017669677734375,0.600250244140625,0.068389892578125
-1.282135009765625,0.7890777587890625,0.1591339111328125
-1.34490966796875,0.8109283447265625,0.22613525390625
-1.3555908203125,0.78216552734375,0.032440185546875
-1.4464569091796875,1.168792724609375,-0.1556549072265625
-1.0563201904296875,0.9735107421875,-0.2257232666015625
-1.20013427734375,1.0956878662109375,-0.12078857421875
-1.1452789306640625,1.2410888671875,-0.025360107421875
-0.8981475830078125,1.150787353515625,-0.1346435546875
-0.7901763916015625,1.0222015380859375,-0.1575164794921875
-0.7138671875,0.944091796875,-0.041595458984375
-0.6142120361328125,0.850860595703125,0.0834503173828125
-0.6383819580078125,0.858154296875,0.1549530029296875
-0.531982421875,0.8172607421875,0.1090545654296875
-0.3794403076171875,0.8171539306640625,0.13909912109375
-0.1378021240234375,0.787353515625,0.0637664794921875
-0.00994873046875,0.669769287109375,0.016937255859375
-0.239776611328125,0.7661285400390625,0.14813232421875
-0.580718994140625,0.896026611328125,-0.0002593994140625
-0.986358642578125,1.3886566162109375,0.0644989013671875
-1.0830535888671875,1.4132232666015625,0.1385955810546875
-1.110870361328125,1.0601806640625,0.1624755859375
-1.2382049560546875,0.9051666259765624,0.27716064453125
-1.0388336181640625,0.8283538818359375,0.2808685302734375
-0.93426513671875,0.8514404296875,0.20074462890625
-0.9450531005859376,0.78460693359375,0.0565338134765625
-1.232757568359375,0.8489532470703125,0.0063323974609375
-1.3754425048828125,0.7254791259765625,0.0931396484375
-1.5323638916015625,0.5279693603515625,-0.2387542724609375
-1.2931060791015625,0.5518035888671875,-0.641632080078125
-1.0727081298828125,0.797149658203125,-0.159088134765625
-1.071563720703125,0.906768798828125,0.1953582763671875
-1.28094482421875,1.2303314208984375,0.013458251953125
-1.186920166015625,1.3361663818359375,-0.2779541015625
-1.0829620361328125,1.1173095703125,-0.4732666015625
-0.980133056640625,1.1824493408203125,-0.144775390625
-0.85009765625,1.1962738037109375,-0.0565948486328125
-0.7635650634765625,1.2918853759765625,-0.204254150390625
-0.8020172119140625,1.5002593994140625,-0.4017333984375
-0.5245513916015625,1.5083770751953125,-0.342803955078125
0.017730712890625,1.2879486083984375,0.16644287109375
0.7608642578125,0.9432373046875,0.5037078857421875
0.43865966796875,0.9235382080078124,-0.1594390869140625
-0.2673797607421875,1.145782470703125,-0.2320404052734375
-0.624908447265625,1.51287841796875,0.048828125
-0.9223175048828124,1.7551727294921875,0.048828125
-1.09759521484375,1.500885009765625,0.029083251953125
-1.0108795166015625,1.09063720703125,0.073516845703125
-0.921478271484375,0.988525390625,0.13140869140625
-0.9291839599609376,1.013458251953125,0.1438140869140625
-0.967681884765625,0.934967041015625,0.132537841796875
-1.0218353271484375,0.8912811279296875,0.0275115966796875
-1.1069183349609375,0.9322967529296876,-0.095916748046875
-1.14337158203125,0.9813995361328124,-0.2085723876953125
-0.9864349365234376,0.8142852783203125,-0.2112884521484375
-1.00811767578125,0.7872467041015625,-0.06781005859375
-1.0116119384765625,0.7860565185546875,0.008941650390625
-1.2665557861328125,0.982391357421875,0.015167236328125
-1.437744140625,1.1184539794921875,-0.048583984375
-1.2630157470703125,1.2028045654296875,-0.07415771484375
-1.1763763427734375,1.4330902099609375,-0.0525970458984375
-0.9759368896484376,1.581817626953125,0.0086517333984375
-0.72344970703125,1.5432281494140625,-0.0990142822265625
-0.622589111328125,1.482574462890625,-0.271392822265625
-0.58856201171875,1.443878173828125,-0.216339111328125
-0.424346923828125,1.1840362548828125,-0.107940673828125
-0.32330322265625,1.0010986328125,0.1470794677734375
-0.091827392578125,1.004791259765625,0.226348876953125
0.2727203369140625,1.002655029296875,0.165008544921875
-0.170745849609375,1.098052978515625,-0.196563720703125
-0.3656768798828125,1.2265472412109375,0.07940673828125
-0.37457275390625,1.343536376953125,0.2807159423828125
-0.6441802978515625,1.2496795654296875,0.30792236328125
-0.9558258056640624,1.159271240234375,0.2832489013671875
-1.0399322509765625,1.1221466064453125,0.128021240234375
-1.0806427001953125,1.0518798828125,-0.225250244140625
-1.28692626953125,0.7205963134765625,-0.312957763671875
-1.9231719970703125,0.8285064697265625,-0.296478271484375
-2.0807647705078125,0.9913787841796876,-0.277862548828125
-1.567047119140625,0.9268951416015624,-0.3469085693359375
-1.165740966796875,0.884246826171875,-0.5687255859375
-1.255645751953125,1.2172088623046875,-0.3076629638671875
-0.883636474609375,1.1238250732421875,-0.1308441162109375
-0.9979248046875,1.5324859619140625,0.0299835205078125
-0.8909759521484375,1.7762451171875,-0.351165771484375
-0.52899169921875,1.32379150390625,-0.5510101318359375
-0.5375518798828125,0.9574127197265624,-0.297637939453125
-0.580780029296875,0.8369598388671875,-0.0558013916015625
-0.43048095703125,0.7848052978515625,0.060089111328125
-0.4236297607421875,0.8813934326171875,-0.0013275146484375
-0.380950927734375,1.2529144287109375,-0.1521148681640625
0.08978271484375,1.1463623046875,-0.2216796875
0.1894989013671875,1.0479278564453125,0.02777099609375
-0.0992279052734375,0.775177001953125,-0.1019287109375
-0.24615478515625,0.893768310546875,0.016387939453125
-0.2663726806640625,0.91497802734375,0.1954498291015625
-0.6093902587890625,1.3300323486328125,0.370330810546875
-0.66229248046875,1.33367919921875,0.30859375
-0.792266845703125,1.2078094482421875,0.3321075439453125
-0.8775634765625,1.1407318115234375,0.110260009765625
-0.938720703125,1.00311279296875,-0.0660858154296875
-1.0597381591796875,0.819427490234375,0.0908966064453125
-1.11529541015625,0.662994384765625,0.348114013671875
-1.2269287109375,0.9667816162109376,0.1364288330078125
-1.20379638671875,1.0927581787109375,0.0245513916015625
-1.078887939453125,0.8936767578125,-0.0024871826171875
-1.1682586669921875,0.7463226318359375,-0.1603546142578125
-1.2736663818359375,0.8846282958984375,-0.3271484375
-1.1219329833984375,0.971771240234375,-0.251007080078125
-1.1820831298828125,1.29522705078125,-0.158477783203125
-1.143585205078125,1.3843841552734375,-0.0965728759765625
-1.0175323486328125,1.261962890625,-0.201416015625
-0.91943359375,1.2556915283203125,-0.151885986328125
-0.8355255126953125,1.3339996337890625,-0.0552520751953125
-0.746185302734375,1.35833740234375,-0.0278778076171875
-0.7806396484375,1.356964111328125,-0.0731964111328125
-0.5903167724609375,1.3771514892578125,-0.021087646484375
-0.2341461181640625,1.1573638916015625,-0.0879974365234375
0.0257568359375,0.883453369140625,0.1061553955078125
0.14776611328125,0.7356719970703125,0.1710357666015625
-0.051666259765625,0.80413818359375,0.1986236572265625
-0.3366546630859375,0.8831939697265625,0.0644378662109375
-0.667327880859375,1.221527099609375,0.0427703857421875
-0.7837371826171875,1.2862091064453125,0.1559600830078125
-0.8803863525390625,1.1433563232421875,0.24176025390625
-0.9600982666015624,1.0588531494140625,0.2818756103515625
-0.9812774658203124,1.038848876953125,0.202880859375
-1.0775146484375,1.091156005859375,0.0869903564453125
-1.15631103515625,1.032073974609375,0.0387725830078125
-1.204986572265625,0.9013824462890624,0.0066680908203125
-1.2891082763671875,0.896514892578125,0.0357208251953125
-1.1838836669921875,0.7222442626953125,0.2012176513671875
-1.1152801513671875,0.633697509765625,0.27447509765625
-1.0784149169921875,0.7547607421875,0.1932830810546875
-1.0939178466796875,0.88580322265625,0.035064697265625
-1.184844970703125,1.029937744140625,-0.135467529296875
-1.210601806640625,1.104949951171875,-0.0970306396484375
-1.11395263671875,1.120574951171875,-0.010284423828125
-1.0890960693359375,1.2520904541015625,0.0609130859375
-1.0719146728515625,1.4269561767578125,0.0706024169921875
-0.9647674560546876,1.5308837890625,-0.027191162109375
-0.7477264404296875,1.4223480224609375,-0.1416015625
-0.5613861083984375,1.1732330322265625,-0.15277099609375
-0.4057464599609375,0.8929443359375,-0.0839691162109375
-0.3349761962890625,0.647247314453125,-0.027099609375
-0.393829345703125,0.71697998046875,-0.013519287109375
-0.2016143798828125,0.6771392822265625,-0.094482421875
-0.1286468505859375,0.560791015625,-0.281036376953125
-0.397491455078125,0.7290191650390625,-0.152557373046875
-0.635223388671875,0.9593658447265624,0.1578369140625
-0.770843505859375,1.0543670654296875,0.399383544921875
-0.845306396484375,0.94842529296875,0.6959381103515625
-0.820709228515625,0.8802642822265625,0.8272552490234375
-0.9181976318359376,0.8804779052734375,0.758880615234375
-0.9788818359375,0.90557861328125,0.7471160888671875
-1.0225830078125,0.845245361328125,0.6722564697265625
-1.0916595458984375,0.8422393798828125,0.561004638671875
-1.0401611328125,0.7420654296875,0.4287567138671875
-1.0247650146484375,0.73089599609375,0.339508056640625
-1.0343780517578125,0.862152099609375,0.1877899169921875
-0.808441162109375,0.7916412353515625,-0.076263427734375
-0.72235107421875,0.8486175537109375,-0.306884765625
-0.5617218017578125,0.7480926513671875,-0.3389892578125
-0.7494354248046875,0.7701263427734375,-0.3722991943359375
-1.0951385498046875,0.794677734375,-0.39251708984375
-1.177734375,0.737396240234375,-0.5293121337890625
-1.1602020263671875,0.73828125,-0.5998077392578125
-1.15478515625,0.8450469970703125,-0.4861907958984375
-1.0734710693359375,1.0543212890625,-0.417083740234375
-0.9386749267578124,1.3266754150390625,-0.3299713134765625
-0.9170074462890624,1.369781494140625,-0.4189910888671875
-0.9236602783203124,1.3810577392578125,-0.3566741943359375
-0.8268890380859375,1.3257904052734375,-0.2620391845703125
-0.752716064453125,1.2530975341796875,-0.19189453125
-0.5588531494140625,1.24029541015625,-0.117950439453125
0.001495361328125,1.0424957275390625,-0.0239105224609375
0.334808349609375,0.975189208984375,0.0163421630859375
0.121795654296875,1.02508544921875,0.1979827880859375
-0.1482696533203125,1.19146728515625,0.19488525390625
-0.3408203125,1.2506103515625,0.1507415771484375
-0.57666015625,1.2014312744140625,0.259521484375
-0.8150787353515625,1.200927734375,0.455810546875
-0.8940887451171875,1.0651397705078125,0.5301666259765625
-0.8803558349609375,1.0469512939453125,0.361541748046875
-0.907745361328125,1.0068206787109375,0.1949005126953125
-1.1295013427734375,1.027435302734375,0.18634033203125
-1.387664794921875,1.1216278076171875,0.1905059814453125
-1.33721923828125,0.8598175048828125,0.1219482421875
-1.2962188720703125,0.6372833251953125,-0.0360870361328125
-1.329193115234375,0.9018707275390624,-0.0089263916015625
-0.9876556396484376,0.8060455322265625,0.0447235107421875
-1.1988677978515625,1.1220855712890625,0.0098114013671875
-1.261016845703125,1.4193267822265625,-0.0232391357421875
-1.07635498046875,1.4542999267578125,-0.1444549560546875
-1.038482666015625,1.4831695556640625,-0.271209716796875
-0.956329345703125,1.5420684814453125,-0.1720733642578125
-0.8137664794921875,1.544891357421875,-0.0357818603515625
-0.4880828857421875,1.3812255859375,0.07720947265625
-0.354766845703125,1.0922393798828125,0.0351409912109375
-0.2387237548828125,1.038421630859375,0.109100341796875
0.175567626953125,0.8802642822265625,0.1699371337890625
0.088409423828125,0.8137054443359375,0.0031890869140625
-0.1198577880859375,0.86505126953125,0.0574493408203125
-0.4689788818359375,0.9842376708984376,0.0273895263671875
-0.689910888671875,1.2933197021484375,0.2444610595703125
-0.7412567138671875,1.387786865234375,0.269805908203125
-0.835540771484375,1.1433563232421875,0.0713958740234375
-0.906646728515625,0.9891204833984376,0.065338134765625
-0.895111083984375,0.9668121337890624,0.1215972900390625
-0.9324798583984376,1.028472900390625,0.1219482421875
-1.0024261474609375,1.0521697998046875,0.0897979736328125
-1.0603179931640625,1.0942230224609375,-0.0140533447265625
-1.158905029296875,1.0548095703125,-0.09710693359375
-1.149810791015625,0.77227783203125,0.016143798828125
-1.3480377197265625,0.87091064453125,0.099151611328125
-0.978759765625,0.604156494140625,0.1568450927734375
-1.0963897705078125,0.863067626953125,0.1039581298828125
-1.1586151123046875,1.034027099609375,0.006134033203125
-1.0857086181640625,1.1004791259765625,-0.104095458984375
-1.0379486083984375,1.14178466796875,-0.1255645751953125
-1.128387451171875,1.325958251953125,0.0009307861328125
-0.8920745849609375,1.3548583984375,0.1859588623046875
-0.59735107421875,1.172393798828125,0.2943878173828125
-0.4443511962890625,0.9215240478515624,0.3861541748046875
-0.523590087890625,0.8441162109375,0.326202392578125
-0.51226806640625,0.8483734130859375,0.1854248046875
-0.4652557373046875,0.70721435546875,0.0617828369140625
-0.462188720703125,0.9337005615234376,0.2812957763671875
-0.18963623046875,0.793914794921875,0.1586456298828125
-0.3848724365234375,0.9441375732421876,0.2266082763671875
-0.5070648193359375,0.972412109375,0.2247314453125
-0.5189666748046875,0.8484039306640625,0.1652984619140625
-0.49639892578125,0.7767486572265625,0.173828125
-0.588714599609375,0.780975341796875,0.05645751953125
-0.9442138671875,0.970458984375,-0.159271240234375
-1.1126861572265625,0.9612274169921876,-0.4573516845703125
-1.249359130859375,1.0264892578125,-0.402740478515625
-1.4767303466796875,1.08184814453125,-0.4086456298828125
-1.473876953125,0.9020538330078124,-0.4259490966796875
-1.4640655517578125,0.546356201171875,-0.3008880615234375
-1.7671661376953125,0.60662841796875,0.2541351318359375
-1.460906982421875,0.3899688720703125,0.63446044921875
-1.2959747314453125,0.7285919189453125,0.178955078125
-1.090545654296875,0.9641876220703124,-0.2572174072265625
-0.7523193359375,0.812835693359375,-0.43621826171875
-0.726287841796875,0.7112579345703125,-0.3447723388671875
-0.7859954833984375,0.769744873046875,-0.1557464599609375
-0.85247802734375,0.8860321044921875,-0.044708251953125
-0.82171630859375,1.0505218505859375,0.0228118896484375
-0.6810455322265625,1.1555633544921875,-0.009979248046875
-0.432220458984375,1.2109222412109375,-0.0861358642578125
0.0032806396484375,1.0066070556640625,0.0879974365234375
0.193145751953125,0.83551025390625,0.2764129638671875
-0.104736328125,0.986328125,0.348052978515625
-0.3434600830078125,0.916229248046875,0.026214599609375
-0.81011962890625,1.3738250732421875,0.00762939453125
-0.912994384765625,1.3564453125,0.18817138671875
-0.87835693359375,0.9774017333984376,0.2903289794921875
-0.8782958984375,0.7510223388671875,0.28759765625
-0.8519744873046875,0.7156982421875,0.258209228515625
-0.79742431640625,0.8428955078125,0.2180938720703125
-0.8266754150390625,0.89312744140625,0.146484375
-1.0913543701171875,0.8927001953125,0.0601959228515625
-1.405975341796875,0.81744384765625,0.103790283203125
-1.4974212646484375,0.6529083251953125,0.05316162109375
-1.3725433349609375,0.7350616455078125,-0.0492706298828125
-1.2184295654296875,1.1474151611328125,-0.0404205322265625
-1.0308990478515625,1.09356689453125,-0.0416412353515625
-1.2378082275390625,1.3677215576171875,-0.08978271484375
-1.162872314453125,1.45733642578125,-0.087615966796875
-0.913238525390625,1.2274627685546875,-0.1664276123046875
-0.84857177734375,1.21832275390625,-0.0499420166015625
-0.7330474853515625,1.2211151123046875,0.0391387939453125
-0.5013885498046875,1.05511474609375,-0.013275146484375
-0.4566650390625,0.9973297119140624,-0.093780517578125
-0.336029052734375,0.923919677734375,-0.0462646484375
-0.159942626953125,0.87530517578125,0.0745849609375
-0.0010223388671875,0.7700958251953125,0.1065521240234375
-0.1470489501953125,0.7328948974609375,0.0319061279296875
-0.2698974609375,0.882904052734375,0.1171722412109375
-0.38372802734375,0.9002838134765625,-0.01275634765625
-0.714813232421875,1.2271881103515625,0.0280914306640625
-0.87249755859375,1.4609527587890625,0.1318511962890625
-0.928741455078125,1.25384521484375,0.1613616943359375
-1.0803375244140625,1.056671142578125,0.1957550048828125
-1.0535888671875,0.955474853515625,0.242279052734375
-1.030364990234375,0.954437255859375,0.1157684326171875
-1.1649932861328125,0.8121490478515625,0.032989501953125
-1.3658447265625,0.8284912109375,0.070770263671875
-1.292724609375,0.86407470703125,0.0522918701171875
-1.1572113037109375,0.7394866943359375,-0.1336669921875
-1.1031341552734375,0.644805908203125,-0.24725341796875
-1.1586761474609375,0.88446044921875,-0.1620941162109375
-1.109222412109375,0.9723663330078124,-0.002960205078125
-1.2183990478515625,1.2535247802734375,-0.07684326171875
-1.230438232421875,1.46173095703125,-0.224884033203125
-1.230865478515625,1.52923583984375,-0.2507171630859375
-0.9791259765625,1.5789794921875,0.219329833984375
-0.2149200439453125,1.35223388671875,0.739105224609375
0.2722625732421875,0.9416961669921876,0.8339080810546875
-0.170928955078125,0.83837890625,0.3906097412109375
-0.3148040771484375,0.915985107421875,0.22064208984375
-0.2306671142578125,0.932891845703125,0.1580963134765625
-0.23236083984375,0.94976806640625,0.151702880859375
-0.2718963623046875,0.9047698974609376,0.1300201416015625
-0.42596435546875,1.0225372314453125,0.2362823486328125
-0.505218505859375,1.136871337890625,0.1925201416015625
-0.7784271240234375,1.4967193603515625,-0.0088348388671875
-0.8282623291015625,1.3392791748046875,-0.2111358642578125
-0.7933349609375,1.023712158203125,-0.0701751708984375
-0.7455902099609375,0.799774169921875,0.071563720703125
-0.7761077880859375,0.792510986328125,0.078521728515625
-0.88128662109375,0.9375,-0.04412841796875
-0.963165283203125,1.0796051025390625,-0.22161865234375
-0.90765380859375,1.093597412109375,-0.4854736328125
-1.1365203857421875,1.1060028076171875,-0.5751800537109375
-1.2570037841796875,0.82806396484375,-0.429595947265625
-1.328338623046875,0.520843505859375,-0.28765869140625
-1.458404541015625,0.50274658203125,-0.1764068603515625
-1.3274078369140625,0.677215576171875,0.007598876953125
-1.3406829833984375,1.14068603515625,0.020721435546875
-1.336395263671875,1.29217529296875,-0.11553955078125
-1.338104248046875,1.3906707763671875,-0.12200927734375
-1.2856597900390625,1.605682373046875,0.0428009033203125
-1.0587158203125,1.777496337890625,0.1785125732421875
-0.6419219970703125,1.45574951171875,0.1670684814453125
-0.5038909912109375,1.1124725341796875,0.084808349609375
-0.394287109375,0.9112396240234376,0.0189971923828125
-0.2144775390625,0.78271484375,0.08013916015625
-0.01361083984375,0.654754638671875,0.0236968994140625
0.0346527099609375,0.575164794921875,-0.0089569091796875
-0.071685791015625,0.775177001953125,-0.0386962890625
-0.2331085205078125,0.907989501953125,-0.1167755126953125
-0.692474365234375,1.2303619384765625,0.1121368408203125
-1.0286865234375,1.45013427734375,0.3791351318359375
-1.0552215576171875,1.2933502197265625,0.318084716796875
-1.0350341796875,1.1064605712890625,0.2412261962890625
-1.0198516845703125,1.0665283203125,0.157806396484375
-1.089080810546875,1.12042236328125,0.0806121826171875
-1.040924072265625,0.9817047119140624,0.034393310546875
-1.1114044189453125,0.8863983154296875,0.0653533935546875
-1.2178955078125,0.810272216796875,0.2053985595703125
-1.2528076171875,0.631866455078125,0.3742523193359375
-1.2264862060546875,0.5586395263671875,0.400665283203125
-1.1923980712890625,0.821533203125,0.270294189453125
-1.0103912353515625,0.73455810546875,0.043670654296875
-1.055419921875,0.872283935546875,-0.07855224609375
-1.1347808837890625,1.1331787109375,-0.1040802001953125
-1.050994873046875,1.2266387939453125,-0.1295318603515625
-1.0063018798828125,1.208038330078125,-0.154937744140625
-1.031951904296875,1.305450439453125,-0.1137542724609375
-0.9529266357421876,1.4048004150390625,-0.084136962890625
-0.7315216064453125,1.3390045166015625,-0.113555908203125
-0.526885986328125,1.0869293212890625,-0.1743927001953125
-0.4648284912109375,0.9567413330078124,-0.152984619140625
-0.3538360595703125,0.8150177001953125,-0.1194305419921875
-0.27252197265625,0.7480316162109375,-0.08367919921875
-0.165863037109375,0.66412353515625,-0.082489013671875
-0.1371002197265625,0.54620361328125,-0.0843353271484375
-0.3713226318359375,0.7097015380859375,0.0406646728515625
-0.5001373291015625,0.939666748046875,0.216796875
-0.553131103515625,1.1226654052734375,0.306793212890625
-0.7747039794921875,1.1489410400390625,0.5071868896484375
-0.8953399658203125,1.0975494384765625,0.7313690185546875
-0.90057373046875,1.110137939453125,0.675933837890625
-0.8941192626953125,1.0708770751953125,0.539520263671875
-0.9159393310546876,0.9884185791015624,0.4812164306640625
-0.9378204345703124,0.8832244873046875,0.3905181884765625
-0.8840484619140625,0.8304901123046875,0.3181304931640625
-0.790740966796875,0.7225799560546875,0.2523040771484375
-0.9307098388671876,0.9371337890625,0.11962890625
-0.9076080322265624,0.96917724609375,-0.069427490234375
-0.862701416015625,0.8386077880859375,-0.16876220703125
-0.82196044921875,0.6831207275390625,-0.187225341796875
-0.9666748046875,0.6529541015625,-0.3206787109375
-1.2030181884765625,0.81201171875,-0.4107818603515625
-1.0105438232421875,0.8174285888671875,-0.4344635009765625
-1.0331573486328125,1.00982666015625,-0.516448974609375
-0.97357177734375,1.0888214111328125,-0.6585845947265625
-0.9299774169921876,1.0763092041015625,-0.720001220703125
-0.978271484375,1.171142578125,-0.54034423828125
-0.9083251953125,1.1194610595703125,-0.4475860595703125
-0.8835296630859375,1.152435302734375,-0.47296142578125
-0.79620361328125,1.1270904541015625,-0.4968719482421875
-0.8188323974609375,1.2281036376953125,-0.410614013671875
-0.318572998046875,1.224639892578125,-0.105072021484375
0.0851593017578125,0.9379730224609376,0.1681976318359375
-0.380462646484375,0.87200927734375,-0.129791259765625
-0.3366546630859375,0.764129638671875,-0.0445709228515625
-0.2628936767578125,0.9458160400390624,0.3632049560546875
-0.1186676025390625,1.0410003662109375,0.412689208984375
-0.490631103515625,1.0572052001953125,0.3416290283203125
-0.849395751953125,1.03924560546875,0.4547576904296875
-0.9753265380859376,0.9720458984375,0.541259765625
-0.9208831787109376,0.8601226806640625,0.4583740234375
-0.8969879150390625,0.8427581787109375,0.281036376953125
-0.941192626953125,0.80865478515625,0.1739044189453125
-0.998565673828125,0.800689697265625,0.163330078125
-1.010345458984375,0.758941650390625,0.1976776123046875
-1.0732421875,0.7796630859375,0.0856781005859375
-1.0392608642578125,0.751373291015625,-0.0597076416015625
-0.9891204833984376,0.6509857177734375,-0.0924530029296875
-0.9923553466796876,0.6072540283203125,0.0346221923828125
-1.20623779296875,0.799957275390625,0.1265411376953125
-1.34381103515625,0.9386749267578124,0.1039886474609375
-1.31005859375,1.07733154296875,-0.0201263427734375
-1.255035400390625,1.2993011474609375,-0.0395355224609375
-1.1190032958984375,1.521881103515625,0.0346527099609375
-0.773681640625,1.4225616455078125,0.0203094482421875
-0.5785369873046875,1.161712646484375,-0.0950775146484375
-0.5236358642578125,1.054168701171875,-0.0834808349609375
-0.3002471923828125,0.9550323486328124,-0.0085601806640625
-0.06744384765625,0.7750396728515625,0.111968994140625
0.12969970703125,0.6756134033203125,0.2165679931640625
0.01153564453125,0.7117156982421875,0.069976806640625
-0.28570556640625,0.9304046630859376,0.0804595947265625
-0.69342041015625,1.1172943115234375,-0.0284423828125
-0.9926910400390624,1.4241943359375,0.123291015625
-1.0829315185546875,1.435455322265625,0.1128692626953125
-1.0189208984375,1.06573486328125,-0.06402587890625
-1.027618408203125,0.834136962890625,-0.054901123046875
-0.99420166015625,0.728668212890625,0.112274169921875
-1.04052734375,0.662017822265625,0.1612091064453125
-1.328521728515625,0.76324462890625,0.01580810546875
-1.55908203125,0.8404541015625,-0.302032470703125
-1.2929840087890625,0.6993255615234375,-0.6858367919921875
-0.9867401123046876,0.6948394775390625,-0.4595947265625
-0.9711456298828124,0.874114990234375,-0.2881927490234375
-1.0038604736328125,0.940155029296875,-0.2203521728515625
-1.0340118408203125,0.99090576171875,-0.4846954345703125
-1.1356964111328125,1.319366455078125,-0.6812744140625
-0.8835906982421875,1.3461456298828125,-0.6974639892578125
-0.681396484375,1.0904541015625,-0.5542144775390625
-0.772491455078125,1.021942138671875,-0.35162353515625
-0.8790435791015625,1.0850677490234375,-0.187591552734375
-0.9042205810546876,1.1516571044921875,-0.12518310546875
-0.775238037109375,1.2400665283203125,-0.138671875
-0.554718017578125,1.2293548583984375,-0.194000244140625
-0.3731231689453125,1.1316986083984375,-0.16009521484375
0.02978515625,0.9269256591796876,0.0314788818359375
0.2291259765625,0.876983642578125,0.0103607177734375
0.2738800048828125,0.89013671875,0.11431884765625
-0.318511962890625,1.03277587890625,0.20294189453125
-0.7584228515625,1.3034820556640625,0.2952728271484375
-0.9754180908203124,1.4813232421875,0.4337310791015625
-1.057952880859375,1.3312225341796875,0.414459228515625
-1.1238250732421875,1.17425537109375,0.3924102783203125
-1.04425048828125,1.034576416015625,0.293243408203125
-1.122711181640625,0.976837158203125,0.1329498291015625
-1.2235565185546875,0.8348846435546875,-0.0039520263671875
-1.340850830078125,0.7725830078125,-0.050445556640625
-1.2375946044921875,0.862548828125,0.0080718994140625
-1.05401611328125,0.9280548095703124,0.1133575439453125
-0.8815460205078125,0.72894287109375,0.1450653076171875
-1.063873291015625,0.828369140625,0.0760345458984375
-1.1238250732421875,0.9205169677734376,0.1025390625
-1.256195068359375,1.1705169677734375,0.0004425048828125
-1.332916259765625,1.372711181640625,-0.1846160888671875
-1.21868896484375,1.4396514892578125,-0.319854736328125
-1.109222412109375,1.5704345703125,-0.2836456298828125
-0.9028472900390624,1.610382080078125,-0.09393310546875
-0.58587646484375,1.4294281005859375,-0.080841064453125
-0.4873809814453125,1.2082366943359375,-0.13665771484375
-0.3805389404296875,1.0188446044921875,-0.022613525390625
-0.163848876953125,0.815216064453125,0.1003875732421875
0.046356201171875,0.61822509765625,0.094024658203125
-0.0368804931640625,0.606658935546875,-0.0589599609375
-0.1214752197265625,0.8264007568359375,0.0050048828125
-0.3478546142578125,1.0319671630859375,-0.06903076171875
-0.7952880859375,1.3625640869140625,0.070526123046875
-1.057830810546875,1.4006805419921875,0.3278656005859375
-1.012847900390625,1.06402587890625,0.3124237060546875
-0.9237823486328124,0.9046630859375,0.2928619384765625
-0.8541717529296875,0.8941650390625,0.210540771484375
-0.926788330078125,0.9853973388671876,0.111083984375
-1.03173828125,1.0569915771484375,0.0241851806640625
-1.1277313232421875,1.0563507080078125,-0.03460693359375
-1.3008880615234375,0.9928741455078124,-0.0178985595703125
-1.33148193359375,0.73529052734375,-0.1073760986328125
-1.586822509765625,0.9245147705078124,-0.1418914794921875
-1.073394775390625,0.57476806640625,0.062103271484375
-1.18695068359375,0.88372802734375,0.0767669677734375
-1.13232421875,1.025543212890625,0.0292816162109375
-1.0407562255859375,1.06072998046875,-0.048553466796875
-1.0566558837890625,1.14825439453125,-0.04974365234375
-1.0458221435546875,1.3235015869140625,0.0870819091796875
-0.849761962890625,1.32171630859375,0.1746978759765625
-0.556732177734375,1.15972900390625,0.1809234619140625
-0.471588134765625,0.9772491455078124,0.14764404296875
-0.4227752685546875,0.9044189453125,0.071746826171875
-0.2983856201171875,0.7998504638671875,0.043365478515625
-0.1889801025390625,0.613006591796875,0.0398406982421875
-0.4156036376953125,0.811798095703125,0.0899658203125
-0.3346710205078125,0.7117767333984375,-0.0402069091796875
-0.600555419921875,0.9153900146484376,0.0036163330078125
-0.7865142822265625,1.0177459716796875,0.0755157470703125
-0.7963714599609375,0.87384033203125,0.07318115234375
-0.8187713623046875,0.7317962646484375,0.0329437255859375
-0.83697509765625,0.7428741455078125,0.1251678466796875
-0.8726806640625,0.9012298583984376,0.1000823974609375
-0.8363037109375,1.0156707763671875,-0.1268768310546875
-0.98809814453125,1.0550079345703125,-0.44915771484375
-1.5430755615234375,1.01776123046875,-0.4851531982421875
-1.746337890625,0.652374267578125,-0.0794219970703125
-1.6305084228515625,0.5506134033203125,-0.0509490966796875
-1.570220947265625,0.9134063720703124,-0.11077880859375
-1.17181396484375,0.81439208984375,-0.2413177490234375
-1.269561767578125,1.133331298828125,-0.2592926025390625
-1.162628173828125,1.360504150390625,-0.2027740478515625
-0.6641082763671875,0.9261932373046876,-0.244903564453125
-0.6066436767578125,0.5889892578125,-0.36260986328125
-0.763763427734375,0.685882568359375,-0.25469970703125
-0.8786468505859375,0.938446044921875,-0.148712158203125
-0.9819183349609376,1.23272705078125,-0.19989013671875
-0.997650146484375,1.439727783203125,-0.349822998046875
-0.8674163818359375,1.4053955078125,-0.4264678955078125
-0.7236480712890625,1.38446044921875,-0.3798828125
-0.189056396484375,1.0156402587890625,-0.0843353271484375
0.0281982421875,1.1087646484375,-0.0673675537109375
0.4932403564453125,0.7042999267578125,-0.1445770263671875
0.0040283203125,0.9884033203125,0.0721282958984375
-0.4733734130859375,1.242828369140625,0.3211669921875
-0.8742828369140625,1.3101806640625,0.4016876220703125
-0.8302154541015625,1.045318603515625,0.3693084716796875
-0.8165130615234375,1.0172882080078125,0.43670654296875
-0.92645263671875,1.183013916015625,0.33740234375
-1.0156707763671875,1.132049560546875,0.2876739501953125
-1.1769866943359375,1.03302001953125,0.447021484375
-1.29168701171875,1.00604248046875,0.419891357421875
-1.2667694091796875,1.0755767822265625,0.2928924560546875
-1.0954437255859375,0.8932952880859375,0.088897705078125
-1.0012359619140625,0.7171478271484375,0.00958251953125
-1.0544281005859375,0.8738861083984375,0.00238037109375
-1.032135009765625,0.86224365234375,-0.0336761474609375
-1.2052154541015625,0.9899139404296876,-0.0064697265625
-1.264801025390625,1.090606689453125,0.03192138671875
-1.1579132080078125,1.0714263916015625,-0.05682373046875
-1.116180419921875,1.218780517578125,-0.0174102783203125
-1.0468597412109375,1.43194580078125,-0.0041961669921875
-0.8611297607421875,1.47723388671875,-0.1163482666015625
-0.675384521484375,1.3740386962890625,-0.2559814453125
-0.5485992431640625,1.2515869140625,-0.2169647216796875
-0.327728271484375,1.02008056640625,-0.075408935546875
-0.1410675048828125,0.726226806640625,0.118316650390625
-0.0123138427734375,0.56048583984375,0.1607666015625
-0.087371826171875,0.7674560546875,0.1855316162109375
-0.1032562255859375,0.7376556396484375,-0.15576171875
-0.5802764892578125,1.036651611328125,-0.1359100341796875
-0.9449310302734376,1.286041259765625,0.1906585693359375
-0.9474029541015624,1.12548828125,0.355194091796875
-0.9665985107421876,0.9942169189453124,0.4822998046875
-0.9636383056640624,0.9869537353515624,0.3697509765625
-1.0185699462890625,1.0416107177734375,0.168304443359375
-1.0706939697265625,0.9145355224609376,0.0617523193359375
-1.083770751953125,0.79010009765625,0.203704833984375
-1.156005859375,0.821807861328125,0.3005828857421875
-1.12255859375,0.8008880615234375,0.2750244140625
-1.1222991943359375,0.7188873291015625,0.232177734375
-0.955841064453125,0.5556640625,0.2986907958984375
-0.92510986328125,0.5943450927734375,0.3143463134765625
-1.093841552734375,0.9268951416015624,0.2063751220703125
-1.100372314453125,0.9755706787109376,0.1246185302734375
-1.227874755859375,1.0939788818359375,0.07440185546875
-1.1574249267578125,1.208587646484375,-0.0381317138671875
-0.9593658447265624,1.1826171875,-0.1904449462890625
-0.7521209716796875,1.085174560546875,-0.23956298828125
-0.414031982421875,1.0264434814453125,-0.237884521484375
-0.229644775390625,1.001556396484375,-0.2994384765625
-0.4670562744140625,1.15240478515625,-0.230987548828125
-0.43035888671875,1.13873291015625,-0.2055511474609375
-0.2842254638671875,1.098663330078125,-0.4601593017578125
-0.23583984375,1.073150634765625,-0.654083251953125
-0.1633148193359375,1.112274169921875,-0.460693359375
-0.1544952392578125,1.0553436279296875,-0.2856903076171875
-0.354583740234375,1.0106201171875,-0.2738189697265625
-0.48193359375,0.9970550537109376,-0.1564178466796875
-0.4959564208984375,1.0015411376953125,0.0066070556640625
-0.6411590576171875,0.9770050048828124,0.011688232421875
-0.736419677734375,0.9447479248046876,-0.1031341552734375
-0.7537841796875,1.160491943359375,-0.1425323486328125
-0.8756256103515625,1.3980560302734375,-0.0747528076171875
-0.833465576171875,1.455352783203125,-0.0241546630859375
-0.7742462158203125,1.54351806640625,-0.161224365234375
-0.6827850341796875,1.5790863037109375,-0.393829345703125
-0.3087158203125,1.3085174560546875,-0.19268798828125
-0.1045989990234375,0.96881103515625,0.000762939453125
0.29022216796875,0.848388671875,0.19500732421875
0.46661376953125,1.0147857666015625,0.2288818359375
0.025421142578125,1.0279388427734375,0.10577392578125
-0.1845855712890625,1.04656982421875,0.166595458984375
-0.2944793701171875,1.1925048828125,0.39141845703125
-0.5910491943359375,1.2078094482421875,0.598236083984375
-0.745086669921875,1.1106719970703125,0.611114501953125
-0.73516845703125,1.0357513427734375,0.4553985595703125
-0.7550048828125,1.06732177734375,0.3193359375
-0.9168701171875,1.109283447265625,0.373992919921875
-1.0378265380859375,1.0419769287109375,0.559783935546875
-1.17633056640625,0.8387451171875,0.33441162109375
-1.3413848876953125,0.576324462890625,0.0213165283203125
-1.4833984375,0.7470855712890625,-0.0820159912109375
-0.977508544921875,0.8526153564453125,0.1906280517578125
-1.138885498046875,1.1862945556640625,0.085693359375
-1.157196044921875,1.3840484619140625,-0.090789794921875
-1.0864715576171875,1.4332122802734375,-0.17645263671875
-1.027679443359375,1.467803955078125,-0.2320556640625
-0.8848419189453125,1.5120697021484375,-0.1100921630859375
-0.7222747802734375,1.49176025390625,-0.0900726318359375
-0.555633544921875,1.298431396484375,-0.1563720703125
-0.48956298828125,1.1394805908203125,-0.196746826171875
-0.3106842041015625,1.0343017578125,-0.0691986083984375
-0.0641632080078125,0.878326416015625,0.0626983642578125
0.0756988525390625,0.7137298583984375,0.116546630859375
-0.121124267578125,0.757232666015625,0.1396942138671875
-0.3259124755859375,0.8632354736328125,0.2533111572265625
-0.510498046875,0.9808807373046876,0.1034393310546875
-0.6378173828125,1.1989593505859375,0.02337646484375
-0.81884765625,1.2183074951171875,0.1036224365234375
-0.9045562744140624,1.0391082763671875,0.2263336181640625
-0.8830718994140625,0.9096221923828124,0.2320556640625
-0.7905120849609375,0.8464813232421875,0.161163330078125
-0.779632568359375,0.8109130859375,0.0700531005859375
-0.816619873046875,0.8278045654296875,-0.0098876953125
-0.9249420166015624,0.98406982421875,-0.0849151611328125
-0.9728240966796876,1.1340789794921875,-0.1388397216796875
-0.9138031005859376,1.073822021484375,-0.1655426025390625
-0.8980560302734375,0.8848724365234375,-0.036102294921875
-1.0551605224609375,0.96490478515625,0.073028564453125
-1.030792236328125,0.6670379638671875,0.151947021484375
-1.1708984375,0.649871826171875,0.3069915771484375
-1.0694580078125,0.831390380859375,0.3477020263671875
-0.9062652587890624,0.9896240234375,0.219451904296875
-0.7852630615234375,1.2332763671875,0.1070098876953125
-0.0039215087890625,1.2916107177734375,0.1295013427734375
0.4770660400390625,1.0708770751953125,0.3120269775390625
0.083587646484375,1.0123748779296875,0.4526519775390625
-0.216827392578125,1.022430419921875,0.281005859375
-0.1269989013671875,1.1981353759765625,0.052886962890625
0.230133056640625,1.343719482421875,-0.1751556396484375
0.20562744140625,1.1594085693359375,-0.352264404296875
-0.3516387939453125,1.1224822998046875,-0.17242431640625
-0.726287841796875,1.3655853271484375,-0.0519866943359375
-0.613128662109375,1.1032562255859375,-0.45257568359375
-0.7667694091796875,1.04852294921875,-0.5538482666015625
-0.7977142333984375,0.965118408203125,-0.1697235107421875
-0.6595611572265625,0.7561187744140625,0.1373748779296875
-0.5369415283203125,0.5812835693359375,0.149688720703125
-0.478302001953125,0.665283203125,0.12603759765625
-0.578948974609375,0.88861083984375,0.081878662109375
-0.656707763671875,1.01202392578125,0.0012664794921875
-0.8975677490234375,1.21636962890625,-0.10321044921875
-0.9391632080078124,1.2393341064453125,0.029632568359375
-0.788482666015625,1.293426513671875,0.4635772705078125
-0.5993194580078125,1.01361083984375,0.4411163330078125
-0.6847381591796875,1.12152099609375,0.01397705078125
-0.252197265625,0.7990570068359375,-0.5475921630859375
-0.24481201171875,0.923065185546875,-0.0379638671875
-0.585205078125,1.0124969482421875,0.625335693359375
-1.108795166015625,1.3477630615234375,0.3446807861328125
-0.7507171630859375,1.3019561767578125,-0.586761474609375
-0.6529998779296875,1.1373748779296875,-0.787567138671875
-0.859527587890625,1.1015167236328125,-0.381378173828125
-0.9017791748046876,1.25592041015625,-0.281280517578125
-0.6019134521484375,1.59674072265625,-0.3397064208984375
-0.243194580078125,1.6971282958984375,-0.53021240234375
0.1850738525390625,1.369476318359375,-0.42529296875
0.5651397705078125,1.01629638671875,-0.1479339599609375
0.31890869140625,1.0842437744140625,0.0799407958984375
0.1969146728515625,1.009002685546875,0.1362457275390625
-0.380218505859375,1.2444305419921875,0.122802734375
-0.518585205078125,1.3829498291015625,0.4419097900390625
-0.6129608154296875,1.324798583984375,0.5592193603515625
-0.742828369140625,0.9866790771484376,0.545989990234375
-0.724029541015625,0.8252410888671875,0.3206634521484375
-0.6652069091796875,0.8018646240234375,0.001983642578125
-0.7490692138671875,0.905792236328125,-0.1727752685546875
-0.792633056640625,0.8973236083984375,-0.2409820556640625
-1.049468994140625,0.98675537109375,-0.035064697265625
-1.0968170166015625,1.0794830322265625,0.14215087890625
-1.017120361328125,0.8404388427734375,0.0244293212890625
-1.186614990234375,0.843902587890625,0.0450286865234375
-1.0523834228515625,0.86712646484375,0.1594085693359375
-1.0477142333984375,0.9437103271484376,0.199981689453125
-1.177154541015625,1.2440948486328125,0.123321533203125
-1.211761474609375,1.3893585205078125,-0.064697265625
-1.134674072265625,1.3192291259765625,-0.109161376953125
-1.1065521240234375,1.483642578125,0.0133819580078125
-0.9161224365234376,1.505340576171875,0.025054931640625
-0.6415863037109375,1.3518524169921875,-0.152618408203125
-0.46856689453125,1.1831817626953125,-0.21490478515625
-0.220245361328125,0.9577178955078124,-0.121978759765625
0.036895751953125,0.7877044677734375,0.087310791015625
0.26568603515625,0.7459259033203125,0.146331787109375
0.0677490234375,0.830657958984375,-0.0093841552734375
-0.187835693359375,0.929443359375,0.016265869140625
-0.62408447265625,1.2722930908203125,-0.022796630859375
-0.8989715576171875,1.5413970947265625,0.003997802734375
-1.0109710693359375,1.4612884521484375,-0.0130157470703125
-1.0736846923828125,1.2139129638671875,0.10186767578125
-1.061248779296875,1.0544281005859375,0.24688720703125
-1.0055389404296875,1.0387725830078125,0.2512969970703125
-0.9920654296875,1.01702880859375,0.128570556640625
-1.2053680419921875,1.08917236328125,0.00775146484375
-1.43096923828125,0.9997100830078124,-0.0196685791015625
-1.587921142578125,0.772186279296875,-0.09735107421875
-1.35009765625,0.57086181640625,0.1010894775390625
-1.1499481201171875,0.792236328125,0.1414794921875
-0.9258270263671876,0.7522430419921875,0.002471923828125
-1.189208984375,1.0843658447265625,-0.0893707275390625
-1.2893829345703125,1.3714752197265625,-0.114471435546875
-1.1980133056640625,1.449432373046875,-0.1672515869140625
-1.1913604736328125,1.51788330078125,-0.156494140625
-1.1022491455078125,1.665557861328125,0.074066162109375
-0.6688232421875,1.4537353515625,0.301025390625
-0.5264739990234375,1.1675262451171875,0.300872802734375
-0.31719970703125,1.0384979248046875,0.2305145263671875
-0.042266845703125,0.9596405029296876,0.3466033935546875
-0.007049560546875,0.8556060791015625,0.2352752685546875
-0.0616455078125,0.65606689453125,0.0571746826171875
-0.2504119873046875,0.8349151611328125,0.0219268798828125
-0.291717529296875,0.9096221923828124,-0.1281280517578125
-0.608184814453125,1.1167144775390625,-0.1499176025390625
-0.880615234375,1.294097900390625,0.0386505126953125
-1.0177459716796875,1.2503662109375,0.138885498046875
-1.03350830078125,1.0713043212890625,0.0883026123046875
-1.0789031982421875,0.9741363525390624,0.0039215087890625
-1.131378173828125,0.966888427734375,-0.1838226318359375
-0.9910736083984376,0.9249420166015624,-0.2809600830078125
-1.068328857421875,1.01715087890625,-0.3951568603515625
-1.2564544677734375,1.024993896484375,-0.4062652587890625
-1.41619873046875,0.8160400390625,-0.2850494384765625
-1.3997802734375,0.49481201171875,-0.277374267578125
-1.5991363525390625,0.5482635498046875,-0.4420318603515625
-1.266571044921875,0.5319061279296875,-0.314056396484375
-1.2541351318359375,0.8667449951171875,-0.1181640625
-1.3067626953125,1.0880126953125,-0.1244964599609375
-1.3262939453125,1.2515716552734375,-0.1875152587890625
-1.27642822265625,1.413421630859375,-0.2057342529296875
-1.109039306640625,1.5513458251953125,-0.070404052734375
-0.768280029296875,1.4137725830078125,0.04669189453125
-0.5429840087890625,1.1184539794921875,0.06854248046875
-0.5223846435546875,0.9886474609375,0.043121337890625
-0.3328399658203125,0.8392333984375,0.0838470458984375
-0.0784759521484375,0.743316650390625,0.2414703369140625
0.1692657470703125,0.695709228515625,0.2122955322265625
-0.0139617919921875,0.834808349609375,-0.0823516845703125
-0.14373779296875,0.9406585693359376,-0.183441162109375
-0.674163818359375,1.2315216064453125,-0.08990478515625
-1.0279541015625,1.5395965576171875,0.2241363525390625
-1.1493377685546875,1.582366943359375,0.219085693359375
-1.1965179443359375,1.28729248046875,0.09063720703125
-1.19189453125,1.090911865234375,0.146026611328125
-1.14227294921875,1.037689208984375,0.15283203125
-1.1067962646484375,0.9967498779296876,0.0637054443359375
-1.1112823486328125,0.850311279296875,0.0604400634765625
-1.173675537109375,0.762298583984375,0.125030517578125
-1.250030517578125,0.7005462646484375,0.2061767578125
-1.2917022705078125,0.5412750244140625,0.2640533447265625
-1.195220947265625,0.6037139892578125,0.4080810546875
-1.145599365234375,0.8652801513671875,0.278533935546875
-1.1434478759765625,0.9163665771484376,0.1013336181640625
-1.2303314208984375,1.069732666015625,-0.05255126953125
-1.41937255859375,1.485107421875,-0.061614990234375
-1.23309326171875,1.5789947509765625,-0.11383056640625
-1.07464599609375,1.5177459716796875,-0.185943603515625
-0.9440765380859376,1.4551849365234375,-0.10028076171875
-0.7479400634765625,1.2674407958984375,-0.04400634765625
-0.6172637939453125,1.0624542236328125,0.0118255615234375
-0.4630889892578125,0.8056488037109375,-0.0144500732421875
-0.4360198974609375,0.7354736328125,-0.026336669921875
-0.3438262939453125,0.6875,-0.0824127197265625
-0.2518310546875,0.636688232421875,-0.1396636962890625
-0.20123291015625,0.6462860107421875,-0.15643310546875
-0.1842803955078125,0.55023193359375,-0.1256256103515625
-0.5566864013671875,0.7953033447265625,0.1124420166015625
-0.600982666015625,1.0819091796875,0.4965972900390625
-0.78924560546875,1.305877685546875,0.4670867919921875
-1.1457672119140625,1.404937744140625,0.52459716796875
-1.209991455078125,1.3140411376953125,0.6157379150390625
-1.1526031494140625,1.1819305419921875,0.5575714111328125
-1.066253662109375,1.0172882080078125,0.4777069091796875
-1.066375732421875,0.9162750244140624,0.4463653564453125
-1.0833587646484375,0.828216552734375,0.4210205078125
-0.979278564453125,0.7216339111328125,0.360565185546875
-0.916046142578125,0.6817474365234375,0.241607666015625
-0.870941162109375,0.6942291259765625,0.1225433349609375
-0.830810546875,0.6918792724609375,-0.000335693359375
-0.88800048828125,0.8663177490234375,-0.10211181640625
-0.8807373046875,0.9866485595703124,-0.275360107421875
-0.7274169921875,0.9723663330078124,-0.4905548095703125
-0.65386962890625,0.880950927734375,-0.5882415771484375
-0.820465087890625,0.8461456298828125,-0.3382568359375
-0.920867919921875,0.8245697021484375,-0.449462890625
-0.853668212890625,0.8083038330078125,-0.878692626953125
-0.764678955078125,0.765594482421875,-0.7238006591796875
-0.8580474853515625,0.817962646484375,-0.5893402099609375
-1.004180908203125,0.87994384765625,-0.5198974609375
-1.0968170166015625,0.9996185302734376,-0.331207275390625
-1.133636474609375,1.32635498046875,-0.3331451416015625
-1.0435638427734375,1.5374755859375,-0.3343353271484375
-0.7262115478515625,1.336029052734375,-0.3026580810546875
-0.6458282470703125,1.07025146484375,-0.3034210205078125
-0.767486572265625,1.134521484375,-0.2111663818359375
-0.40521240234375,1.02142333984375,-0.113433837890625
0.2255859375,0.8265533447265625,-0.019500732421875
-0.008209228515625,0.80865478515625,0.203826904296875
-0.5125885009765625,1.1201934814453125,0.2363433837890625
-0.5620269775390625,1.02093505859375,0.1966705322265625
-0.6688995361328125,0.9759368896484376,0.49169921875
-0.868804931640625,0.9438934326171876,0.82635498046875
-0.8350677490234375,0.836578369140625,0.9001922607421875
-0.89251708984375,0.9006500244140625,0.624542236328125
-0.8984375,0.902923583984375,0.440765380859375
-1.0637359619140625,0.9602508544921876,0.3126678466796875
-0.9580841064453124,0.89227294921875,0.2795562744140625
-0.962310791015625,0.8274383544921875,0.240142822265625
-0.962677001953125,0.7635650634765625,0.1219940185546875
-1.07977294921875,0.9320526123046876,-0.028533935546875
-0.8959503173828125,0.7071075439453125,-0.0862579345703125
-0.9820098876953124,0.6587677001953125,-0.0240631103515625
-1.21624755859375,0.9257965087890624,0.0032196044921875
-1.069366455078125,0.8636322021484375,-0.035064697265625
-0.9566497802734376,0.710601806640625,-0.183319091796875
-0.9788818359375,0.8879241943359375,-0.239776611328125
-0.890594482421875,1.09991455078125,-0.2287139892578125
-0.6963043212890625,1.1015777587890625,-0.23052978515625
-0.5359039306640625,1.059417724609375,-0.2137908935546875
-0.56524658203125,1.000457763671875,-0.3862152099609375
-0.545654296875,1.079498291015625,-0.3770294189453125
-0.4258575439453125,0.9856719970703124,-0.4405975341796875
-0.3480987548828125,0.8394622802734375,-0.4184112548828125
-0.26666259765625,0.7292327880859375,-0.35186767578125
-0.3076019287109375,0.69061279296875,-0.2533416748046875
-0.677642822265625,0.7974853515625,-0.363525390625
-1.229248046875,0.6501312255859375,-1.3635101318359375
-1.72296142578125,0.869384765625,-1.100189208984375
-1.5817413330078125,0.626068115234375,-0.9822540283203124
-1.4516143798828125,0.8695831298828125,-1.620391845703125
-1.2599639892578125,0.973602294921875,-1.431915283203125
-0.996978759765625,0.9811553955078124,-1.37957763671875
-0.6177825927734375,0.994293212890625,-1.6494903564453125
-0.371368408203125,1.0128631591796875,-1.6891021728515625
-0.4097900390625,1.052978515625,-1.5200042724609375
-0.20977783203125,0.9161376953125,-1.0970611572265625
-0.255523681640625,0.644256591796875,-0.7312774658203125
-0.3963623046875,0.326904296875,-0.402374267578125
-0.546539306640625,0.37200927734375,-0.5452880859375
-0.093963623046875,0.1788330078125,-0.5361175537109375
-0.0013580322265625,0.1352996826171875,-0.532958984375
0.07733154296875,-0.1943511962890625,-0.2654876708984375
-0.1470489501953125,-0.21923828125,-0.3982086181640625
0.011871337890625,-0.3628692626953125,-0.557647705078125
0.17791748046875,-0.4132537841796875,-0.2642974853515625
0.1849365234375,-0.4380645751953125,-0.331634521484375
0.4907684326171875,-0.4200439453125,-0.462432861328125
0.1490631103515625,-0.425018310546875,-0.46539306640625
-0.2233428955078125,-0.5411224365234375,-0.5775909423828125
-0.218048095703125,-0.7129669189453125,-0.619659423828125
-0.194488525390625,-0.81219482421875,-0.3167266845703125
-0.1444244384765625,-0.8048095703125,-0.3270416259765625
-0.0347137451171875,-0.707855224609375,-0.503021240234375
0.032989501953125,-0.5539093017578125,-0.5222015380859375
0.0071563720703125,-0.2274627685546875,-0.0800323486328125
0.290924072265625,0.339874267578125,0.313385009765625
0.6301422119140625,0.9629364013671876,1.0675048828125
-0.6325836181640625,1.501739501953125,1.1348876953125
-0.4853515625,1.6135711669921875,1.600799560546875
-0.5469512939453125,1.947113037109375,1.0836639404296875
0.22174072265625,1.5028076171875,-0.5870513916015625
0.1238250732421875,-0.0018310546875,-0.0806884765625
-1.072113037109375,0.5438690185546875,-0.637420654296875
1.257171630859375,-1.28411865234375,-6.260955810546875
0.251220703125,0.041839599609375,0.30450439453125
0.0868988037109375,0.02197265625,0.006011962890625
0.083587646484375,0.0192718505859375,0.0045318603515625
0.0986785888671875,0.0155181884765625,-0.0124664306640625
1.4584197998046875,-0.0547943115234375,-2.0779266357421875
1.4604034423828125,0.43853759765625,-0.8007659912109375
-1.0572357177734375,-0.31744384765625,-0.4778900146484375
-0.4510498046875,0.0274200439453125,-0.9838714599609376
0.2113494873046875,-0.0748748779296875,-1.1194915771484375
-0.2086639404296875,-0.0993194580078125,-0.88946533203125
-0.0885772705078125,-0.0410614013671875,-0.9682464599609376
-0.09857177734375,-0.0516510009765625,-0.9689178466796876
-0.1005706787109375,-0.0436859130859375,-0.9699554443359376
-0.0738067626953125,-0.039520263671875,-0.98468017578125
-0.0998382568359375,-0.0517578125,-0.982818603515625
-0.0750732421875,-0.0402374267578125,-0.991790771484375
-0.0836639404296875,-0.048187255859375,-0.9874725341796876
-0.0804290771484375,-0.0449371337890625,-0.9925384521484376
-0.0760955810546875,-0.0381622314453125,-0.994110107421875
-0.08135986328125,-0.052032470703125,-0.9827117919921876
-0.0817718505859375,-0.0253753662109375,-0.9982147216796876
-0.0773162841796875,-0.059600830078125,-0.9871063232421876
-0.07501220703125,-0.04888916015625,-1.0088958740234375
-0.072174072265625,-0.0434112548828125,-0.994842529296875
-0.070709228515625,-0.0566864013671875,-0.988739013671875
-0.07647705078125,-0.0548858642578125,-0.9924468994140624
-0.063232421875,-0.0693206787109375,-0.9916229248046876
-0.0748291015625,-0.041839599609375,-0.9903411865234376
-0.065673828125,-0.0626373291015625,-0.992034912109375
-0.0734100341796875,-0.0474090576171875,-0.9932403564453124
-0.068695068359375,-0.058441162109375,-0.9918365478515624
-0.07904052734375,-0.076141357421875,-1.057037353515625
-0.073089599609375,-0.05767822265625,-0.9841766357421876
