Acceleration x (m/s^2),Acceleration y (m/s^2),Acceleration z (m/s^2)
2.326050043,-2.920950174,9.195000648
1.905000091,-3.036000252,9.193050385
1.905000091,-2.806050062,9.157950401
2.020050049,-2.538000107,9.184950829
1.713000059,-2.767950058,9.265050888
1.828050137,-2.845050097,9.286950111
1.94295013,-2.653050184,9.264000893
1.905000091,-2.730000019,9.30600071
1.94295013,-2.767950058,9.241950035
2.058000088,-2.767950058,9.274950027
2.25,-2.806050062,9.210000038
2.095950127,-2.883000135,9.226050377
2.095950127,-2.806050062,9.223050117
2.134950161,-2.806050062,9.214050293
1.905000091,-2.61495018,9.277950287
2.020050049,-2.61495018,9.232950211
1.67505002,-2.308050156,9.270000458
3.361050129,-3.073950052,9.157950401
3.781950235,-2.538000107,9.793050766
4.816050053,-2.653050184,10.54500008
4.969050407,-2.077950001,10.12395
4.08795023,-2.232000113,10.04700089
4.08795023,-2.308050156,10.00905037
3.973050117,-2.232000113,10.04700089
4.394999981,-1.734000087,10.12395
4.050000191,-1.351050019,10.00905037
4.43295002,-1.504050016,9.30300045
5.697000504,-1.159050107,8.581950188
5.16105032,-1.465950012,8.197950363
5.7739501,-1.426950097,8.430000305
5.581950188,-1.465950012,8.513999939
5.544000149,-1.2739501,8.647950172
5.391000271,-1.197000027,8.61495018
5.199000359,-1.04400003,8.370000839
5.353050232,-1.04400003,8.194050789
5.544000149,-0.9679500461,8.089050293
5.391000271,-0.6990000606,8.161950111
6.004050255,-0.5460000038,8.050050735
8.226000786,-1.081950068,8.782950401
6.157050133,-0.7759500146,6.369000435
6.079950333,-0.8910000324,6.369000435
6.042000294,-1.2739501,7.251000404
7.918950558,-0.5460000038,7.327050209
9.222000122,-0.1630500108,6.906000137
6.961950302,-0.3160500228,6.255000114
9.451950073,0.2959500253,6.178050518
8.302050591,-0.5460000038,4.684050083
8.071949959,-1.04400003,4.684050083
9.604950905,-1.312050104,3.68805027
8.839050293,-0.9679500461,2.385000229
9.145050049,-2.155050039,2.34705019
8.647050858,-2.538000107,2.34705019
7.84305048,-4.032000065,1.618950129
9.490050316,-5.908950329,3.68805027
11.2140007,-8.016000748,3.68805027
8.11095047,-3.18900013,1.159050107
4.701000214,-5.833050251,2.959950209
7.267950535,-9.280050278,2.232000113
7.804050446,-9.702000618,3.535050154
7.230000496,-7.059000492,3.535050154
6.885000229,-7.020000458,2.461950064
4.242000103,-4.492050171,2.308950186
3.628950119,-2.959950209,2.385000229
6.616950512,-7.863000393,2.539050102
6.577950478,-7.939950466,1.543050051
6.808050156,-9.625050545,1.504050016
6.349050522,-9.394950867,1.465950012
4.701000214,-8.055000305,1.543050051
6.195000172,-8.092950821,1.696050048
6.387000084,-7.939950466,1.696050048
5.96505022,-8.629050255,1.657050133
5.620950222,-7.900950432,1.810950041
5.581950188,-6.714000225,1.399050117
6.693000317,-7.55700016,1.600050092
5.275950432,-7.174050331,1.840950131
6.118950367,-8.513999939,1.120950103
5.581950188,-8.398950577,0.541950047
4.816050053,-6.714000225,0.6330000162
6.310050488,-8.935950279,0.6070500016
6.004050255,-7.288050175,0.6559500098
5.96505022,-7.825050354,0.5539500117
5.42895031,-7.710000515,2.09100008
3.744000196,-8.361000061,1.888050079
2.211000204,-7.594950199,0.9300000668
2.287950039,-8.668050766,0.9300000668
6.808050156,-16.44404984,-0.2179500163
5.275950432,-11.31105042,-0.4099500179
2.824050188,-9.204000473,0.5470499992
1.177050114,-8.055000305,-0.2179500163
3.246000051,-10.27695084,0.2790000141
3.169050217,-9.394950867,0.3559500277
3.361050129,-8.974050522,0.4699500203
6.195000172,-8.513999939,0.6240000129
5.238000393,-9.241950035,0.3940500319
3.897000074,-9.204000473,0.700050056
3.705000162,-9.1270504,0.04905000329
5.697000504,-8.668050766,1.58100009
3.169050217,-9.280050278,0.5470499992
3.475050211,-9.012000084,0.5470499992
4.663050175,-8.935950279,0.5470499992
3.628950119,-9.204000473,0.6619500518
3.361050129,-8.974050522,0.77700001
5.467050076,-9.54900074,0.77700001
4.279950142,-8.821050644,1.657950044
4.242000103,-9.702000618,0.126000002
3.322050095,-9.73995018,0.126000002
3.28395009,-9.664050102,1.366050124
5.199000359,-9.702000618,1.435050011
3.0160501,-9.586950302,1.312950015
-0.201000005,-10.85100079,1.312950015
4.663050175,-9.357000351,1.504950047
4.050000191,-9.166050911,1.58100009
4.585950375,-6.484050274,1.58100009
2.671050072,-10.58295059,0.2790000141
3.552000284,-9.472050667,1.657950044
3.705000162,-7.327050209,0.6619500518
4.203000069,-8.361000061,0.700050056
4.050000191,-9.012000084,2.118000031
3.705000162,-9.394950867,2.118000031
3.169050217,-10.50600052,2.041050196
2.556000233,-9.586950302,-0.0270000007
3.589950085,-9.1270504,0.8539500237
4.930950165,-8.935950279,1.045050025
5.083950043,-8.706000328,1.122000098
4.279950142,-8.896950722,1.122000098
3.781950235,-9.166050911,1.045050025
3.552000284,-9.166050911,1.006950021
3.973050117,-8.974050522,0.9300000668
4.740000248,-8.398950577,0.9300000668
4.585950375,-8.590950012,0.9300000668
4.548000336,-8.859000206,0.9690000415
4.16505003,-8.821050644,-0.06795000285
5.659050465,-9.280050278,-0.03000000119
5.16105032,-9.204000473,0.9970500469
4.548000336,-9.73995018,0.9790500402
4.318050385,-12.15405083,1.275000095
1.215000033,-10.00800037,-1.558950067
0.9090000391,-8.896950722,-1.558950067
2.977050066,-8.323050499,0.04905000329
4.701000214,-9.54900074,0.08700000495
4.548000336,-10.73595047,0.77700001
4.777950287,-11.1960001,0.77700001
5.314050198,-8.513999939,0.6619500518
5.736000061,-8.016000748,0.5850000381
5.16105032,-8.361000061,0.5850000381
3.28395009,-9.664050102,0.1639500111
2.020050049,-10.20000076,-2.056950092
1.522050023,-9.472050667,-3.781050205
1.67505002,-8.974050522,-3.781050205
3.475050211,-8.016000748,-2.248050213
3.973050117,-7.327050209,-1.252050042
4.126950264,-6.790050507,-1.252050042
4.43295002,-6.561000347,-1.175999999
5.467050076,-7.633050442,-2.056950092
5.851050377,-8.437950134,-3.168000221
5.7739501,-8.782050133,-3.20595026
4.624950409,-7.441950321,-3.628050089
4.855050087,-6.714000225,-3.589050055
4.203000069,-9.204000473,-2.440050125
6.004050255,-15.06495094,-2.401950121
4.08795023,-8.935950279,-3.666000128
0.1810500026,-5.143050194,-1.789050102
0.2580000162,-5.755950451,0.2020500153
2.173050165,-9.241950035,0.2790000141
7.996050358,-8.361000061,1.083000064
6.118950367,-7.747950554,1.198050022
4.701000214,-9.166050911,1.312950015
1.67505002,-9.778050423,0.3940500319
1.444950104,-9.433950424,0.2790000141
1.789950132,-9.241950035,0.2790000141
3.589950085,-9.241950035,1.122000098
5.7739501,-8.513999939,1.122000098
5.697000504,-8.513999939,1.159950018
5.122950077,-8.974050522,1.159950018
3.552000284,-9.241950035,0.1639500111
2.938950062,-9.1270504,0.3169500232
2.938950062,-9.204000473,0.4320000112
3.399000168,-9.204000473,0.9690000415
3.781950235,-8.974050522,0.8920500278
4.394999981,-9.241950035,0.9300000668
4.585950375,-9.319050789,0.9690000415
3.897000074,-9.817050934,-0.7159500122
7.153050423,-11.57895088,0.2790000141
4.855050087,-10.54500008,1.045050025
3.82005024,-10.04700089,1.122000098
1.752000093,-8.437950134,-0.6390000582
0.9090000391,-8.629050255,-1.405950069
1.444950104,-9.394950867,-1.405950069
4.16505003,-11.425951,-1.366950035
5.16105032,-10.08495045,4.225049973
6.195000172,-7.900950432,0.3559500277
5.391000271,-7.633050442,-0.4099500179
2.364000082,-9.088950157,-0.06495000422
2.901000023,-9.510000229,0.01095000096
3.399000168,-9.357000351,0.01095000096
3.091950178,-9.73995018,-2.056950092
2.824050188,-9.357000351,-3.015000105
4.126950264,-8.476050377,-2.899950027
5.122950077,-7.978050232,-1.137000084
6.079950333,-7.402950287,0.3559500277
3.514050245,-8.55300045,-1.482000113
2.632950068,-9.088950157,-2.248050213
1.752000093,-9.241950035,-2.248050213
3.475050211,-8.437950134,-2.17200017
4.701000214,-8.935950279,-2.17200017
4.816050053,-8.782050133,-3.130050182
4.279950142,-7.441950321,-2.095050097
4.357050419,-8.398950577,-1.291050076
5.697000504,-14.5669508,-1.252050042
4.318050385,-12.03900051,-2.401950121
3.436950207,-6.177000523,-2.248050213
2.938950062,-8.629050255,-0.1030500084
3.169050217,-10.20000076,0.01095000096
4.203000069,-9.855000496,0.700050056
5.314050198,-8.13105011,-1.405950069
4.43295002,-9.1270504,0.5850000381
3.436950207,-9.166050911,1.275000095
2.748000145,-9.280050278,0.01095000096
4.701000214,-8.782050133,2.271000147
5.314050198,-8.668050766,3.037050247
5.391000271,-9.54900074,1.735050082
2.556000233,-9.280050278,-1.099050045
2.440950155,-8.821050644,1.122000098
3.475050211,-8.668050766,2.386050224
6.157050133,-8.208000183,2.539050102
4.855050087,-8.782050133,0.9300000668
3.973050117,-9.241950035,0.9300000668
3.207000256,-9.241950035,0.9690000415
4.279950142,-8.974050522,1.237050056
4.318050385,-8.935950279,1.390050054
4.126950264,-9.012000084,1.428000093
3.361050129,-9.012000084,1.504950047
4.012050152,-8.821050644,1.58100009
5.314050198,-8.974050522,1.657950044
5.199000359,-8.896950722,1.657950044
4.279950142,-9.357000351,0.193050012
2.938950062,-9.586950302,0.3130500019
2.977050066,-9.625050545,-0.1699500084
5.42895031,-10.81305027,1.696050048
2.25,-9.73995018,2.577000141
1.828050137,-9.051000595,2.539050102
1.636950135,-9.1270504,1.467000127
2.211000204,-10.00800037,-0.1410000026
2.785950184,-10.46805096,-0.06495000422
2.709000111,-10.50600052,0.9300000668
1.713000059,-10.08495045,0.9300000668
3.207000256,-9.357000351,-0.3330000043
4.893000126,-8.935950279,1.58100009
5.581950188,-8.361000061,1.58100009
3.054000139,-8.935950279,0.3169500232
1.024049997,-10.62105083,-1.213950038
0.1810500026,-10.50600052,-2.133000135
0.06599999964,-9.510000229,-2.133000135
3.552000284,-9.241950035,-1.864950061
5.581950188,-9.1270504,-1.060950041
5.353050232,-8.859000206,-0.9840000272
4.394999981,-9.1270504,-0.9840000272
3.552000284,-8.821050644,-1.980000138
2.364000082,-9.166050911,-1.789050102
2.095950127,-9.051000595,-1.750050068
2.556000233,-8.706000328,-1.864950061
3.091950178,-9.051000595,-1.942050099
3.246000051,-8.859000206,-1.942050099
3.552000284,-8.398950577,-1.789050102
4.050000191,-8.55300045,-1.558950067
3.246000051,-7.672050476,-1.558950067
3.859050274,-9.1270504,-1.351950049
4.893000126,-12.07695103,-3.130050182
3.552000284,-6.177000523,-2.593050241
3.169050217,-6.253950119,0.5850000381
2.593950033,-9.433950424,0.8149500489
2.058000088,-10.3909502,0.8539500237
5.467050076,-8.398950577,0.8149500489
5.314050198,-8.398950577,-0.4480500221
1.483050108,-9.702000618,1.237050056
2.518050194,-11.1960001,1.888050079
3.361050129,-11.425951,-0.2560500205
3.091950178,-9.586950302,-4.54695034
3.436950207,-8.743950844,2.233050108
4.893000126,-8.629050255,4.110000134
5.275950432,-8.706000328,2.233050108
2.977050066,-9.778050423,-0.6390000582
1.062000036,-10.08495045,-0.6390000582
2.095950127,-9.73995018,-0.5250000358
3.436950207,-9.319050789,-0.4480500221
6.118950367,-8.437950134,0.508949995
5.008050442,-8.974050522,0.6240000129
3.781950235,-9.357000351,0.6240000129
2.173050165,-9.586950302,0.508949995
2.748000145,-9.54900074,0.3559500277
3.744000196,-9.280050278,-0.3709500134
3.859050274,-9.394950867,0.3169500232
3.705000162,-9.357000351,0.3169500232
3.28395009,-9.357000351,0.3169500232
3.0160501,-9.394950867,0.3169500232
2.938950062,-9.472050667,0.241050005
3.781950235,-9.394950867,0.001050000079
3.859050274,-9.204000473,0.04200000316
3.628950119,-9.280050278,0.0
3.091950178,-9.472050667,-0.009000000544
3.28395009,-9.319050789,-0.04695000127
3.399000168,-9.357000351,-0.0120000001
3.514050245,-9.319050789,-0.07200000435
3.475050211,-9.204000473,0.0
3.436950207,-9.357000351,-0.004050000105
3.514050245,-9.357000351,-0.004050000105
3.589950085,-9.357000351,-0.04200000316
3.399000168,-9.433950424,-0.08100000024
3.28395009,-9.319050789,-0.08100000024
3.475050211,-9.319050789,-0.08100000024
3.514050245,-9.204000473,-0.04200000316
3.589950085,-9.357000351,-0.04200000316
3.552000284,-9.319050789,-0.04200000316
3.514050245,-9.357000351,-0.04200000316
3.514050245,-9.433950424,-0.04200000316
3.436950207,-9.357000351,-0.004050000105
3.399000168,-9.510000229,-0.004050000105
3.514050245,-9.357000351,-0.004050000105
3.589950085,-9.319050789,-0.04200000316
3.552000284,-9.394950867,-0.04200000316
3.514050245,-9.433950424,-0.004050000105
3.436950207,-9.433950424,-0.004050000105
3.667050123,-9.280050278,-0.04200000316
3.436950207,-9.280050278,-0.004050000105
3.514050245,-9.394950867,-0.06405000389
3.361050129,-9.357000351,-0.06405000389
3.514050245,-9.319050789,-0.06405000389
3.28395009,-9.433950424,-0.02595000155
3.246000051,-9.433950424,-0.06405000389
3.361050129,-9.54900074,-0.06405000389
3.322050095,-9.394950867,-0.06405000389
3.399000168,-9.394950867,-0.02595000155
3.361050129,-9.433950424,-0.08505000174
3.207000256,-9.357000351,-0.02595000155
3.207000256,-9.472050667,-0.02595000155
3.361050129,-9.472050667,-0.08505000174
3.399000168,-9.54900074,-0.04695000127
3.28395009,-9.510000229,-0.0120000001
3.322050095,-9.472050667,-0.03299999982
3.436950207,-9.319050789,-0.03795000166
3.399000168,-9.433950424,-0.05895000324
3.361050129,-9.472050667,-0.02100000158
3.514050245,-9.319050789,-0.08100000024
3.514050245,-9.433950424,-0.08100000024
3.322050095,-9.357000351,-0.08100000024
3.361050129,-9.472050667,-0.08100000024
3.436950207,-9.394950867,-0.05895000324
3.475050211,-9.394950867,-0.05895000324
3.436950207,-9.433950424,-0.05895000324
3.514050245,-9.357000351,-0.05895000324
3.514050245,-9.472050667,0.0
3.361050129,-9.472050667,0.0
3.475050211,-9.319050789,0.0
3.399000168,-9.394950867,-0.05895000324
3.475050211,-9.510000229,0.0
3.399000168,-9.433950424,0.0
3.361050129,-9.472050667,0.0
3.475050211,-9.394950867,0.0
3.399000168,-9.394950867,-0.02100000158
3.436950207,-9.433950424,-0.02100000158
3.475050211,-9.472050667,-0.05895000324
3.475050211,-9.357000351,-0.05895000324
3.514050245,-9.472050667,-0.05895000324
3.28395009,-9.510000229,-0.05895000324
3.322050095,-9.433950424,-0.05895000324
3.361050129,-9.319050789,-0.05895000324
3.361050129,-9.394950867,-0.05895000324
3.436950207,-9.510000229,-0.05895000324
3.475050211,-9.394950867,-0.05895000324
3.475050211,-9.394950867,-0.02400000021
3.361050129,-9.357000351,-0.007050000131
3.514050245,-9.357000351,-0.07200000435
3.628950119,-9.433950424,-0.05505000427
3.475050211,-9.394950867,-0.05505000427
3.322050095,-9.357000351,-0.07605000585
3.322050095,-9.357000351,0.0
3.361050129,-9.394950867,-0.05895000324
3.475050211,-9.394950867,-0.02100000158
3.552000284,-9.357000351,-0.04200000316
3.589950085,-9.357000351,-0.04200000316
3.436950207,-9.280050278,-0.04200000316
3.514050245,-9.433950424,-0.06195000187
3.514050245,-9.357000351,-0.02100000158
3.436950207,-9.433950424,-0.08100000024
3.28395009,-9.472050667,-0.04200000316
3.361050129,-9.472050667,-0.04200000316
3.589950085,-9.433950424,-0.04200000316
3.628950119,-9.394950867,-0.04200000316
3.667050123,-9.357000351,-0.004050000105
3.169050217,-9.394950867,-0.06405000389
3.130950212,-9.54900074,-0.08505000174
3.130950212,-9.510000229,-0.08505000174
3.169050217,-9.54900074,-0.04695000127
3.091950178,-9.510000229,-0.04695000127
3.054000139,-9.73995018,-0.04695000127
3.091950178,-9.625050545,-0.02595000155
3.169050217,-9.510000229,-0.08505000174
3.361050129,-9.433950424,-0.02595000155
3.361050129,-9.280050278,-0.02595000155
3.744000196,-9.394950867,-0.06405000389
4.740000248,-8.513999939,0.2500500083
3.667050123,-9.778050423,0.2449500114
2.211000204,-9.280050278,-1.345950007
4.242000103,-9.472050667,0.8089500666
3.514050245,-9.394950867,-0.5730000138
3.130950212,-9.510000229,-0.5700000525
2.938950062,-9.394950867,-0.3930000067
3.781950235,-9.394950867,-0.2590500116
4.050000191,-9.433950424,-0.2020500153
4.203000069,-9.166050911,-0.1770000011
3.28395009,-10.00800037,-0.1339500099
1.177050114,-9.433950424,-0.1030500084
1.94295013,-9.433950424,-0.06495000422
3.667050123,-9.510000229,0.04905000329
4.43295002,-9.088950157,0.04905000329
4.050000191,-9.280050278,0.08700000495
3.859050274,-9.357000351,0.126000002
3.667050123,-9.280050278,-0.4860000312
4.012050152,-9.088950157,-0.3709500134
4.16505003,-9.166050911,-0.2560500205
4.16505003,-9.280050278,-0.06495000422
3.705000162,-9.241950035,-0.02595000155
3.628950119,-9.394950867,-0.04695000127
3.744000196,-9.241950035,-0.009000000544
3.589950085,-9.280050278,-0.09000000358
3.207000256,-9.394950867,-0.05205000192
3.169050217,-9.54900074,-0.01305000018
3.091950178,-9.54900074,-0.07304999977
3.091950178,-9.54900074,-0.01305000018
3.054000139,-9.472050667,-0.07605000585
3.0160501,-9.625050545,-0.03795000166
3.054000139,-9.54900074,-0.02100000158
3.091950178,-9.510000229,-0.02100000158
3.246000051,-9.510000229,-0.02100000158
3.361050129,-9.433950424,-0.08100000024
3.207000256,-9.394950867,-0.04200000316
3.091950178,-9.394950867,-0.004050000105
3.169050217,-9.54900074,-0.004050000105
3.28395009,-9.472050667,-0.004050000105
3.514050245,-9.357000351,-0.02595000155
3.781950235,-9.280050278,-0.02595000155
3.781950235,-9.204000473,-0.06405000389
3.667050123,-9.204000473,-0.004050000105
3.399000168,-9.357000351,-0.004050000105
3.322050095,-9.433950424,-0.004050000105
3.207000256,-9.54900074,-0.007050000131
3.091950178,-9.394950867,-0.04995000362
3.169050217,-9.472050667,-0.09000000358
2.977050066,-9.54900074,-0.03000000119
2.671050072,-9.586950302,-0.04500000179
2.632950068,-9.54900074,-0.08805000782
2.785950184,-9.625050545,-0.03299999982
2.824050188,-9.54900074,-0.09300000221
2.824050188,-9.510000229,-0.03795000166
3.054000139,-9.472050667,-0.03795000166
3.169050217,-9.394950867,-0.01605000161
3.054000139,-9.54900074,-0.03795000166
2.824050188,-9.586950302,0.0
2.785950184,-9.625050545,0.0
2.824050188,-9.625050545,0.0
2.593950033,-9.510000229,0.0
2.785950184,-9.54900074,-0.05895000324
2.748000145,-9.510000229,-0.04095000029
2.938950062,-9.54900074,-0.06195000187
2.364000082,-9.54900074,-0.06705000252
2.479050159,-9.778050423,-0.06705000252
2.364000082,-9.817050934,-0.06705000252
2.403000116,-9.778050423,-0.06705000252
2.518050194,-9.664050102,-0.06705000252
2.632950068,-9.394950867,-0.06705000252
2.709000111,-9.586950302,-0.007050000131
2.748000145,-9.625050545,-0.04995000362
2.901000023,-9.357000351,-0.04995000362
2.977050066,-9.166050911,-0.04995000362
3.0160501,-9.625050545,-0.04995000362
3.0160501,-9.204000473,-0.08805000782
3.169050217,-9.357000351,-0.08805000782
3.130950212,-9.586950302,-0.08805000782
3.0160501,-9.54900074,-0.07005000114
3.246000051,-9.931950569,-0.04905000329
3.514050245,-10.00800037,-0.01605000161
5.275950432,-9.433950424,-1.714950085
5.083950043,-9.1270504,-1.405950069
3.859050274,-9.241950035,1.312950015
3.973050117,-9.204000473,1.312950015
3.475050211,-9.433950424,-1.980000138
3.054000139,-9.166050911,-1.980000138
2.824050188,-8.859000206,-1.980000138
3.973050117,-8.743950844,-1.942050099
4.394999981,-8.323050499,-1.827000141
4.777950287,-8.016000748,-1.213950038
5.199000359,-8.055000305,-1.252050042
4.548000336,-8.245950699,-1.348950028
4.012050152,-7.978050232,-2.308050156
4.050000191,-7.863000393,-2.368950129
4.012050152,-7.441950321,-2.42505002
5.275950432,-7.441950321,-2.37195015
3.514050245,-6.369000435,-4.621050358
3.82005024,-6.024000168,-3.514950275
4.548000336,-8.398950577,-2.323950052
3.705000162,-9.204000473,-2.593050241
4.548000336,-11.69400024,-2.593050241
9.030000687,-13.95405102,-2.554950237
5.812050343,-6.445950508,-2.554950237
2.824050188,-7.327050209,-1.099050045
3.091950178,-7.863000393,0.01095000096
5.50605011,-9.433950424,-0.5629500151
4.203000069,-8.896950722,-0.5250000358
2.518050194,-9.166050911,-0.3330000043
2.403000116,-9.088950157,-0.3330000043
3.399000168,-8.668050766,0.508949995
4.279950142,-9.166050911,1.428000093
4.471050262,-8.974050522,1.428000093
4.777950287,-8.668050766,1.428000093
5.16105032,-9.54900074,1.467000127
4.16505003,-9.088950157,0.3940500319
3.705000162,-8.974050522,0.3559500277
3.859050274,-9.1270504,1.390050054
4.012050152,-8.629050255,1.58100009
4.318050385,-8.629050255,1.102050066
4.663050175,-8.706000328,0.1740000099
4.43295002,-8.935950279,-0.05595000088
4.318050385,-9.241950035,-0.05595000088
4.242000103,-9.166050911,-0.01800000109
4.242000103,-8.55300045,-0.07800000161
4.471050262,-8.935950279,-0.07800000161
4.279950142,-8.821050644,-0.0390000008
4.242000103,-8.706000328,-0.07800000161
4.471050262,-8.935950279,-0.05595000088
4.740000248,-8.896950722,-0.03795000166
5.008050442,-8.782050133,-0.06105000153
4.08795023,-11.50200081,1.000950098
2.287950039,-14.1070509,1.888050079
0.06599999964,-9.54900074,0.700050056
1.024049997,-9.012000084,-0.3709500134
2.938950062,-8.170050621,-1.175999999
4.318050385,-9.357000351,-1.099050045
4.777950287,-10.20000076,0.2020500153
4.471050262,-10.27695084,1.849950075
3.475050211,-9.433950424,-0.1800000072
3.28395009,-9.280050278,-0.2179500163
3.514050245,-9.204000473,-0.2179500163
3.973050117,-9.931950569,-0.868950069
2.901000023,-9.357000351,-0.83100003
2.25,-8.476050377,-0.868950069
2.173050165,-8.170050621,-2.670000076
3.054000139,-9.970050812,-1.942050099
3.628950119,-7.900950432,-1.579050064
3.934950113,-6.790050507,-1.942050099
4.969050407,-8.284049988,-1.980000138
4.701000214,-8.284049988,-1.980000138
4.663050175,-7.710000515,-1.903950095
3.744000196,-7.402950287,-3.168000221
3.361050129,-8.476050377,-2.517000198
3.667050123,-7.825050354,-2.593050241
3.744000196,-7.633050442,-2.517000198
4.394999981,-12.72795105,-2.209950209
6.195000172,-15.29505062,-2.248050213
4.357050419,-7.710000515,-3.091050148
3.628950119,-6.292050362,-0.6780000329
1.062000036,-9.817050934,0.6619500518
3.399000168,-9.433950424,-1.060950041
4.357050419,-9.1270504,-1.060950041
4.624950409,-9.012000084,-0.868950069
4.318050385,-9.012000084,0.8920500278
3.436950207,-9.166050911,-0.1800000072
2.748000145,-9.319050789,-0.1800000072
4.203000069,-9.088950157,2.34795022
5.736000061,-9.166050911,1.312950015
5.275950432,-9.433950424,0.3559500277
2.556000233,-9.394950867,0.3169500232
3.589950085,-8.896950722,1.275000095
5.008050442,-8.859000206,1.275000095
5.122950077,-8.896950722,1.237050056
4.012050152,-9.012000084,1.275000095
3.667050123,-9.088950157,1.275000095
4.126950264,-8.974050522,1.275000095
4.510050297,-8.935950279,0.5470499992
5.122950077,-8.668050766,0.5850000381
5.122950077,-8.476050377,0.6619500518
4.777950287,-8.476050377,0.700050056
3.934950113,-8.629050255,-0.007050000131
4.969050407,-8.476050377,0.02295000106
4.855050087,-8.55300045,-0.02400000021
4.740000248,-8.590950012,-0.06000000238
5.046000004,-8.398950577,-0.01995000057
4.242000103,-8.361000061,0.02295000106
4.43295002,-8.55300045,0.04905000329
5.275950432,-7.939950466,0.1050000042
6.234000206,-9.931950569,0.7950000167
3.552000284,-10.81305027,0.8539500237
2.977050066,-11.27295017,0.8149500489
3.207000256,-10.42995071,1.965000153
3.667050123,-9.702000618,1.965000153
3.744000196,-9.73995018,1.198050022
2.095950127,-9.394950867,-1.099050045
2.479050159,-8.629050255,0.700050056
3.246000051,-8.974050522,1.504950047
3.589950085,-9.357000351,0.508949995
2.173050165,-10.16205025,-1.444050074
-0.9670500755,-9.778050423,0.700050056
-0.5460000038,-10.69800091,1.926000118
-0.3540000021,-12.03900051,2.845950127
4.126950264,-9.433950424,0.8920500278
2.824050188,-8.55300045,0.8920500278
1.062000036,-8.437950134,0.126000002
3.0160501,-8.437950134,-0.3709500134
2.748000145,-8.398950577,0.9690000415
2.671050072,-8.513999939,0.9690000415
3.667050123,-8.668050766,2.002950191
2.938950062,-9.510000229,1.504950047
0.1810500026,-8.743950844,1.467000127
0.02805000171,-7.480050564,1.390050054
1.407000065,-5.488050461,1.351950049
4.663050175,-9.778050423,2.34795022
1.254000068,-8.13105011,1.045050025
-0.3160500228,-8.245950699,1.045050025
4.548000336,-13.41795063,0.5850000381
5.046000004,-8.859000206,-2.938050032
5.083950043,-9.625050545,-2.056950092
6.310050488,-14.06895065,3.957000256
5.353050232,-9.817050934,1.237050056
3.973050117,-12.11505032,-0.9840000272
4.930950165,-11.80905056,-0.3709500134
4.624950409,-7.327050209,-0.3330000043
4.050000191,-8.513999939,2.845950127
5.620950222,-8.743950844,2.845950127
6.349050522,-8.092950821,-1.558950067
4.242000103,-8.284049988,1.083000064
4.357050419,-8.743950844,-0.4480500221
4.318050385,-8.513999939,-0.4480500221
4.43295002,-9.1270504,-0.2179500163
3.897000074,-9.54900074,0.5850000381
3.973050117,-9.051000595,0.7390500307
4.279950142,-9.051000595,0.77700001
3.589950085,-8.896950722,1.696050048
3.705000162,-8.821050644,0.228000015
4.43295002,-8.668050766,-0.01800000109
5.314050198,-8.743950844,-0.03600000218
3.934950113,-9.1270504,0.08400000632
3.322050095,-9.319050789,0.3960000277
3.589950085,-9.1270504,0.4459500313
3.973050117,-8.974050522,0.1830000132
3.859050274,-9.088950157,0.2110500038
3.859050274,-9.166050911,0.2890500128
4.012050152,-9.012000084,0.3289500177
4.585950375,-8.821050644,0.5290500522
3.973050117,-8.974050522,0.292050004
3.322050095,-9.204000473,-0.001050000079
3.705000162,-9.510000229,-0.08700000495
4.701000214,-9.088950157,-0.06495000422
4.585950375,-8.821050644,-0.06495000422
3.973050117,-8.821050644,-0.07005000114
3.82005024,-9.088950157,-0.08700000495
3.28395009,-9.088950157,0.02205000073
3.207000256,-9.1270504,0.06000000238
4.126950264,-9.088950157,-0.04995000362
4.357050419,-8.974050522,-0.01800000109
4.471050262,-8.821050644,-0.07005000114
4.471050262,-8.821050644,-0.05295000225
3.82005024,-9.051000595,-0.05295000225
3.781950235,-9.088950157,-0.07500000298
3.973050117,-9.166050911,-0.09600000083
4.203000069,-9.204000473,-0.01905000024
3.897000074,-8.974050522,-0.0580500029
4.242000103,-9.012000084,-0.07905000448
4.126950264,-9.012000084,-0.04095000029
3.475050211,-9.241950035,-0.04095000029
3.705000162,-9.088950157,-0.04095000029
3.705000162,-9.1270504,-0.06105000153
3.781950235,-9.204000473,-0.04095000029
4.012050152,-9.1270504,-0.01905000024
4.012050152,-9.088950157,-0.003000000026
3.934950113,-9.166050911,-0.003000000026
3.705000162,-9.088950157,-0.07905000448
3.744000196,-9.166050911,-0.01905000024
3.781950235,-9.088950157,-0.07905000448
3.897000074,-9.166050911,-0.04095000029
3.897000074,-9.088950157,-0.07905000448
3.897000074,-9.166050911,-0.04095000029
3.897000074,-9.1270504,-0.04095000029
3.859050274,-9.1270504,-0.01905000024
4.012050152,-9.051000595,-0.01905000024
3.897000074,-9.166050911,-0.01905000024
3.897000074,-9.1270504,-0.01905000024
4.050000191,-8.896950722,-0.04395000264
4.357050419,-9.051000595,-0.04500000179
4.279950142,-9.051000595,-0.007050000131
3.897000074,-8.896950722,-0.06705000252
3.897000074,-9.051000595,-0.09105000645
3.897000074,-9.051000595,-0.05295000225
3.897000074,-9.051000595,-0.0150000006
4.624950409,-8.590950012,-0.0580500029
5.238000393,-8.668050766,-0.06195000187
5.238000393,-8.668050766,-0.06195000187
4.050000191,-8.974050522,-0.06495000422
2.977050066,-9.241950035,0.3520500064
3.246000051,-9.394950867,0.5890500546
3.169050217,-9.510000229,0.7090500593
3.207000256,-9.241950035,0.7390500307
3.781950235,-9.1270504,0.8539500237
4.012050152,-9.088950157,0.8920500278
4.318050385,-9.280050278,1.045050025
4.701000214,-9.051000595,1.009950042
4.624950409,-9.204000473,0.726000011
4.701000214,-9.54900074,0.9460500479
2.862000227,-9.357000351,0.4150500298
2.020050049,-9.664050102,0.5850000381
2.173050165,-9.855000496,0.700050056
2.824050188,-9.625050545,1.467000127
3.475050211,-8.821050644,0.6619500518
3.475050211,-9.051000595,0.5850000381
3.744000196,-9.166050911,0.6619500518
3.973050117,-9.012000084,0.77700001
3.475050211,-9.204000473,-0.2179500163
2.709000111,-9.664050102,-0.1630500108
2.518050194,-9.778050423,-0.2260500044
2.364000082,-9.433950424,-0.9340500236
2.479050159,-9.394950867,-0.201000005
2.709000111,-9.54900074,-0.1590000093
2.593950033,-9.817050934,-0.02595000155
3.091950178,-10.00800037,-0.9649500251
3.322050095,-10.50600052,-0.8560500145
3.0160501,-10.58295059,-0.3619500101
2.020050049,-10.27695084,-0.06195000187
1.905000091,-9.931950569,-0.08400000632
1.713000059,-9.625050545,-0.06495000422
2.479050159,-9.088950157,-0.02595000155
2.593950033,-9.012000084,0.1450500041
1.099950075,-9.394950867,-0.07695000619
1.522050023,-9.778050423,-1.156050086
4.777950287,-9.54900074,-3.51300025
4.663050175,-9.088950157,-2.478000164
3.361050129,-9.319050789,-2.362950087
2.785950184,-9.394950867,-1.597050071
1.866000056,-9.166050911,-1.597050071
1.636950135,-8.706000328,-0.4480500221
1.636950135,-8.743950844,-0.4480500221
1.713000059,-9.394950867,-2.325000048
2.020050049,-9.241950035,-2.248050213
2.403000116,-9.472050667,-1.482000113
3.207000256,-9.472050667,-1.405950069
4.279950142,-9.778050423,-1.444050074
1.560000062,-10.27695084,-1.329000115
0.7170000076,-11.34900093,-1.329000115
1.597950101,-10.73595047,-2.860950232
4.318050385,-8.437950134,-1.864950061
4.510050297,-9.1270504,-0.6010500193
3.744000196,-9.394950867,0.5850000381
3.514050245,-9.1270504,0.5470499992
3.28395009,-9.855000496,-0.9079500437
2.211000204,-9.892950058,-1.558950067
2.364000082,-9.319050789,0.04905000329
3.552000284,-9.357000351,-0.1030500084
3.897000074,-9.166050911,-0.1410000026
3.934950113,-9.280050278,-0.06495000422
3.781950235,-9.204000473,0.07995000482
3.207000256,-9.433950424,0.001050000079
2.938950062,-9.433950424,0.04005000368
3.207000256,-9.241950035,0.02805000171
3.705000162,-9.319050789,0.0390000008
3.628950119,-9.241950035,-0.06795000285
3.667050123,-9.204000473,-0.06795000285
3.667050123,-9.510000229,-0.04695000127
3.246000051,-9.54900074,-0.04695000127
3.361050129,-9.319050789,-0.08505000174
3.589950085,-9.319050789,-0.02595000155
3.475050211,-9.394950867,-0.04695000127
3.130950212,-9.241950035,-0.04695000127
3.322050095,-9.472050667,-0.009000000544
3.322050095,-9.433950424,-0.009000000544
3.28395009,-9.510000229,-0.06795000285
3.436950207,-9.241950035,-0.009000000544
3.552000284,-9.394950867,-0.009000000544
3.475050211,-9.357000351,-0.06795000285
3.361050129,-9.280050278,-0.06795000285
3.436950207,-9.241950035,-0.06795000285
3.246000051,-9.54900074,-0.09000000358
3.322050095,-9.433950424,-0.05205000192
3.475050211,-9.357000351,-0.09000000358
3.361050129,-9.472050667,-0.09000000358
3.361050129,-9.394950867,-0.09000000358
3.475050211,-9.357000351,-0.09000000358
3.28395009,-9.394950867,-0.09000000358
3.28395009,-9.357000351,-0.05205000192
3.399000168,-9.394950867,-0.01305000018
3.361050129,-9.357000351,-0.05205000192
3.399000168,-9.319050789,-0.05205000192
3.589950085,-9.394950867,-0.09000000358
3.436950207,-9.319050789,-0.09000000358
3.361050129,-9.433950424,-0.09000000358
3.399000168,-9.319050789,-0.09000000358
3.361050129,-9.394950867,-0.09000000358
3.246000051,-9.319050789,-0.09000000358
3.246000051,-9.433950424,-0.09000000358
3.399000168,-9.357000351,-0.05205000192
3.246000051,-9.586950302,-0.05205000192
2.824050188,-9.433950424,-0.03000000119
2.824050188,-9.394950867,-0.03000000119
3.552000284,-9.357000351,-0.03000000119
3.475050211,-9.280050278,-0.09000000358
3.514050245,-9.357000351,-0.09000000358
3.628950119,-9.319050789,-0.09000000358
3.28395009,-9.394950867,-0.05205000192
3.091950178,-9.433950424,-0.01305000018
3.207000256,-9.510000229,-0.01305000018
3.475050211,-9.241950035,-0.07304999977
3.475050211,-9.319050789,-0.05595000088
3.399000168,-9.280050278,-0.01800000109
3.322050095,-9.319050789,-0.07800000161
3.361050129,-9.241950035,-0.02205000073
3.322050095,-9.280050278,-0.08205000311
3.322050095,-9.280050278,-0.04395000264
3.399000168,-9.433950424,-0.06495000422
3.667050123,-9.319050789,-0.04905000329
3.667050123,-9.204000473,-0.01005000062
3.552000284,-9.280050278,-0.01005000062
3.552000284,-9.319050789,-0.04905000329
3.973050117,-9.241950035,-0.08700000495
4.126950264,-9.319050789,-0.08700000495
3.934950113,-9.1270504,-0.04905000329
3.859050274,-9.280050278,-0.09105000645
3.781950235,-9.357000351,-0.05295000225
3.667050123,-9.280050278,-0.05295000225
3.859050274,-9.241950035,-0.01005000062
3.934950113,-9.166050911,-0.01005000062
4.050000191,-8.896950722,-0.07005000114
4.16505003,-8.859000206,-0.03195000067
4.08795023,-9.241950035,-0.07500000298
3.514050245,-9.280050278,-0.0150000006
3.514050245,-9.280050278,-0.09105000645
4.012050152,-8.974050522,-0.07005000114
4.203000069,-9.204000473,-0.03195000067
3.781950235,-9.204000473,-0.06105000153
3.628950119,-9.1270504,-0.06105000153
3.399000168,-9.280050278,-0.06495000422
3.628950119,-9.280050278,-0.0270000007
3.744000196,-9.280050278,-0.0270000007
3.552000284,-9.166050911,-0.0270000007
3.973050117,-9.204000473,-0.0270000007
3.973050117,-9.204000473,-0.006000000052
3.897000074,-9.166050911,-0.04395000264
3.475050211,-9.204000473,-0.04395000264
3.246000051,-9.319050789,-0.04395000264
3.246000051,-9.319050789,-0.04395000264
3.246000051,-9.319050789,-0.04395000264
3.054000139,-9.280050278,-0.08205000311
3.207000256,-9.357000351,-0.02205000073
3.091950178,-9.433950424,-0.02205000073
3.246000051,-9.586950302,-0.04200000316
3.246000051,-9.625050545,-0.08100000024
3.130950212,-9.625050545,-0.05895000324
3.246000051,-9.931950569,-0.01605000161
2.938950062,-9.931950569,-0.07200000435
3.054000139,-9.472050667,-0.0120000001
3.552000284,-9.510000229,-0.08805000782
3.705000162,-10.66005039,-0.001050000079
3.246000051,-10.00800037,-0.08400000632
3.514050245,-8.974050522,-0.03495000303
4.279950142,-8.55300045,-0.07695000619
5.391000271,-8.398950577,0.3940500319
3.130950212,-9.892950058,-1.099050045
1.713000059,-10.3909502,-1.864950061
0.9850500226,-9.510000229,-1.942050099
3.246000051,-8.398950577,-1.903950095
3.705000162,-8.437950134,-2.670000076
4.08795023,-8.13105011,-2.670000076
5.926950455,-7.096950531,-1.864950061
5.16105032,-7.249950409,-1.789050102
4.203000069,-7.939950466,-1.789050102
2.364000082,-7.365000248,-2.823000193
2.671050072,-8.016000748,-2.860950232
3.589950085,-8.590950012,-2.746050119
4.318050385,-9.012000084,-2.631000042
5.926950455,-13.53300095,-3.358950138
1.636950135,-4.414950371,-2.899950027
1.062000036,-4.339050293,-0.6780000329
2.785950184,-8.821050644,1.696050048
4.548000336,-9.088950157,-0.4480500221
4.08795023,-8.208000183,-0.5629500151
4.16505003,-9.012000084,-0.5629500151
3.399000168,-8.896950722,1.122000098
4.16505003,-9.394950867,1.965000153
4.357050419,-9.1270504,1.926000118
3.82005024,-8.896950722,0.3559500277
3.628950119,-8.476050377,0.3559500277
5.353050232,-8.859000206,1.159950018
5.467050076,-8.974050522,1.275000095
4.548000336,-9.012000084,0.7960500121
1.789950132,-9.204000473,0.3940500319
3.552000284,-9.166050911,1.159950018
4.548000336,-8.896950722,1.159950018
4.855050087,-8.476050377,0.2020500153
4.242000103,-8.590950012,0.2790000141
3.897000074,-8.55300045,1.312950015
3.552000284,-8.974050522,1.351950049
3.475050211,-8.513999939,0.6240000129
4.012050152,-8.821050644,0.6619500518
5.544000149,-10.08495045,0.7390500307
6.157050133,-11.73195076,2.731050014
2.709000111,-11.00400066,0.9690000415
0.7170000076,-10.12305069,-1.099050045
0.6019500494,-9.472050667,-1.864950061
2.785950184,-8.859000206,-1.060950041
4.471050262,-9.778050423,-0.1800000072
4.203000069,-10.54500008,-0.1800000072
5.50605011,-10.31505013,3.151950121
4.548000336,-9.012000084,-0.6780000329
2.556000233,-9.088950157,-1.444050074
1.752000093,-8.859000206,-1.329000115
2.709000111,-8.743950844,-0.06495000422
2.709000111,-8.668050766,-1.023000002
2.785950184,-8.629050255,-1.099050045
2.518050194,-8.323050499,-3.130050182
4.893000126,-7.633050442,-2.209950209
7.230000496,-7.825050354,-2.17200017
6.271950245,-6.790050507,-2.133000135
4.585950375,-7.978050232,-1.291050076
3.589950085,-8.782050133,-3.703950167
2.977050066,-8.170050621,-4.432050228
1.789950132,-7.978050232,-4.317000389
1.905000091,-7.518000126,-2.17200017
3.361050129,-15.18000031,-1.213950038
6.118950367,-19.96905136,-1.213950038
5.275950432,-5.373000145,-4.852950096
4.012050152,-4.569000244,-0.868950069
2.901000023,-9.051000595,2.616000175
3.054000139,-11.46405029,2.616000175
2.862000227,-8.323050499,-0.83100003
4.318050385,-9.088950157,1.810950041
4.816050053,-9.088950157,2.998950243
3.82005024,-9.241950035,0.5850000381
2.440950155,-9.586950302,-0.4099500179
1.905000091,-9.54900074,-0.3709500134
2.556000233,-9.280050278,1.045050025
5.851050377,-8.245950699,2.500950098
5.581950188,-7.939950466,0.508949995
5.083950043,-9.088950157,-0.3330000043
4.242000103,-8.821050644,-1.060950041
2.709000111,-8.821050644,1.428000093
2.440950155,-8.668050766,2.041050196
3.0160501,-8.668050766,2.078999996
3.934950113,-9.586950302,1.312950015
3.514050245,-10.04700089,0.5470499992
3.514050245,-9.702000618,-0.295050025
5.42895031,-9.088950157,-1.023000002
7.459950447,-11.84700012,0.1639500111
5.697000504,-12.03900051,0.241050005
3.091950178,-10.66005039,-1.252050042
1.254000068,-10.31505013,-3.244050264
3.705000162,-12.88095093,-2.362950087
5.851050377,-11.69400024,9.127950668
7.957950592,-9.204000473,9.127950668
3.361050129,-7.978050232,-0.7930500507
2.058000088,-8.629050255,-0.7540500164
2.211000204,-8.590950012,0.1639500111
1.636950135,-7.020000458,0.126000002
1.099950075,-6.522000313,-0.6010500193
0.6790500283,-7.135050297,-1.558950067
2.134950161,-7.78605032,-2.938050032
7.420950413,-6.904950142,-3.015000105
6.5020504,-6.253950119,-4.470000267
6.577950478,-8.016000748,-4.470000267
4.855050087,-8.743950844,-4.432050228
0.3340500295,-16.48200035,-3.436050177
7.459950447,-13.37895107,-4.126049995
3.361050129,-5.602950096,-4.048950195
2.901000023,-6.21600008,1.312950015
7.881000519,-13.07295036,1.312950015
6.004050255,-11.50200081,1.312950015
3.436950207,-7.672050476,-0.9079500437
3.897000074,-9.73995018,-0.1030500084
4.510050297,-8.974050522,-0.0270000007
5.046000004,-8.13105011,-0.9460500479
4.510050297,-8.706000328,2.041050196
4.012050152,-8.821050644,2.041050196
2.403000116,-9.1270504,1.390050054
2.479050159,-9.433950424,1.390050054
3.28395009,-9.394950867,1.351950049
4.242000103,-9.433950424,0.6619500518
4.969050407,-8.55300045,0.6240000129
4.471050262,-8.935950279,2.194050074
3.82005024,-8.935950279,1.006950021
3.82005024,-10.3909502,-0.0270000007
3.514050245,-10.00800037,-1.405950069
6.885000229,-11.73195076,-1.405950069
8.647050858,-11.73195076,0.5470499992
6.157050133,-10.54500008,0.5470499992
2.709000111,-9.778050423,-0.9840000272
1.67505002,-13.64805031,-2.860950232
4.43295002,-10.54500008,8.131950378
8.187000275,-8.092950821,8.131950378
2.748000145,-8.170050621,-0.0270000007
1.789950132,-8.590950012,0.04905000329
2.058000088,-8.208000183,0.8539500237
2.25,-7.825050354,-0.0270000007
2.326050043,-6.829050541,-1.023000002
2.785950184,-7.096950531,-2.593050241
3.973050117,-7.633050442,-2.593050241
5.199000359,-6.024000168,-1.827000141
5.314050198,-6.982050419,-1.864950061
6.577950478,-9.472050667,-4.011000156
6.577950478,-10.00800037,-4.087049961
3.705000162,-7.327050209,-5.122050285
2.556000233,-6.714000225,-2.785050154
1.981050134,-8.743950844,-2.670000076
7.459950447,-21.27105141,-3.628050089
2.440950155,-4.377000332,-4.126049995
2.556000233,-3.534000158,2.539050102
2.709000111,-5.679000378,2.616000175
6.5020504,-12.72795105,4.57005024
5.391000271,-8.398950577,-0.5629500151
4.203000069,-7.825050354,-1.252050042
2.440950155,-9.625050545,0.2020500153
1.215000033,-9.241950035,-0.83100003
3.628950119,-8.170050621,2.118000031
5.16105032,-8.092950821,2.233050108
6.157050133,-8.821050644,0.241050005
2.824050188,-9.051000595,-0.6390000582
1.752000093,-9.012000084,-0.5250000358
2.020050049,-9.012000084,0.77700001
4.548000336,-8.629050255,1.428000093
4.855050087,-8.55300045,1.543050051
4.624950409,-8.513999939,1.58100009
3.322050095,-10.12305069,0.7390500307
4.471050262,-9.510000229,0.1639500111
7.383000374,-9.817050934,2.078999996
7.573950291,-9.394950867,2.078999996
3.130950212,-11.61705017,-0.4860000312
-0.01005000062,-10.73595047,-2.325000048
-0.3160500228,-10.73595047,-2.287050009
1.368000031,-11.65605068,1.045050025
5.736000061,-11.69400024,5.182050228
10.94595051,-9.204000473,-4.201950073
4.624950409,-9.357000351,-4.201950073
-0.01005000062,-11.15805054,-1.252050042
0.9469500184,-8.590950012,-0.5250000358
1.94295013,-8.513999939,-3.015000105
3.859050274,-8.706000328,-3.052950144
5.50605011,-6.867000103,-3.015000105
3.246000051,-6.484050274,-3.015000105
2.440950155,-6.100950241,-3.703950167
1.789950132,-6.982050419,-3.51300025
4.050000191,-6.139050484,-2.670000076
4.471050262,-5.257950306,-3.742050171
4.585950375,-3.418950081,-3.666000128
4.624950409,-4.453950405,-2.785050154
3.552000284,-6.406950474,-2.746050119
3.897000074,-7.402950287,-2.746050119
4.012050152,-11.00400066,-4.087049961
1.905000091,-11.50200081,-4.201950073
1.368000031,-11.15805054,-4.27905035
4.701000214,-18.47504997,-4.393949986
3.589950085,-7.939950466,-6.844950199
2.785950184,-6.790050507,-1.750050068
3.705000162,-7.288050175,0.5850000381
4.548000336,-7.441950321,9.166950226
4.43295002,-9.012000084,3.802950144
5.697000504,-9.625050545,-3.589050055
2.977050066,-10.00800037,-3.589050055
0.7170000076,-8.896950722,1.620000124
4.279950142,-9.702000618,0.8149500489
5.238000393,-9.664050102,0.7390500307
5.046000004,-8.896950722,0.1639500111
3.781950235,-8.513999939,2.616000175
3.399000168,-8.476050377,2.653950214
3.399000168,-8.668050766,2.653950214
3.28395009,-8.55300045,0.5470499992
3.589950085,-8.170050621,1.275000095
3.973050117,-8.323050499,1.275000095
4.624950409,-8.974050522,0.5470499992
2.824050188,-8.859000206,0.4320000112
4.893000126,-8.859000206,-0.2070000172
5.7739501,-8.821050644,-0.5010000467
6.195000172,-11.57895088,-0.4860000312
2.020050049,-16.86600113,-6.46200037
2.862000227,-11.00400066,-2.325000048
3.589950085,-8.821050644,3.573000193
9.873000145,-8.896950722,3.343950272
3.207000256,-9.970050812,-0.1030500084
1.330050111,-9.817050934,0.3169500232
0.2190000117,-7.747950554,0.2020500153
3.091950178,-7.78605032,-0.4860000312
6.349050522,-8.398950577,0.9300000668
6.76995039,-8.513999939,-1.137000084
3.628950119,-8.896950722,-3.091050148
3.399000168,-8.092950821,-1.980000138
3.744000196,-7.78605032,-1.942050099
3.246000051,-7.518000126,-1.903950095
2.440950155,-8.055000305,-0.83100003
2.095950127,-9.472050667,-2.095050097
2.593950033,-10.35300064,-3.28305006
3.589950085,-14.95005035,-2.248050213
5.544000149,-9.586950302,-1.137000084
4.855050087,-7.020000458,1.045050025
4.663050175,-6.21600008,1.428000093
2.173050165,-11.69400024,-0.1410000026
1.483050108,-9.817050934,0.5850000381
2.748000145,-9.012000084,0.5850000381
5.42895031,-9.241950035,-1.558950067
4.740000248,-8.590950012,0.5850000381
4.394999981,-8.513999939,1.810950041
4.126950264,-8.859000206,2.769000053
2.671050072,-9.357000351,1.543050051
2.938950062,-9.855000496,1.543050051
3.28395009,-9.625050545,0.6240000129
3.054000139,-9.357000351,0.5470499992
2.748000145,-9.510000229,0.508949995
3.322050095,-9.012000084,0.6619500518
3.781950235,-8.896950722,0.77700001
5.199000359,-9.051000595,1.773000121
4.893000126,-9.625050545,0.6619500518
4.126950264,-9.625050545,-0.6780000329
3.130950212,-9.817050934,-0.7159500122
4.08795023,-9.241950035,0.04905000329
4.394999981,-8.743950844,0.77700001
4.279950142,-9.012000084,0.77700001
2.977050066,-9.394950867,0.77700001
3.130950212,-9.855000496,0.08400000632
2.938950062,-9.586950302,0.08700000495
3.091950178,-9.394950867,0.1639500111
3.361050129,-9.472050667,-0.05505000427
3.399000168,-9.433950424,-0.03495000303
3.091950178,-9.357000351,-0.03495000303
2.632950068,-9.586950302,-0.07200000435
2.632950068,-9.394950867,-0.03495000303
3.130950212,-9.472050667,-0.07304999977
3.169050217,-9.510000229,-0.07304999977
3.207000256,-9.54900074,-0.03495000303
3.130950212,-9.472050667,-0.07304999977
2.938950062,-9.625050545,-0.05205000192
2.785950184,-9.54900074,-0.06795000285
3.169050217,-9.625050545,-0.03000000119
3.246000051,-9.510000229,-0.01305000018
3.28395009,-9.394950867,-0.01305000018
3.246000051,-9.357000351,-0.01305000018
3.207000256,-9.433950424,-0.01305000018
3.399000168,-9.433950424,-0.01305000018
3.322050095,-9.472050667,-0.05205000192
3.169050217,-9.472050667,-0.01305000018
3.28395009,-9.394950867,-0.01305000018
3.246000051,-9.510000229,-0.01305000018
3.28395009,-9.394950867,-0.01305000018
3.0160501,-9.664050102,-0.01305000018
3.130950212,-9.472050667,-0.01305000018
3.130950212,-9.394950867,-0.05205000192
3.322050095,-9.433950424,-0.05205000192
3.091950178,-9.433950424,-0.05205000192
2.977050066,-9.394950867,-0.01305000018
3.169050217,-9.433950424,-0.09495000541
3.169050217,-9.510000229,-0.09495000541
3.322050095,-9.319050789,-0.03495000303
3.436950207,-9.510000229,-0.03495000303
3.054000139,-9.166050911,-0.03495000303
3.28395009,-9.280050278,-0.05595000088
3.744000196,-9.204000473,-0.01800000109
3.859050274,-9.1270504,-0.07800000161
3.246000051,-9.012000084,-0.02205000073
2.901000023,-9.088950157,-0.02205000073
3.934950113,-9.166050911,-0.08205000311
5.581950188,-9.051000595,0.8080500364
5.851050377,-8.590950012,1.735050082
3.934950113,-9.357000351,-0.2560500205
2.824050188,-9.1270504,-0.1410000026
3.514050245,-8.935950279,1.006950021
4.279950142,-9.012000084,1.312950015
4.357050419,-8.706000328,0.508949995
4.050000191,-8.935950279,1.237050056
3.514050245,-9.1270504,1.275000095
3.475050211,-9.357000351,0.04905000329
3.667050123,-9.088950157,0.08700000495
4.548000336,-8.821050644,0.09300000221
5.16105032,-8.398950577,0.2250000089
4.510050297,-8.668050766,0.184950009
3.705000162,-8.668050766,0.02100000158
2.938950062,-8.706000328,-0.1189500093
5.391000271,-8.859000206,-0.2299500108
7.191000462,-10.3909502,0.8539500237
3.054000139,-10.81305027,-0.06495000422
0.3720000088,-10.88895035,-2.056950092
1.789950132,-9.970050812,-1.137000084
4.893000126,-10.00800037,1.198050022
6.577950478,-10.31505013,1.045050025
4.16505003,-8.170050621,-0.5250000358
2.632950068,-7.710000515,0.9300000668
2.671050072,-8.935950279,-0.295050025
2.287950039,-9.357000351,-0.295050025
3.475050211,-9.088950157,-0.295050025
3.246000051,-9.817050934,-1.750050068
2.287950039,-9.280050278,-2.478000164
2.440950155,-8.706000328,-1.711950064
2.709000111,-9.012000084,-0.7159500122
4.548000336,-9.433950424,-1.789050102
5.926950455,-8.668050766,-2.785050154
3.322050095,-7.710000515,-1.903950095
1.94295013,-7.480050564,-1.023000002
2.785950184,-7.825050354,-1.942050099
5.889000416,-7.21200037,-1.942050099
4.816050053,-7.327050209,-2.860950232
4.203000069,-18.550951,-2.899950027
5.581950188,-14.45205116,-4.011000156
-2.691000223,-2.959950209,0.7390500307
3.705000162,-7.594950199,2.653950214
7.000050545,-12.15405083,2.845950127
4.585950375,-8.782050133,1.006950021
4.012050152,-7.327050209,2.233050108
3.552000284,-10.50600052,1.275000095
1.560000062,-9.319050789,-0.1800000072
2.593950033,-9.586950302,-0.1800000072
4.585950375,-8.782050133,2.041050196
5.467050076,-9.1270504,2.118000031
4.279950142,-8.629050255,1.083000064
2.671050072,-8.974050522,1.006950021
2.785950184,-9.664050102,0.9690000415
3.322050095,-8.782050133,1.006950021
4.510050297,-9.166050911,1.045050025
4.08795023,-8.896950722,1.006950021
3.628950119,-9.012000084,-0.3709500134
3.628950119,-8.706000328,-0.3330000043
3.399000168,-9.088950157,-0.295050025
2.556000233,-7.863000393,-0.3709500134
7.498050213,-12.00000095,1.735050082
5.314050198,-12.95805073,1.696050048
0.2959500253,-10.46805096,-1.213950038
1.291950107,-9.357000351,-2.401950121
4.318050385,-8.629050255,1.810950041
8.11095047,-10.27695084,5.527050495
5.42895031,-10.16205025,-0.6780000329
1.94295013,-8.821050644,0.5850000381
0.756000042,-8.821050644,-0.2179500163
2.095950127,-8.016000748,0.6240000129
2.977050066,-7.825050354,0.6240000129
2.593950033,-9.1270504,-0.7540500164
4.012050152,-8.859000206,-1.521000028
3.322050095,-8.092950821,-1.405950069
2.862000227,-7.55700016,-1.213950038
4.663050175,-7.710000515,-0.3330000043
7.459950447,-7.825050354,-2.746050119
8.302050591,-15.06495094,-2.746050119
5.659050465,-14.03100109,-2.785050154
-0.8520000577,-6.829050541,-0.4480500221
-1.04400003,-6.829050541,2.194050074
3.859050274,-11.08095074,0.77700001
10.83105087,-9.73995018,2.616000175
4.816050053,-7.633050442,-0.868950069
1.752000093,-9.357000351,1.006950021
2.403000116,-9.778050423,0.2020500153
2.824050188,-9.166050911,0.126000002
4.318050385,-9.204000473,0.2020500153
4.012050152,-8.590950012,1.006950021
3.589950085,-9.241950035,1.083000064
3.897000074,-9.088950157,-0.6390000582
2.977050066,-9.357000351,-0.5629500151
2.364000082,-9.280050278,0.4320000112
3.667050123,-8.590950012,0.3940500319
4.394999981,-8.170050621,1.390050054
3.589950085,-8.513999939,0.2629500031
3.054000139,-8.361000061,-0.3060000241
2.25,-8.668050766,-0.2560500205
2.709000111,-9.012000084,-0.126000002
3.667050123,-8.743950844,0.1050000042
5.199000359,-8.437950134,-0.3709500134
4.394999981,-7.249950409,-1.980000138
8.953950882,-14.83500099,-1.980000138
6.424950123,-15.60105038,-5.160000324
4.16505003,-14.87400055,-1.252050042
3.973050117,-16.48200035,4.492950439
7.612950325,-6.867000103,1.58100009
-0.2400000095,-9.702000618,-0.4099500179
-1.542000055,-7.747950554,-0.1800000072
3.705000162,-4.492050171,0.8149500489
0.8320500255,-7.441950321,-0.4480500221
-0.9670500755,-8.323050499,-0.4480500221
1.407000065,-5.986050129,-1.405950069
4.893000126,-6.561000347,-2.209950209
4.777950287,-7.978050232,-4.27905035
10.40895081,-10.58295059,-10.83000088
4.855050087,-6.024000168,-6.156000137
-0.8140500188,-9.817050934,-3.589050055
-1.734000087,-18.78105164,5.412000179
1.291950107,-14.60505104,1.504950047
9.873000145,-6.714000225,4.761000156
9.29805088,-8.284049988,1.045050025
4.43295002,-11.61705017,-1.597050071
-0.9670500755,-9.892950058,-1.63500011
0.5260500312,-8.743950844,1.159950018
5.16105032,-7.78605032,1.159950018
4.816050053,-8.513999939,1.237050056
0.6409500241,-7.480050564,0.3940500319
2.440950155,-8.055000305,0.3559500277
7.038000107,-10.62105083,0.2790000141
7.11495018,-9.702000618,-0.5629500151
5.314050198,-9.586950302,-2.287050009
7.881000519,-12.11505032,-1.366950035
7.573950291,-12.00000095,0.2790000141
1.94295013,-11.73195076,-2.019000053
2.173050165,-14.87400055,-2.019000053
0.8320500255,-13.80105019,0.7390500307
3.207000256,-9.012000084,7.480950356
7.881000519,-9.73995018,-3.819000244
3.361050129,-8.284049988,-1.750050068
0.7170000076,-6.943950176,-0.4480500221
0.4870500267,-6.21600008,0.8149500489
0.1810500026,-6.598950386,-0.1800000072
0.02805000171,-6.21600008,-1.789050102
2.977050066,-6.561000347,-2.976000071
6.271950245,-8.437950134,-2.976000071
8.877000809,-9.510000229,-5.197950363
12.09495068,-9.931950569,-8.071050644
5.7739501,-7.78605032,-7.534950256
1.407000065,-12.80505085,-3.436050177
4.279950142,-18.36000061,-0.6010500193
-0.8520000577,-3.571950197,-2.095050097
-2.920950174,-6.100950241,2.118000031
2.785950184,-11.34900093,5.143950462
8.761950493,-10.50600052,3.49695015
7.918950558,-6.637050152,0.8920500278
4.585950375,-9.088950157,-2.554950237
2.938950062,-9.1270504,-2.17200017
2.095950127,-8.935950279,0.508949995
3.667050123,-8.13105011,1.467000127
4.663050175,-8.055000305,1.58100009
3.589950085,-8.513999939,2.308950186
3.934950113,-9.586950302,2.233050108
3.859050274,-10.16205025,-0.1800000072
5.238000393,-10.23795033,-2.287050009
8.034000397,-10.46805096,-1.137000084
10.06500053,-12.03900051,0.9300000668
3.781950235,-13.07295036,-0.7930500507
0.2190000117,-11.08095074,-4.317000389
2.440950155,-10.08495045,-1.060950041
3.0160501,-11.11905098,5.451000214
11.02200031,-10.58295059,2.233050108
4.126950264,-9.433950424,-0.83100003
1.177050114,-6.484050274,-0.83100003
3.628950119,-4.414950371,0.241050005
3.934950113,-4.683000088,1.198050022
1.444950104,-8.706000328,1.198050022
0.2959500253,-8.13105011,0.126000002
-1.771950126,-5.908950329,-2.746050119
9.643050194,-9.855000496,-5.007000446
14.47005081,-14.06895065,-11.82600021
7.459950447,-9.280050278,-7.114050388
2.785950184,-16.09905052,0.08700000495
-2.232000113,-10.73595047,0.8539500237
-0.9670500755,-3.916950226,-0.6390000582
4.585950375,-7.480050564,2.961000204
6.349050522,-8.513999939,3.957000256
5.467050076,-8.590950012,3.918000221
2.862000227,-9.625050545,-0.9079500437
4.126950264,-8.629050255,-3.244050264
3.091950178,-9.970050812,0.08700000495
2.020050049,-9.73995018,0.9690000415
1.444950104,-9.394950867,0.3559500277
1.560000062,-8.935950279,1.159950018
3.552000284,-9.241950035,-0.5629500151
3.973050117,-9.204000473,-0.4860000312
6.079950333,-9.855000496,-1.291050076
1.407000065,-10.73595047,-2.287050009
5.391000271,-11.80905056,-1.444050074
7.573950291,-11.57895088,-1.521000028
1.713000059,-12.34500027,-1.521000028
0.6790500283,-12.61305046,-4.585050106
3.054000139,-12.00000095,-1.597050071
5.046000004,-10.23795033,7.902000427
7.383000374,-10.16205025,2.577000141
2.556000233,-8.782050133,-2.823000193
0.3340500295,-6.561000347,-0.1800000072
1.483050108,-6.369000435,-0.0270000007
1.560000062,-7.249950409,0.04905000329
0.4110000134,-7.441950321,-0.7540500164
0.06599999964,-6.675000191,-2.401950121
1.713000059,-7.288050175,-3.091050148
4.969050407,-8.821050644,-3.703950167
8.877000809,-9.931950569,-5.313000202
7.11495018,-10.04700089,-9.06704998
2.479050159,-9.73995018,-5.773050308
2.938950062,-18.550951,-2.593050241
4.203000069,-3.879000187,-1.405950069
-0.8140500188,-7.518000126,-0.4480500221
-2.653050184,-5.718000412,1.810950041
2.25,-10.62105083,4.990950108
7.804050446,-9.664050102,3.880050182
7.68900013,-10.73595047,0.4699500203
4.203000069,-8.782050133,-6.040950298
2.173050165,-8.821050644,5.259000301
3.859050274,-8.706000328,2.463000059
3.322050095,-9.241950035,0.508949995
3.589950085,-8.13105011,2.500950098
5.620950222,-8.821050644,2.500950098
7.804050446,-9.088950157,1.696050048
6.5020504,-9.204000473,0.8149500489
6.424950123,-9.357000351,0.8149500489
7.765950203,-9.778050423,0.4320000112
7.267950535,-11.38695049,0.6240000129
5.7739501,-10.85100079,2.233050108
4.969050407,-9.433950424,3.649950266
2.479050159,-8.896950722,7.672950268
5.697000504,-7.288050175,5.335950375
8.149050713,-8.361000061,1.810950041
5.581950188,-9.204000473,2.731050014
2.632950068,-7.096950531,3.765000105
0.6409500241,-6.100950241,4.30095005
1.330050111,-5.679000378,2.041050196
1.177050114,-5.87100029,-0.2560500205
6.157050133,-7.900950432,-0.2179500163
10.06500053,-9.54900074,4.953000069
4.203000069,-8.782050133,8.247000694
3.361050129,-7.020000458,6.790950298
4.855050087,-8.974050522,1.735050082
7.996050358,-9.510000229,-3.397950172
1.024049997,-9.433950424,5.02905035
4.16505003,-8.668050766,10.12395
3.207000256,-6.331050396,11.427001
4.510050297,-4.645050049,10.16295052
5.889000416,-3.534000158,6.906000137
3.628950119,-2.767950058,5.604000092
2.593950033,-3.496050119,7.060050488
3.552000284,-2.385000229,8.782950401
3.169050217,-1.849050045,7.480950356
2.901000023,-1.771950126,6.523050308
0.9469500184,-2.653050184,6.523050308
-1.963050127,-2.34705019,8.131950378
-0.5080500245,-2.959950209,13.0360508
5.50605011,-6.063000202,11.69505024
3.130950212,-5.104950428,9.970950127
2.173050165,-5.565000057,8.284950256
2.134950161,-5.5260005,9.933000565
2.364000082,-4.377000332,10.00905037
2.593950033,-4.837050438,10.00905037
2.632950068,-3.726000071,8.476950645
2.211000204,-3.649050236,8.362050056
2.479050159,-3.073950052,8.362050056
2.173050165,-2.61495018,8.400000572
2.287950039,-2.500050068,8.43900013
2.479050159,-2.002050161,8.554050446
2.748000145,-2.002050161,8.592000008
2.901000023,-2.34705019,9.43500042
3.322050095,-2.116950035,10.27695084
3.436950207,-2.0400002,9.976950645
3.246000051,-2.077950001,9.73500061
3.054000139,-1.351050019,9.178050041
2.211000204,-1.542000055,9.238950729
1.368000031,-1.734000087,10.24305058
1.062000036,-1.734000087,11.92500019
0.9469500184,-0.9289500713,9.358050346
-0.01005000062,-0.1249500066,8.400000572
0.6409500241,0.7170000076,9.396000862
0.9090000391,-0.01005000062,9.358050346
0.756000042,-0.5839500427,9.205050468
1.483050108,-0.08595000207,9.205050468
1.981050134,0.6400500536,9.205050468
1.905000091,0.5640000105,9.127950668
1.560000062,0.7170000076,9.856050491
1.866000056,0.9850500226,9.873000145
2.134950161,1.330050111,10.49505043
2.134950161,1.024049997,10.15005016
2.440950155,0.7170000076,10.15200043
1.94295013,0.6790500283,10.02705002
0.5640000105,-1.695000052,13.95705032
1.291950107,-2.575950146,12.2310009
2.058000088,-1.618950129,9.778950691
2.134950161,0.4870500267,8.284950256
1.024049997,1.099950075,8.323950768
0.8320500255,0.9469500184,9.625950813
1.215000033,0.4110000134,9.664950371
1.866000056,0.6019500494,9.588000298
1.828050137,1.062000036,9.472949982
1.828050137,1.215000033,9.396000862
2.020050049,0.9469500184,9.205050468
2.364000082,1.291950107,9.280950546
2.058000088,1.407000065,9.74505043
1.636950135,1.483050108,9.580050468
1.866000056,2.326050043,9.529050827
0.9850500226,2.74695015,10.56495094
-0.201000005,0.3720000088,12.71595097
0.756000042,-0.3550500274,11.46495056
0.9090000391,-0.01005000062,8.821949959
0.4489500225,0.8700000644,8.821949959
0.5260500312,1.444950104,8.860050201
1.062000036,1.062000036,9.588000298
1.254000068,0.4870500267,9.472949982
1.560000062,1.522050023,9.243000031
1.483050108,2.173050165,9.090000153
0.6790500283,2.248950005,9.090000153
0.6790500283,2.287950039,9.778950691
0.6790500283,2.440950155,9.778950691
0.9469500184,2.709000111,10.81395054
0.9090000391,2.440950155,10.42995071
1.330050111,2.901000023,10.52400017
0.9090000391,1.981050134,10.38900089
0.2959500253,-0.6229500175,11.84805012
0.6790500283,-1.159050107,11.88600063
1.636950135,-0.5460000038,10.16295052
1.215000033,0.2569500208,8.745000839
0.5260500312,0.6019500494,8.898000717
0.2190000117,1.252950072,9.856050491
0.3720000088,1.597950101,9.741000175
0.5260500312,1.597950101,8.782950401
0.6409500241,1.291950107,8.745000839
1.177050114,2.095950127,8.821949959
1.330050111,1.94295013,10.00905037
1.368000031,2.095950127,9.970950127
1.597950101,2.403000116,9.952950478
1.099950075,2.632050037,9.712950706
0.9850500226,2.938950062,9.919950485
0.9090000391,3.858000278,10.23900032
-1.159050107,0.3720000088,12.00105095
-0.5460000038,-0.08595000207,12.92100048
0.3720000088,0.4870500267,10.04805088
0.2959500253,0.5640000105,8.515049934
-0.7759500146,1.252950072,8.43900013
-0.5080500245,1.750950098,9.43500042
0.2959500253,1.560000062,9.472949982
0.7170000076,1.713000059,9.319950104
0.7939500213,2.287950039,8.515049934
0.6409500241,2.556000233,8.515049934
0.7939500213,2.364000082,9.358050346
0.5640000105,2.74695015,9.664950371
0.1810500026,2.74695015,9.625950813
0.4870500267,3.0160501,9.927000046
0.3340500295,3.130950212,9.664050102
-0.04800000042,2.479050159,9.56400013
1.483050108,2.74695015,9.466050148
1.330050111,2.364000082,9.544950485
-0.1630500108,-0.4309500158,12.7680006
1.368000031,-0.3550500274,11.11995029
1.67505002,-0.1249500066,8.400000572
0.6790500283,-0.201000005,9.894000053
0.06599999964,0.6019500494,10.66095066
0.4870500267,1.750950098,9.511050224
0.7939500213,1.828050137,8.400000572
1.062000036,1.597950101,8.400000572
1.062000036,2.020050049,9.013050079
1.177050114,1.597950101,9.052050591
0.9090000391,1.713000059,10.00905037
1.444950104,1.94295013,10.00905037
1.752000093,2.173050165,9.856050491
1.636950135,2.403000116,9.688950539
1.062000036,2.058000088,9.691950798
0.8320500255,2.134050131,9.67800045
0.6019500494,3.207000256,9.624000549
-0.6229500175,1.368000031,10.2829504
-1.006049991,-0.3160500228,12.30795097
-0.9289500713,-0.6229500175,10.62195015
-0.5080500245,0.3720000088,9.511050224
-0.7380000353,1.138050079,9.43500042
-0.7759500146,0.9469500184,9.43500042
0.1810500026,0.7939500213,9.550050735
1.560000062,1.368000031,9.090000153
1.789950132,2.211000204,7.825950146
1.444950104,2.440950155,7.825950146
2.134950161,2.095950127,9.472949982
1.752000093,2.134050131,10.27695084
1.67505002,2.440950155,9.43500042
1.024049997,2.862000227,9.43500042
0.7939500213,2.556000233,10.35405064
1.597950101,3.054000139,10.88205051
1.789950132,4.240950108,10.27695084
0.3340500295,-0.3550500274,12.61395073
0.7939500213,-2.500050068,14.98905087
1.368000031,-0.4699500203,10.20105076
1.789950132,1.138050079,7.558050156
1.177050114,1.597950101,8.400000572
-0.1249500066,0.9469500184,9.43500042
0.02805000171,1.560000062,10.50705051
0.8320500255,1.750950098,10.31595039
1.099950075,2.248950005,8.860050201
1.138950109,2.403000116,8.821949959
0.9090000391,2.632050037,9.588000298
0.9090000391,2.938950062,9.472949982
1.368000031,2.938950062,9.43500042
1.330050111,3.207000256,9.322050095
1.024049997,2.671050072,9.952950478
0.4870500267,3.436950207,10.26705074
-0.6229500175,1.905000091,10.13295078
-1.197000027,-1.04400003,12.11595058
-0.5080500245,-0.6990000606,12.11595058
-0.2400000095,1.636050105,9.013050079
-1.159050107,1.905000091,8.284950256
-1.159050107,-0.6990000606,10.46895027
0.4110000134,-1.120950103,11.96295071
0.8320500255,0.7939500213,10.50705051
1.138950109,1.981050134,8.97495079
1.444950104,1.713000059,8.056050301
1.177050114,1.636050105,8.170949936
0.6409500241,1.444950104,9.243000031
0.6019500494,1.67505002,10.20105076
0.6790500283,2.020050049,10.20105076
1.099950075,1.981050134,10.23900032
1.138950109,1.713000059,10.27695084
0.7939500213,1.560000062,9.841950417
1.330050111,2.326050043,9.661050797
0.5640000105,2.020050049,9.679050446
0.8320500255,0.1810500026,9.700050354
1.789950132,-0.5460000038,13.91700077
1.713000059,-0.3160500228,9.319950104
1.713000059,0.6400500536,6.255000114
1.099950075,1.522050023,6.217050076
-0.9289500713,1.215000033,11.08200073
0.06599999964,1.062000036,10.96695042
0.06599999964,1.866000056,9.090000153
-0.08595000207,2.74695015,8.362050056
-0.3160500228,3.130950212,8.43900013
-0.1630500108,3.28395009,8.554050446
0.06599999964,3.436950207,9.817950249
-0.3160500228,3.207000256,10.89000034
-0.3540000021,2.593950033,12.30795097
-0.4309500158,2.977050066,12.2310009
-1.657050133,1.905000091,12.15495014
-1.081950068,0.5260500312,12.19305038
-0.3930000067,0.5640000105,10.20105076
-1.04400003,1.905000091,7.864050388
-2.232000113,1.866000056,7.864050388
-2.0400002,1.024049997,9.856050491
-0.7380000353,1.368000031,9.894000053
-0.2779500186,2.287950039,8.97495079
-0.2400000095,2.403000116,7.864050388
-0.2779500186,2.403000116,8.668950081
-0.6229500175,2.556000233,8.782950401
-0.7380000353,2.671050072,9.511950493
-0.5460000038,2.862000227,10.12305069
-0.2779500186,3.169050217,10.12605095
-0.08595000207,2.709000111,10.42905045
1.407000065,2.74695015,9.898050308
0.4870500267,1.750950098,10.21095085
-0.46905002,0.2569500208,14.15505028
1.407000065,0.3720000088,12.61395073
1.407000065,-0.08595000207,8.017050743
0.7170000076,0.2959500253,7.941000462
-0.5080500245,0.6400500536,10.00905037
-0.46905002,1.368000031,10.00905037
-0.08595000207,1.789950132,9.894000053
0.2959500253,2.173050165,8.821949959
0.02805000171,2.518050194,8.821949959
-0.01005000062,2.709000111,8.97495079
0.3340500295,2.938950062,9.664950371
0.5260500312,3.054000139,9.625950813
0.3340500295,3.091950178,10.50705051
-0.08595000207,2.593950033,10.62195015
0.6019500494,3.82005024,10.54395008
-2.806050062,1.062000036,11.25300026
-0.5080500245,0.2190000117,13.8400507
0.2959500253,0.8700000644,8.362050056
0.06599999964,1.905000091,8.209050179
-1.04400003,1.750950098,8.209050179
-0.2779500186,1.444950104,9.778950691
0.3720000088,1.522050023,9.817950249
0.7939500213,2.403000116,8.937000275
0.5640000105,2.556000233,8.056050301
0.3720000088,2.901000023,8.821949959
0.4110000134,3.207000256,8.821949959
0.02805000171,3.360000134,9.588000298
0.02805000171,3.28395009,9.664950371
0.1429500133,3.436950207,10.43100071
0.5640000105,3.091950178,10.43100071
1.024049997,2.785950184,10.31295013
0.6409500241,1.94295013,9.463950157
0.1429500133,0.4489500225,13.68705082
1.483050108,0.1039500013,11.19705009
1.291950107,0.4489500225,9.013050079
0.1810500026,1.407000065,9.319950104
-0.4309500158,1.522050023,9.43500042
-0.201000005,2.058000088,9.43500042
0.1810500026,2.364000082,8.476950645
0.4110000134,2.785950184,8.476950645
0.3340500295,2.938950062,8.592000008
0.5640000105,2.74695015,9.625950813
0.7939500213,2.862000227,9.625950813
1.062000036,3.360000134,9.511050224
1.138950109,3.514050245,9.396000862
0.5640000105,2.785950184,9.817050934
0.8320500255,3.360000134,9.532050133
-0.7380000353,4.08795023,9.405000687
-1.81005013,2.058000088,12.88200092
-0.7759500146,0.9469500184,11.84805012
-0.4309500158,1.560000062,8.43900013
-1.04400003,2.095950127,8.323950768
-1.657050133,1.94295013,10.23900032
-0.6610500216,2.020050049,10.12395
0.1039500013,2.287950039,8.668950081
0.2959500253,2.901000023,7.864050388
0.02805000171,2.977050066,7.864050388
-0.2400000095,3.169050217,8.253000259
-0.3160500228,3.514050245,9.205050468
-0.3540000021,3.514050245,9.339000702
-0.201000005,3.589950085,9.753000259
-0.1249500066,3.552000284,9.808050156
0.2580000162,2.709000111,9.556050301
0.02805000171,2.095950127,9.433050156
-0.8910000324,1.67505002,9.853050232
-0.6229500175,0.1039500013,13.11195087
1.444950104,-0.201000005,9.664950371
1.254000068,-0.5460000038,8.400000572
0.1429500133,-0.3550500274,9.472949982
-1.120950103,0.2190000117,10.81395054
0.06599999964,-0.1249500066,10.81395054
0.8320500255,2.058000088,8.094000816
-0.8140500188,2.020050049,7.9789505
-0.1249500066,1.67505002,8.209050179
-0.4309500158,2.824050188,9.472949982
0.06599999964,2.862000227,10.27695084
0.4870500267,3.054000139,9.127950668
1.024049997,4.240950108,10.20105076
0.1810500026,4.854000092,8.592000008
-0.2400000095,5.008050442,10.00905037
-1.542000055,5.50605011,10.04805088
-3.687000275,2.211000204,12.53805065
-1.887000084,2.364000082,10.92900085
-0.8140500188,2.862000227,8.094000816
-0.08595000207,3.781950235,4.990950108
-1.542000055,3.781950235,6.790950298
-0.8910000324,3.0160501,8.247000694
0.02805000171,2.134050131,7.864050388
-0.7759500146,3.552000284,7.327950478
6.004050255,2.020050049,7.404000282
3.82005024,1.560000062,7.443000317
1.67505002,0.2569500208,5.335950375
1.905000091,0.2190000117,5.106000423
0.4489500225,-1.236000061,6.484950542
2.671050072,-2.538000107,4.953000069
5.812050343,-4.300050259,4.990950108
11.02200031,-5.067000389,5.068050385
11.52000046,-7.78605032,3.343950272
13.39695072,-8.016000748,5.106000423
12.21000099,-7.633050442,4.990950108
12.2860508,-7.900950432,0.08700000495
15.65805054,-6.561000347,-0.0270000007
15.38895035,-6.139050484,-1.864950061
15.81105042,-5.641050339,-3.052950144
9.949950218,-5.220000267,-1.482000113
6.655050278,-5.5260005,-4.432050228
6.004050255,-5.296050072,-8.991000175
8.11095047,-5.449950218,-4.852950096
0.1810500026,-7.096950531,-2.095050097
5.238000393,-5.257950306,0.01095000096
11.40495014,-2.500050068,-4.27905035
10.63905048,-1.924950123,-5.275050163
14.50800037,-2.767950058,-4.509000301
6.310050488,-4.837050438,-0.6780000329
12.66900063,-1.734000087,-0.4099500179
3.207000256,-4.951950073,4.761000156
5.889000416,-3.036000252,-1.711950064
6.310050488,-3.994050264,0.3559500277
7.881000519,-3.381000042,-0.4480500221
10.44795036,-3.112950087,0.241050005
7.191000462,-2.806050062,0.1639500111
9.222000122,-2.806050062,-0.6010500193
9.145050049,-2.0400002,0.08700000495
9.145050049,-2.959950209,-1.060950041
10.17900085,-2.308050156,0.241050005
12.0180006,-2.077950001,0.1639500111
11.29005051,-3.457950115,-1.597050071
11.78805065,0.02805000171,-0.7930500507
11.86500072,-2.61495018,0.7390500307
11.06100082,-7.135050297,1.467000127
10.67700005,-14.1070509,-0.1030500084
1.67505002,-8.974050522,0.8920500278
4.050000191,-5.335050106,2.500950098
10.33305073,-8.782050133,-4.738050461
6.616950512,-4.569000244,-4.317000389
7.728000164,-4.53000021,-0.3330000043
4.510050297,-3.763950109,-0.5250000358
4.585950375,-3.534000158,0.7390500307
4.242000103,-5.143050194,-1.366950035
5.96505022,-4.377000332,-1.366950035
7.68900013,-2.61495018,-4.048950195
18.87495041,-5.947950363,-7.765050411
13.47405052,-6.904950142,-6.501000404
8.532000542,-6.598950386,-4.126049995
7.536000252,-11.65605068,0.700050056
1.138950109,-5.641050339,-1.444050074
1.789950132,-2.883000135,3.420000076
3.744000196,-4.875,5.680050373
15.08295059,-9.817050934,-1.175999999
5.16105032,-2.653050184,0.01095000096
4.050000191,-7.747950554,3.765000105
5.238000393,-8.055000305,1.312950015
5.544000149,-6.790050507,-0.2179500163
3.436950207,-5.755950451,2.500950098
4.203000069,-8.361000061,2.577000141
5.50605011,-7.78605032,1.620000124
8.992050171,-10.88895035,3.190050125
7.84305048,-12.76695061,1.467000127
7.306050301,-12.99600029,-2.248050213
6.577950478,-13.41795063,-1.137000084
3.859050274,-12.15405083,-1.942050099
5.046000004,-15.75495052,-1.137000084
5.736000061,-12.61305046,6.600000381
4.012050152,-9.931950569,3.075000048
2.671050072,-8.859000206,-1.252050042
2.403000116,-5.87100029,1.122000098
2.095950127,-6.177000523,1.083000064
1.099950075,-6.484050274,1.045050025
0.756000042,-5.5260005,0.241050005
0.02805000171,-5.947950363,0.126000002
0.3340500295,-6.331050396,-1.750050068
3.091950178,-10.50600052,-4.509000301
16.88295174,-14.26095104,-9.604050636
7.957950592,-9.051000595,-14.92905045
2.824050188,-11.46405029,-4.393949986
0.756000042,-15.67800045,0.9690000415
0.9090000391,-5.641050339,5.068050385
0.1039500013,-3.916950226,-1.864950061
-0.2400000095,-12.57495022,2.616000175
7.345050335,-9.664050102,2.233050108
7.612950325,-8.706000328,1.504950047
4.08795023,-8.284049988,0.04905000329
1.407000065,-8.092950821,-0.9840000272
0.6409500241,-8.437950134,0.5850000381
0.9850500226,-8.935950279,2.041050196
3.973050117,-11.11905098,1.159950018
4.203000069,-11.38695049,0.2790000141
4.16505003,-11.1960001,-1.099050045
2.785950184,-11.425951,-2.095050097
5.926950455,-14.03100109,-1.023000002
7.191000462,-12.69000053,-1.023000002
4.969050407,-13.37895107,-1.789050102
4.701000214,-14.3760004,1.351950049
2.748000145,-11.38695049,4.225049973
1.752000093,-8.437950134,0.77700001
4.318050385,-8.743950844,-1.405950069
2.901000023,-6.867000103,-0.4480500221
1.866000056,-6.637050152,0.8920500278
1.291950107,-6.637050152,1.006950021
0.6790500283,-5.718000412,0.4699500203
0.02805000171,-5.488050461,-0.6010500193
0.1039500013,-4.875,-2.860950232
4.624950409,-11.69400024,-4.201950073
10.94595051,-12.80505085,-11.86395073
5.391000271,-7.633050442,-8.032950401
3.628950119,-17.01900101,-0.83100003
1.789950132,-10.35300064,0.508949995
-2.653050184,-2.653050184,1.620000124
-1.542000055,-6.063000202,1.620000124
2.709000111,-11.11905098,3.420000076
8.034000397,-12.69000053,2.577000141
4.16505003,-9.012000084,-0.6010500193
6.349050522,-6.943950176,1.696050048
1.099950075,-8.398950577,0.77700001
-0.4309500158,-10.04700089,0.77700001
0.4870500267,-9.931950569,1.696050048
4.740000248,-7.900950432,1.657950044
3.322050095,-10.46805096,0.1639500111
4.663050175,-9.510000229,1.122000098
6.885000229,-10.66005039,-0.7159500122
4.16505003,-11.73195076,-1.63500011
4.548000336,-12.84300041,0.4320000112
1.099950075,-13.37895107,-0.7540500164
1.828050137,-14.06895065,-2.938050032
5.736000061,-12.00000095,3.880050182
6.234000206,-9.472050667,3.573000193
6.655050278,-10.42995071,-1.711950064
2.785950184,-8.782050133,0.6240000129
1.713000059,-5.373000145,0.700050056
1.828050137,-5.947950363,0.7390500307
2.287950039,-5.755950451,0.8149500489
-0.6229500175,-7.594950199,-0.1800000072
-0.7380000353,-6.714000225,-1.175999999
-1.081950068,-8.782050133,-3.244050264
9.757950783,-14.33700085,-7.765050411
13.43595028,-10.62105083,-14.77500057
2.632950068,-14.83500099,-6.309000492
6.079950333,-15.4480505,1.810950041
-2.116950035,-3.381000042,0.8920500278
-4.300050259,-3.994050264,1.428000093
-1.426950097,-11.61705017,3.68805027
5.544000149,-8.208000183,1.735050082
7.651050568,-9.472050667,0.7390500307
6.961950302,-10.46805096,-0.868950069
4.43295002,-9.166050911,-0.83100003
2.020050049,-8.055000305,0.5470499992
0.1429500133,-8.629050255,1.428000093
1.138950109,-9.586950302,3.075000048
2.364000082,-11.84700012,-0.3330000043
4.624950409,-9.012000084,-2.593050241
7.68900013,-10.31505013,-2.670000076
6.5020504,-11.08095074,-0.1800000072
8.187000275,-12.11505032,0.700050056
5.581950188,-12.26895046,-0.5250000358
0.8320500255,-13.91595078,-3.819000244
-0.2400000095,-16.48200035,-1.291050076
1.67505002,-9.241950035,3.994950294
10.25595093,-7.594950199,-0.1800000072
6.310050488,-7.78605032,-1.597050071
2.211000204,-5.833050251,0.508949995
0.7939500213,-6.369000435,0.508949995
0.6409500241,-6.292050362,0.5470499992
0.2959500253,-5.679000378,-0.4480500221
-0.2400000095,-5.908950329,-1.252050042
-0.9289500713,-5.87100029,-2.133000135
17.22795105,-15.75495052,-4.317000389
11.82705021,-9.664050102,-14.77500057
3.514050245,-6.829050541,-6.616050243
1.024049997,-16.06095123,0.01095000096
1.713000059,-13.53300095,0.2020500153
-2.308050156,-2.077950001,-0.9079500437
-2.691000223,-3.036000252,2.961000204
2.748000145,-11.88495064,5.412000179
10.02600002,-15.02700043,5.910000324
6.693000317,-6.369000435,-5.197950363
4.777950287,-9.166050911,-3.358950138
1.254000068,-8.629050255,2.539050102
0.6019500494,-8.361000061,2.616000175
2.593950033,-9.012000084,1.888050079
3.744000196,-9.73995018,0.2020500153
5.16105032,-9.970050812,0.1639500111
5.42895031,-9.817050934,-0.868950069
6.577950478,-10.46805096,-1.864950061
5.889000416,-11.84700012,-1.827000141
7.728000164,-11.11905098,-1.789050102
5.16105032,-12.15405083,-2.860950232
3.744000196,-15.67800045,-1.750050068
0.9090000391,-12.88095093,6.178050518
6.079950333,-8.016000748,0.126000002
7.11495018,-8.476050377,-0.6010500193
2.287950039,-7.978050232,0.241050005
0.4489500225,-7.480050564,1.467000127
0.6409500241,-6.751950264,0.3940500319
0.7939500213,-5.87100029,-0.4099500179
0.2959500253,-6.063000202,-0.4860000312
-0.7380000353,-5.449950218,-2.095050097
5.851050377,-9.394950867,-3.052950144
16.07895088,-12.72795105,-10.90605068
7.68900013,-7.365000248,-7.612050533
1.560000062,-14.33700085,-3.436050177
1.099950075,-18.89595032,-1.023000002
-1.618950129,-3.610950232,-2.248050213
-0.4309500158,-3.916950226,3.765000105
2.977050066,-8.782050133,6.447000504
13.70400047,-14.71995068,6.331950188
5.083950043,-7.939950466,-8.761050224
3.399000168,-9.012000084,-2.707950115
2.058000088,-9.241950035,2.386050224
-0.01005000062,-7.747950554,2.961000204
1.636950135,-9.510000229,1.159950018
3.973050117,-9.051000595,0.04905000329
4.777950287,-9.586950302,0.2020500153
4.855050087,-9.510000229,0.241050005
5.199000359,-10.20000076,-1.213950038
5.889000416,-9.970050812,-1.252050042
7.345050335,-11.425951,-0.1410000026
6.655050278,-11.38695049,-0.83100003
4.012050152,-11.11905098,-2.362950087
1.752000093,-12.72795105,-3.168000221
0.8320500255,-13.80105019,1.312950015
3.705000162,-10.23795033,3.918000221
9.259950638,-8.935950279,-1.175999999
4.357050419,-7.365000248,0.3559500277
1.099950075,-6.598950386,0.3940500319
0.8700000644,-6.445950508,0.4320000112
0.06599999964,-6.598950386,0.4699500203
-0.46905002,-6.829050541,-0.7159500122
-0.5839500427,-6.790050507,-1.711950064
3.207000256,-9.433950424,-3.015000105
11.02200031,-12.11505032,-6.999000549
10.86900043,-10.04700089,-10.98300076
5.008050442,-9.1270504,-4.852950096
3.361050129,-16.75094986,-0.868950069
-0.08595000207,-8.859000206,-0.7159500122
-1.04400003,-3.687000275,-0.7930500507
-0.46905002,-5.5260005,2.539050102
2.938950062,-10.69800091,5.986950397
15.35100079,-11.73195076,3.994950294
-0.2779500186,-7.633050442,-4.62405014
0.7939500213,-9.433950424,-3.934050083
3.169050217,-9.54900074,1.657950044
3.744000196,-7.78605032,2.118000031
3.973050117,-8.974050522,0.2790000141
2.748000145,-8.782050133,0.3559500277
2.938950062,-9.1270504,1.620000124
3.934950113,-10.08495045,1.657950044
5.736000061,-9.970050812,-0.6390000582
5.926950455,-9.970050812,-2.478000164
7.267950535,-11.96205044,-0.2179500163
7.153050423,-11.96205044,-1.060950041
1.905000091,-11.73195076,-4.126049995
2.518050194,-14.5669508,-2.095050097
1.905000091,-13.49400043,3.957000256
6.540000439,-8.629050255,2.92200017
7.000050545,-8.092950821,-0.6780000329
2.134950161,-6.982050419,0.8539500237
0.7939500213,-6.21600008,0.8539500237
0.5640000105,-6.484050274,0.5850000381
1.368000031,-6.406950474,0.5850000381
0.4489500225,-6.598950386,-1.558950067
-0.01005000062,-6.867000103,-1.63500011
4.855050087,-10.42995071,-2.746050119
15.19800091,-12.69000053,-9.679950714
9.10695076,-6.675000191,-8.416049957
2.287950039,-13.72395039,-4.509000301
3.705000162,-17.17200089,0.4320000112
-1.81005013,-5.373000145,-1.521000028
-1.159050107,-4.147050381,-0.2560500205
1.444950104,-8.092950821,4.455000401
7.420950413,-14.14605045,6.331950188
8.149050713,-8.859000206,-0.4099500179
5.851050377,-7.633050442,-5.46600008
2.938950062,-10.27695084,-2.133000135
-0.5839500427,-8.476050377,2.845950127
1.215000033,-9.012000084,1.504950047
3.667050123,-9.357000351,1.543050051
4.893000126,-9.510000229,2.34795022
4.930950165,-10.20000076,0.4320000112
4.816050053,-10.35300064,-1.597050071
5.812050343,-10.04700089,-1.597050071
8.11095047,-12.03900051,-0.06495000422
7.230000496,-11.84700012,-1.482000113
1.597950101,-12.26895046,-2.248050213
1.560000062,-14.03100109,-0.868950069
0.756000042,-12.00000095,5.910000324
7.68900013,-8.476050377,2.002950191
6.732000351,-8.016000748,-0.868950069
3.322050095,-7.020000458,0.241050005
1.138950109,-6.714000225,0.3169500232
0.5260500312,-7.096950531,1.159950018
0.756000042,-6.139050484,-0.4480500221
0.02805000171,-6.522000313,-1.521000028
0.2959500253,-6.943950176,-1.521000028
5.96505022,-10.50600052,-3.20595026
18.79905128,-12.61305046,-10.33200073
8.761950493,-6.561000347,-9.181950569
1.905000091,-14.03100109,-2.325000048
2.287950039,-19.69995117,1.006950021
-3.112950087,-3.95595026,-1.597050071
-2.730000019,-2.500050068,1.390050054
1.789950132,-9.970050812,6.676050186
9.490050316,-15.9079504,6.71505022
7.345050335,-7.900950432,-2.362950087
6.118950367,-7.863000393,-5.88795042
3.0160501,-9.778050423,0.8149500489
0.6790500283,-8.092950821,3.994950294
1.024049997,-8.743950844,2.998950243
2.173050165,-9.319050789,1.351950049
3.897000074,-9.54900074,1.312950015
5.467050076,-9.817050934,0.1639500111
5.581950188,-10.04700089,-1.558950067
4.930950165,-10.08495045,-1.558950067
8.11095047,-12.46005058,0.508949995
5.736000061,-11.65605068,-0.9460500479
2.020050049,-11.08095074,-3.589050055
2.173050165,-14.03100109,-1.521000028
0.7939500213,-13.26495075,4.953000069
7.573950291,-9.280050278,3.304950237
5.7739501,-7.747950554,-0.5250000358
2.479050159,-7.059000492,0.7390500307
0.756000042,-6.484050274,0.8539500237
0.1810500026,-6.790050507,0.9300000668
1.177050114,-5.986050129,-0.06495000422
0.6790500283,-6.100950241,-0.83100003
0.5260500312,-6.100950241,-1.711950064
4.740000248,-10.20000076,-3.015000105
18.49200058,-14.29905033,-11.36595058
6.732000351,-6.177000523,-8.416049957
-0.3540000021,-11.54100037,-0.1410000026
1.828050137,-16.75094986,1.849950075
-1.695000052,-6.637050152,-2.707950115
-0.46905002,-5.143050194,-1.137000084
1.597950101,-7.480050564,8.170949936
10.79205036,-12.84300041,7.098000526
7.345050335,-10.00800037,-0.4099500179
3.744000196,-7.900950432,-6.424050331
3.361050129,-9.664050102,1.159950018
0.9469500184,-8.016000748,3.075000048
1.330050111,-8.668050766,1.735050082
3.322050095,-8.590950012,1.696050048
4.050000191,-9.394950867,1.810950041
4.624950409,-10.50600052,0.508949995
5.697000504,-10.35300064,-1.674000025
5.926950455,-9.433950424,-0.7540500164
9.222000122,-12.38295078,-0.7540500164
6.616950512,-11.11905098,-2.056950092
2.824050188,-13.64805031,-2.095050097
2.364000082,-15.33300114,0.3940500319
-1.542000055,-12.65205097,4.914000034
6.616950512,-8.55300045,-0.5629500151
6.922950268,-8.284049988,-1.444050074
1.560000062,-6.331050396,0.9300000668
-0.08595000207,-6.100950241,0.8149500489
0.3340500295,-6.369000435,0.8149500489
-0.1249500066,-6.561000347,-1.175999999
0.1429500133,-6.024000168,-1.099050045
0.1810500026,-6.100950241,-1.060950041
5.7739501,-10.31505013,-4.738050461
17.38095093,-14.83500099,-11.86395073
6.5020504,-8.668050766,-7.687950134
2.211000204,-18.43605042,-2.209950209
-0.7380000353,-10.81305027,0.1639500111
-5.028000355,-2.077950001,0.2790000141
-0.7759500146,-4.759950161,3.304950237
5.620950222,-13.91595078,5.221050262
8.68500042,-13.26495075,4.914000034
6.310050488,-5.488050461,-4.354950428
5.467050076,-9.051000595,-4.777050018
2.824050188,-9.472050667,1.543050051
1.407000065,-7.480050564,2.424000025
2.364000082,-8.743950844,2.308950186
2.556000233,-9.051000595,1.467000127
4.855050087,-9.817050934,1.351950049
6.349050522,-10.00800037,-0.7159500122
5.353050232,-10.27695084,-3.28305006
6.310050488,-12.53700066,-2.593050241
8.071949959,-11.425951,-0.4099500179
4.394999981,-11.425951,-3.589050055
5.736000061,-15.98400116,-1.291050076
2.479050159,-14.71995068,6.945000172
6.079950333,-8.170050621,-0.1800000072
4.969050407,-7.978050232,-0.1800000072
2.403000116,-6.982050419,0.7390500307
1.254000068,-6.982050419,1.312950015
-0.2400000095,-7.059000492,2.233050108
0.06599999964,-5.947950363,1.122000098
-1.006049991,-5.908950329,-0.868950069
-0.6610500216,-6.177000523,-1.980000138
6.76995039,-12.03900051,-2.019000053
15.04500103,-11.38695049,-9.718950272
6.577950478,-4.798050404,-7.267050266
3.054000139,-17.05695152,-1.060950041
2.862000227,-14.6440506,0.9300000668
-4.147050381,-3.036000252,-1.711950064
-2.077950001,-4.759950161,0.2790000141
2.287950039,-10.85100079,4.339950085
7.996050358,-13.80105019,5.182050228
5.736000061,-6.637050152,-2.401950121
4.930950165,-8.398950577,-4.509000301
2.938950062,-9.664050102,0.9690000415
1.024049997,-7.710000515,2.078999996
2.020050049,-8.821050644,2.118000031
3.705000162,-9.54900074,0.8920500278
4.930950165,-9.817050934,-0.0270000007
5.544000149,-10.20000076,-0.0270000007
6.157050133,-10.08495045,-1.252050042
5.391000271,-10.77495098,-2.670000076
8.341050148,-11.1960001,-0.7540500164
4.816050053,-10.73595047,-1.980000138
3.973050117,-15.25695038,-3.474000216
1.177050114,-15.71595097,4.110000134
3.781950235,-9.166050911,4.83795023
8.647050858,-7.825050354,-1.444050074
3.744000196,-7.21200037,0.4320000112
0.9469500184,-6.484050274,0.5850000381
0.1429500133,-6.982050419,0.700050056
0.3340500295,-6.253950119,0.700050056
-0.1249500066,-6.445950508,-1.023000002
-0.6229500175,-5.794050217,-0.9840000272
1.444950104,-8.016000748,-2.325000048
18.8370018,-15.94605064,-7.036950111
11.13705063,-7.249950409,-12.63000107
3.322050095,-10.16205025,-5.044950008
5.736000061,-21.50100136,1.696050048
-3.112950087,-6.331050396,-0.1030500084
-2.806050062,-3.151050091,-1.63500011
0.6409500241,-8.13105011,5.02905035
7.306050301,-15.37200069,6.753000259
7.267950535,-10.00800037,0.6619500518
7.383000374,-6.675000191,-7.2289505
4.585950375,-9.510000229,-2.401950121
1.597950101,-8.13105011,2.233050108
2.134950161,-7.900950432,3.037050247
2.709000111,-8.629050255,2.961000204
3.436950207,-10.04700089,1.237050056
4.050000191,-10.46805096,1.083000064
6.234000206,-10.31505013,-1.060950041
5.544000149,-9.892950058,-2.517000198
8.416950226,-12.99600029,-0.1800000072
6.310050488,-10.88895035,-2.056950092
3.552000284,-12.61305046,-2.823000193
3.475050211,-15.06495094,-0.1030500084
0.06599999964,-12.80505085,5.604000092
6.808050156,-8.245950699,-1.750050068
4.548000336,-7.78605032,-0.2560500205
1.789950132,-7.059000492,-0.06495000422
0.756000042,-7.288050175,1.351950049
0.2959500253,-6.943950176,1.351950049
0.9850500226,-5.679000378,0.241050005
-0.2779500186,-5.449950218,-0.6390000582
-0.2400000095,-6.561000347,-2.707950115
9.490050316,-12.95805073,-5.275050163
11.98005104,-9.280050278,-9.526950836
4.203000069,-9.586950302,-5.811000347
2.785950184,-17.28705025,1.237050056
-3.496050119,-8.476050377,-0.0270000007
-2.691000223,-3.763950109,-2.401950121
0.2959500253,-6.331050396,5.64195013
8.263950348,-13.22595024,7.71105051
9.528000832,-10.69800091,2.118000031
0.4489500225,-8.208000183,-5.275050163
2.862000227,-9.970050812,-1.213950038
2.25,-7.978050232,3.459000111
2.709000111,-8.092950821,2.577000141
3.207000256,-8.821050644,1.849950075
2.748000145,-8.935950279,0.8539500237
3.0160501,-10.85100079,0.8920500278
4.357050419,-10.20000076,-0.1800000072
7.345050335,-9.931950569,-0.9079500437
5.083950043,-10.31505013,-0.9079500437
8.532000542,-12.34500027,-0.83100003
3.667050123,-11.31105042,-3.703950167
2.671050072,-14.03100109,-2.670000076
2.901000023,-13.53300095,4.263000011
3.091950178,-10.77495098,5.37405014
6.234000206,-9.433950424,-3.052950144
2.632950068,-8.935950279,-0.2179500163
1.752000093,-7.518000126,0.8920500278
0.4870500267,-6.024000168,1.657950044
0.756000042,-6.139050484,0.2790000141
0.2959500253,-5.908950329,-0.7159500122
1.866000056,-6.331050396,-1.521000028
5.199000359,-8.055000305,-3.589050055
8.11095047,-9.855000496,-6.232950211
10.17900085,-8.476050377,-9.679950714
7.230000496,-7.174050331,-7.2289505
-0.7380000353,-11.54100037,-2.899950027
8.226000786,-29.27805138,-0.06495000422
-3.496050119,-2.61495018,-0.868950069
-3.802050114,0.02805000171,3.229050159
1.597950101,-4.951950073,4.186050415
15.08295059,-20.35200119,4.186050415
5.697000504,-7.594950199,-2.401950121
4.012050152,-6.253950119,-3.130050182
3.589950085,-9.586950302,1.428000093
2.977050066,-8.398950577,1.351950049
1.636950135,-8.055000305,1.390050054
1.597950101,-8.668050766,1.543050051
1.636950135,-8.361000061,2.34795022
3.091950178,-10.12305069,1.312950015
4.816050053,-11.61705017,1.275000095
6.961950302,-11.50200081,-1.444050074
6.5020504,-10.85100079,-4.509000301
8.569950104,-10.88895035,-4.54695034
8.992050171,-9.394950867,0.8539500237
5.467050076,-17.13405037,0.6619500518
2.632950068,-25.06395149,1.543050051
7.306050301,-13.26495075,4.645950317
7.68900013,-7.594950199,-4.815000057
1.368000031,-8.974050522,0.6619500518
-1.236000061,-5.373000145,4.57005024
-3.687000275,-5.565000057,-1.942050099
-1.579950094,-6.369000435,-1.827000141
3.091950178,-4.875,-0.868950069
3.207000256,-1.389000058,-0.7930500507
3.436950207,-1.657050133,-4.777050018
4.740000248,-3.112950087,-5.62005043
6.234000206,-7.78605032,-7.114050388
11.98005104,-22.07595062,-14.50695038
3.475050211,-11.9239502,-16.42304993
-8.896950722,3.436950207,-1.558950067
-1.236000061,-3.649050236,-0.6390000582
15.65805054,-21.00300026,-0.7159500122
4.701000214,-4.300050259,-3.589050055
1.713000059,-5.028000355,-0.3330000043
1.866000056,-11.00400066,-1.444050074
2.173050165,-11.54100037,0.4699500203
2.479050159,-7.633050442,0.2790000141
4.242000103,-7.672050476,1.390050054
5.812050343,-8.782050133,0.508949995
5.353050232,-8.668050766,-0.6010500193
3.436950207,-7.594950199,-0.6010500193
2.095950127,-7.365000248,1.045050025
3.0160501,-8.437950134,1.735050082
2.938950062,-8.859000206,-0.9840000272
5.544000149,-10.54500008,-1.63500011
6.234000206,-10.23795033,-1.63500011
9.337050438,-11.65605068,-3.703950167
9.796050072,-12.76695061,-4.777050018
5.812050343,-18.74295044,-2.707950115
1.444950104,-22.2289505,2.500950098
4.893000126,-8.629050255,6.600000381
5.353050232,-6.561000347,-1.597050071
1.062000036,-7.365000248,1.620000124
-2.0400002,-4.951950073,4.225049973
-2.346000195,-4.300050259,3.190050125
-2.538000107,-5.5260005,2.002950191
-2.232000113,-5.833050251,-1.521000028
8.992050171,-15.21795082,-5.88795042
12.78405094,-14.98800087,-14.54505062
6.5020504,-3.994050264,-4.930050373
9.567000389,-22.95705032,-1.482000113
0.7170000076,-8.323050499,-1.291050076
-7.020000458,-1.695000052,2.653950214
-3.036000252,-5.373000145,1.965000153
4.050000191,-14.52900028,4.83795023
8.532000542,-11.80905056,0.5850000381
6.195000172,-6.829050541,-3.51300025
4.242000103,-8.743950844,1.58100009
3.361050129,-7.672050476,2.92200017
3.207000256,-8.398950577,0.126000002
3.246000051,-8.437950134,1.006950021
2.862000227,-8.935950279,1.849950075
3.781950235,-10.50600052,0.9690000415
6.157050133,-10.62105083,-1.405950069
6.577950478,-10.16205025,-2.287050009
7.230000496,-11.84700012,-1.060950041
8.263950348,-11.88495064,-0.7930500507
3.475050211,-11.61705017,-3.895950079
4.242000103,-15.18000031,-1.597050071
1.981050134,-15.14205074,6.484950542
5.581950188,-7.78605032,0.2790000141
6.118950367,-8.055000305,-0.9840000272
1.866000056,-8.055000305,0.508949995
0.2190000117,-7.402950287,1.467000127
-0.201000005,-6.253950119,1.543050051
0.5640000105,-5.181000233,0.77700001
-0.3160500228,-5.602950096,-0.6390000582
-1.236000061,-6.445950508,-3.20595026
15.69600105,-17.59305,-6.156000137
11.2140007,-11.34900093,-14.46900082
3.091950178,-1.734000087,-5.197950363
3.054000139,-14.06895065,-2.823000193
10.14105034,-16.02300072,-2.133000135
-3.496050119,-3.381000042,2.118000031
-3.228000164,-4.18500042,2.271000147
1.866000056,-12.07695103,2.806950092
8.263950348,-12.3070507,1.159950018
6.042000294,-7.059000492,-2.746050119
4.43295002,-8.13105011,0.4699500203
3.705000162,-8.398950577,1.965000153
2.25,-8.245950699,1.198050022
2.671050072,-8.782050133,0.241050005
2.938950062,-9.051000595,0.4320000112
3.589950085,-10.35300064,1.237050056
6.234000206,-10.3909502,-1.137000084
7.038000107,-10.00800037,-2.593050241
7.191000462,-11.57895088,-2.478000164
8.647050858,-11.34900093,0.508949995
4.126950264,-10.62105083,-2.478000164
3.054000139,-14.33700085,-4.126049995
1.752000093,-15.98400116,1.543050051
1.330050111,-10.69800091,6.139950275
7.075950146,-8.055000305,-2.554950237
3.897000074,-7.78605032,-0.4860000312
1.138950109,-6.445950508,1.122000098
0.2959500253,-5.986050129,1.159950018
-0.08595000207,-5.449950218,0.508949995
0.02805000171,-5.641050339,-0.2179500163
-0.7759500146,-5.565000057,-1.903950095
4.893000126,-11.65605068,-4.777050018
15.23595047,-16.32900047,-12.93705082
6.84705019,-4.912950039,-7.036950111
1.483050108,-15.10305119,-1.674000025
5.467050076,-13.37895107,-1.060950041
-3.994050264,-3.418950081,2.463000059
-1.006049991,-5.947950363,4.072050095
2.287950039,-10.92795086,4.225049973
8.877000809,-12.99600029,3.382050276
7.306050301,-7.518000126,-4.968000412
4.548000336,-8.284049988,-0.7540500164
3.246000051,-8.513999939,2.233050108
1.713000059,-8.513999939,0.6240000129
3.169050217,-9.088950157,-0.868950069
3.054000139,-8.668050766,0.8149500489
4.050000191,-9.472050667,1.620000124
5.314050198,-9.586950302,1.543050051
6.577950478,-10.42995071,-1.252050042
3.973050117,-10.77495098,-2.325000048
7.267950535,-11.9239502,-0.2560500205
6.349050522,-10.50600052,-0.1800000072
2.977050066,-11.9239502,-4.470000267
0.9850500226,-16.32900047,-2.362950087
-0.5080500245,-11.61705017,5.872050285
7.383000374,-8.821050644,-4.011000156
6.424950123,-8.821050644,-0.6010500193
1.828050137,-7.174050331,-0.4099500179
0.5260500312,-6.751950264,0.241050005
0.4870500267,-5.986050129,1.275000095
0.6790500283,-5.181000233,0.6619500518
-0.01005000062,-5.5260005,-0.6390000582
1.67505002,-8.016000748,-3.358950138
15.50400066,-16.7119503,-9.028950691
10.06500053,-8.821050644,-11.97900105
3.361050129,-7.059000492,-5.160000324
5.50605011,-19.54695129,-0.4099500179
1.215000033,-7.747950554,0.4699500203
-5.986050129,-1.236000061,2.463000059
-0.08595000207,-8.55300045,4.110000134
6.042000294,-14.95005035,5.604000092
8.226000786,-9.433950424,-1.023000002
4.624950409,-8.896950722,-7.114050388
4.43295002,-9.166050911,2.539050102
3.091950178,-6.751950264,3.420000076
3.361050129,-8.706000328,0.2020500153
3.361050129,-8.896950722,-0.6390000582
2.593950033,-9.394950867,0.5850000381
3.436950207,-10.20000076,2.041050196
6.808050156,-10.00800037,0.241050005
7.573950291,-9.778050423,-3.474000216
8.992050171,-12.38295078,-0.6010500193
7.038000107,-12.26895046,-0.2560500205
1.062000036,-11.84700012,-3.436050177
1.444950104,-16.44404984,-3.397950172
-1.81005013,-15.48600101,6.064050198
4.855050087,-8.55300045,-0.5629500151
6.732000351,-7.518000126,-1.942050099
0.9850500226,-6.139050484,1.275000095
-0.2779500186,-6.714000225,1.275000095
0.4870500267,-6.369000435,0.5850000381
0.7170000076,-5.067000389,-0.295050025
0.3340500295,-5.373000145,-0.3330000043
0.9090000391,-5.679000378,-2.287050009
14.73795033,-15.02700043,-6.883950233
12.63105106,-11.46405029,-15.42705059
1.062000036,-10.73595047,-6.424050331
4.585950375,-20.08395004,0.9300000668
-3.916950226,-5.104950428,-2.976000071
-4.108950138,-1.963950038,1.735050082
1.177050114,-7.978050232,6.408000469
9.604950905,-16.06095123,6.447000504
8.302050591,-8.859000206,-2.785050154
5.275950432,-8.437950134,-5.46600008
3.744000196,-8.782050133,1.620000124
0.756000042,-7.096950531,2.998950243
2.287950039,-9.204000473,1.122000098
2.938950062,-9.73995018,0.241050005
2.977050066,-10.31505013,0.1639500111
4.816050053,-10.08495045,0.126000002
8.494050026,-9.817050934,0.126000002
5.16105032,-9.970050812,-2.593050241
8.263950348,-12.38295078,-1.060950041
6.349050522,-10.08495045,-1.099050045
4.126950264,-14.1070509,-1.942050099
3.859050274,-17.13405037,2.34795022
-1.771950126,-12.00000095,6.600000381
5.046000004,-8.245950699,-3.51300025
6.157050133,-7.863000393,0.3940500319
1.522050023,-6.177000523,0.508949995
0.1810500026,-6.751950264,2.002950191
-0.01005000062,-5.488050461,1.006950021
0.1429500133,-5.181000233,0.2020500153
-0.7380000353,-5.718000412,-1.444050074
3.322050095,-9.931950569,-4.201950073
21.13605118,-15.79305077,-15.08205032
7.651050568,-4.875,-8.914050102
0.06599999964,-13.22595024,-1.099050045
4.471050262,-21.11805153,1.467000127
-4.53000021,-4.339050293,-1.558950067
-1.81005013,-4.414950371,-2.707950115
2.25,-8.590950012,6.447000504
9.067950249,-12.65205097,6.484950542
5.275950432,-6.177000523,-2.976000071
3.628950119,-7.825050354,-3.589050055
2.632950068,-9.433950424,1.198050022
1.828050137,-7.55700016,2.386050224
2.058000088,-8.476050377,2.386050224
3.0160501,-10.27695084,0.700050056
4.701000214,-9.970050812,-1.482000113
6.349050522,-10.31505013,-0.3330000043
6.310050488,-10.58295059,-0.2560500205
7.000050545,-12.49800014,-1.558950067
7.651050568,-11.15805054,-0.6780000329
3.705000162,-10.16205025,-2.593050241
3.781950235,-14.22195053,-2.670000076
2.173050165,-15.02700043,3.802950144
2.173050165,-10.23795033,7.366050243
7.957950592,-8.590950012,-3.742050171
2.326050043,-7.710000515,-0.3709500134
0.06599999964,-7.059000492,1.198050022
0.1429500133,-5.679000378,1.275000095
0.02805000171,-4.645050049,1.275000095
-0.4309500158,-4.875,0.241050005
-0.6610500216,-6.024000168,-1.903950095
11.9419508,-14.79705048,-5.044950008
14.47005081,-12.2299509,-11.4810009
5.851050377,-4.147050381,-7.2289505
2.211000204,-17.67000008,0.508949995
-2.232000113,-12.00000095,2.998950243
-4.069950104,-3.18900013,-3.55095005
-0.1630500108,-5.679000378,2.155950069
5.697000504,-12.69000053,6.408000469
9.528000832,-10.81305027,4.378050327
5.7739501,-6.790050507,-1.63500011
4.816050053,-8.668050766,-4.126049995
2.709000111,-9.1270504,-0.6780000329
1.215000033,-8.629050255,1.849950075
1.291950107,-9.166050911,2.653950214
3.628950119,-10.42995071,1.351950049
5.851050377,-10.27695084,0.5470499992
7.881000519,-10.35300064,-1.291050076
6.118950367,-10.81305027,-2.248050213
8.647050858,-12.03900051,-0.1030500084
4.43295002,-10.16205025,-2.133000135
3.475050211,-14.06895065,-3.819000244
1.94295013,-14.45205116,3.037050247
3.130950212,-10.23795033,3.765000105
7.459950447,-9.280050278,-2.554950237
3.28395009,-7.710000515,0.3940500319
0.5260500312,-6.445950508,1.312950015
-0.1630500108,-5.833050251,1.275000095
-0.2779500186,-4.569000244,1.237050056
-0.1249500066,-5.143050194,0.126000002
0.02805000171,-5.87100029,-1.366950035
15.81105042,-15.10305119,-5.428050041
13.35900021,-11.425951,-13.93305111
5.008050442,-4.683000088,-6.577050209
0.4110000134,-16.09905052,-1.023000002
0.7939500213,-11.46405029,-1.023000002
-4.837050438,-4.147050381,1.198050022
0.756000042,-7.174050331,5.29695034
5.083950043,-11.73195076,5.719050407
9.29805088,-11.34900093,1.735050082
3.207000256,-8.092950821,-3.628050089
1.789950132,-8.743950844,2.424000025
2.364000082,-8.245950699,2.500950098
2.556000233,-8.361000061,-0.2179500163
3.859050274,-9.1270504,-0.2179500163
3.130950212,-9.970050812,1.159950018
4.126950264,-10.73595047,1.237050056
6.424950123,-10.69800091,-2.095050097
4.777950287,-10.50600052,-2.746050119
9.29805088,-12.11505032,-0.2560500205
4.16505003,-11.1960001,-3.244050264
1.94295013,-13.37895107,-4.699950218
2.556000233,-14.71995068,1.773000121
1.254000068,-12.95805073,4.914000034
9.528000832,-8.245950699,-3.628050089
2.556000233,-7.78605032,0.3559500277
3.091950178,-7.020000458,-0.5629500151
-0.08595000207,-6.637050152,3.114000082
-1.465050101,-5.488050461,1.312950015
-1.006049991,-5.257950306,0.5470499992
-0.46905002,-4.951950073,-0.7540500164
13.74195099,-14.22195053,-7.114050388
13.20600033,-14.87400055,-15.69495106
4.663050175,-4.300050259,-6.501000404
-1.2739501,-10.46805096,-0.4860000312
3.246000051,-17.32500076,1.965000153
-2.155050039,-6.867000103,0.6240000129
1.828050137,-7.059000492,5.757000446
6.655050278,-9.855000496,4.761000156
11.82705021,-10.42995071,-0.3709500134
1.597950101,-7.441950321,-5.734050274
1.828050137,-8.476050377,2.34795022
4.510050297,-8.706000328,2.92200017
3.169050217,-8.208000183,0.2020500153
2.632950068,-9.357000351,0.126000002
1.828050137,-10.23795033,0.241050005
5.122950077,-10.3909502,0.3169500232
8.608950615,-9.280050278,-0.7930500507
5.926950455,-10.58295059,-1.827000141
8.071949959,-12.15405083,-0.5250000358
4.855050087,-11.27295017,-1.674000025
2.671050072,-13.57095051,-3.28305006
3.436950207,-15.75495052,1.657950044
-0.1249500066,-14.75895023,4.30095005
6.271950245,-7.441950321,-1.674000025
3.475050211,-6.561000347,0.3169500232
1.597950101,-6.139050484,1.58100009
-0.01005000062,-6.484050274,1.735050082
-1.924950123,-6.100950241,1.849950075
-1.312050104,-5.296050072,-0.3709500134
-0.7380000353,-5.335050106,-1.175999999
13.81905079,-14.49000072,-6.040950298
12.70800018,-14.18400097,-15.27300072
3.628950119,-5.181000233,-5.811000347
-0.2400000095,-16.25295067,-1.366950035
1.866000056,-9.664050102,1.467000127
-2.0400002,-5.565000057,3.114000082
2.173050165,-7.939950466,5.986950397
6.655050278,-11.15805054,3.573000193
7.267950535,-10.23795033,-3.015000105
3.897000074,-7.863000393,-4.852950096
3.246000051,-8.668050766,2.041050196
3.28395009,-7.900950432,3.459000111
2.938950062,-8.513999939,0.04905000329
2.938950062,-8.743950844,-0.868950069
2.364000082,-9.625050545,1.198050022
3.934950113,-10.96605015,2.041050196
6.616950512,-10.23795033,-0.9079500437
6.157050133,-10.58295059,-3.51300025
7.038000107,-12.42195034,-0.9460500479
7.804050446,-10.85100079,-0.6390000582
3.514050245,-13.53300095,-2.823000193
3.436950207,-15.56295109,0.3559500277
-1.081950068,-11.61705017,4.83795023
5.275950432,-8.323050499,-1.558950067
5.50605011,-8.092950821,-0.2560500205
2.556000233,-6.943950176,1.198050022
0.2190000117,-6.675000191,1.351950049
-0.2400000095,-5.87100029,1.504950047
0.1429500133,-5.143050194,1.467000127
-0.7759500146,-4.722000122,0.241050005
6.84705019,-11.80905056,-4.815000057
13.43595028,-17.05695152,-12.93705082
5.467050076,-5.143050194,-6.844950199
-0.1249500066,-9.472050667,-2.631000042
6.84705019,-17.44005013,-0.0270000007
-2.155050039,-7.249950409,0.1639500111
-1.350000024,-5.755950451,3.075000048
2.058000088,-8.668050766,4.761000156
11.86500072,-11.73195076,2.653950214
4.279950142,-7.863000393,-6.040950298
1.407000065,-8.208000183,-0.868950069
2.593950033,-8.935950279,2.884050131
2.709000111,-8.398950577,0.3169500232
3.744000196,-8.668050766,-1.405950069
2.938950062,-9.088950157,1.159950018
3.054000139,-10.16205025,1.926000118
5.238000393,-10.3909502,0.3940500319
7.804050446,-10.23795033,-2.823000193
6.310050488,-11.1960001,-2.823000193
8.455950737,-11.27295017,-0.9079500437
4.43295002,-10.35300064,-1.789050102
3.705000162,-14.68200111,-3.015000105
1.828050137,-16.29104996,6.790950298
3.091950178,-10.08495045,2.616000175
7.612950325,-8.476050377,-1.405950069
3.0160501,-6.904950142,0.700050056
0.4110000134,-6.024000168,1.390050054
-0.5839500427,-5.679000378,1.620000124
-0.6610500216,-4.606950283,0.700050056
-0.2400000095,-5.028000355,-0.3709500134
1.177050114,-7.441950321,-1.405950069
19.75695038,-20.77305031,-12.43905067
10.29405022,-8.55300045,-12.59205055
2.364000082,-9.051000595,-4.852950096
8.11095047,-18.51300049,-1.482000113
-4.837050438,-3.343050241,1.543050051
-4.875,-4.300050259,1.58100009
1.254000068,-10.88895035,5.451000214
7.459950447,-14.1070509,4.186050415
11.67300034,-7.900950432,-3.703950167
3.859050274,-8.361000061,-5.122050285
3.207000256,-8.284049988,3.957000256
2.095950127,-8.629050255,2.271000147
2.326050043,-8.743950844,-0.6780000329
2.25,-8.896950722,1.083000064
3.82005024,-10.16205025,2.041050196
6.042000294,-9.970050812,2.002950191
7.345050335,-10.27695084,-3.130050182
5.314050198,-11.31105042,-3.819000244
8.914950371,-11.9239502,-0.5629500151
5.238000393,-10.81305027,-2.056950092
3.667050123,-15.25695038,-3.628050089
1.291950107,-15.64005089,4.225049973
2.556000233,-8.896950722,0.8920500278
6.655050278,-8.476050377,-1.213950038
3.514050245,-7.594950199,0.08700000495
0.3720000088,-6.522000313,1.045050025
-0.9670500755,-5.794050217,1.122000098
-0.2779500186,-4.606950283,1.122000098
-0.01005000062,-4.912950039,-0.1410000026
1.062000036,-5.679000378,-1.482000113
14.62305069,-17.97705078,-7.342950344
11.02200031,-10.54500008,-13.66395092
3.781950235,-3.036000252,-4.89195013
1.67505002,-17.32500076,-2.133000135
4.893000126,-12.91995049,-1.63500011
-5.335050106,-3.381000042,1.351950049
-0.8140500188,-5.641050339,4.110000134
3.207000256,-11.23395061,4.761000156
8.914950371,-12.76695061,3.075000048
6.732000351,-7.059000492,-2.785050154
2.748000145,-8.743950844,1.390050054
2.403000116,-8.284049988,2.961000204
1.560000062,-8.13105011,-0.3330000043
3.705000162,-9.012000084,-0.3330000043
3.054000139,-9.280050278,1.275000095
3.973050117,-10.42995071,1.275000095
6.349050522,-10.23795033,-0.9840000272
6.349050522,-10.3909502,-2.631000042
8.68500042,-12.80505085,-1.137000084
6.5020504,-10.42995071,-1.980000138
4.394999981,-13.34100056,-3.168000221
4.893000126,-16.25295067,1.810950041
-0.46905002,-13.72395039,5.068050385
4.624950409,-8.476050377,-2.056950092
4.930950165,-7.939950466,0.7390500307
2.058000088,-6.637050152,0.8539500237
-0.1630500108,-6.637050152,1.657950044
-0.9670500755,-5.143050194,1.657950044
-0.1249500066,-4.645050049,0.3940500319
0.2580000162,-4.798050404,-0.9460500479
6.922950268,-11.15805054,-6.040950298
14.58495045,-17.28705025,-12.24705029
6.118950367,-4.645050049,-7.918050289
0.06599999964,-11.00400066,-3.28305006
8.532000542,-18.66600037,-0.9460500479
-3.342000246,-5.143050194,1.198050022
-1.197000027,-5.220000267,3.037050247
2.901000023,-10.69800091,4.57005024
15.65805054,-11.9239502,2.884050131
1.713000059,-7.174050331,-6.960000515
2.173050165,-8.361000061,-1.789050102
3.552000284,-8.859000206,2.500950098
2.709000111,-7.672050476,0.5470499992
3.897000074,-8.782050133,0.508949995
3.207000256,-8.859000206,1.390050054
3.628950119,-10.12305069,1.428000093
7.573950291,-10.66005039,-3.20595026
7.420950413,-10.62105083,-3.856950283
9.10695076,-13.53300095,-1.060950041
6.84705019,-11.11905098,-2.899950027
3.28395009,-13.18800068,-3.628050089
3.667050123,-15.75495052,0.8920500278
-0.04800000042,-13.7629509,6.408000469
5.659050465,-8.361000061,-2.095050097
3.475050211,-7.480050564,0.8149500489
0.9090000391,-7.135050297,0.9300000668
-0.5080500245,-6.177000523,1.083000064
-0.46905002,-4.645050049,1.159950018
0.3340500295,-4.53000021,1.237050056
0.2190000117,-5.143050194,-0.1030500084
3.973050117,-11.31105042,-3.972000122
17.11305046,-19.16400146,-15.34995079
5.96505022,-4.261950016,-9.028950691
-1.312050104,-14.79705048,0.2790000141
7.075950146,-15.06495094,0.4320000112
-5.104950428,-3.418950081,-0.0270000007
-1.579950094,-4.990050316,4.416000366
3.207000256,-11.80905056,3.841950178
8.263950348,-12.3070507,2.308950186
5.659050465,-7.059000492,-2.248050213
4.893000126,-7.747950554,0.126000002
2.479050159,-8.437950134,1.083000064
1.636950135,-8.208000183,-0.4860000312
3.361050129,-8.974050522,0.241050005
3.169050217,-10.46805096,1.428000093
5.046000004,-10.12305069,0.6240000129
8.341050148,-10.04700089,-1.444050074
6.540000439,-10.85100079,-2.17200017
9.10695076,-12.26895046,-1.291050076
4.548000336,-10.77495098,-2.517000198
3.322050095,-15.48600101,-3.895950079
2.671050072,-16.98105049,5.910000324
4.548000336,-8.245950699,2.34795022
6.195000172,-8.016000748,-2.287050009
1.752000093,-7.594950199,1.159950018
-0.1630500108,-7.365000248,1.58100009
-1.579950094,-6.139050484,1.58100009
-0.9670500755,-4.951950073,1.543050051
0.3340500295,-5.181000233,0.4699500203
2.020050049,-6.21600008,-1.674000025
17.26695061,-18.81900024,-9.144000053
11.9419508,-9.970050812,-14.20095062
3.744000196,-2.806050062,-5.88795042
0.3340500295,-15.18000031,-1.291050076
5.16105032,-13.41795063,-0.5250000358
-4.759950161,-4.18500042,0.700050056
0.1810500026,-6.867000103,3.114000082
3.667050123,-10.77495098,4.876049995
12.43995094,-9.204000473,2.653950214
2.824050188,-7.402950287,-5.044950008
2.440950155,-8.706000328,1.159950018
3.28395009,-8.476050377,2.271000147
2.862000227,-8.208000183,-0.1030500084
3.091950178,-9.319050789,-0.0270000007
3.054000139,-9.970050812,0.700050056
3.667050123,-10.23795033,0.700050056
7.230000496,-10.58295059,-0.4099500179
6.079950333,-10.62105083,-1.942050099
9.29805088,-12.57495022,-1.521000028
5.889000416,-10.81305027,-1.558950067
2.785950184,-14.60505104,-2.593050241
3.169050217,-15.71595097,3.267000198
0.3340500295,-10.54500008,6.523050308
7.345050335,-8.284049988,-1.137000084
4.585950375,-8.092950821,-0.1030500084
1.254000068,-7.059000492,1.312950015
-0.46905002,-5.87100029,1.198050022
-0.6610500216,-4.837050438,1.159950018
-0.01005000062,-5.488050461,-0.295050025
0.6409500241,-5.755950451,-1.366950035
6.922950268,-11.69400024,-5.428050041
15.65805054,-15.14205074,-12.78300095
6.808050156,-4.300050259,-8.608050346
-0.1630500108,-14.1070509,-1.291050076
6.961950302,-16.86600113,1.58100009
-7.020000458,-2.883000135,0.77700001
-2.116950035,-5.449950218,3.649950266
3.130950212,-12.34500027,4.990950108
11.09895039,-12.07695103,3.420000076
5.889000416,-7.55700016,-3.781050205
5.467050076,-8.245950699,-0.3330000043
3.897000074,-7.978050232,2.118000031
1.67505002,-8.743950844,0.4320000112
2.403000116,-8.743950844,-0.6780000329
3.475050211,-9.73995018,0.9690000415
5.812050343,-10.58295059,1.083000064
6.540000439,-10.42995071,-0.6010500193
4.585950375,-10.58295059,-2.707950115
9.183000565,-13.15005016,-0.5250000358
5.353050232,-9.357000351,-2.401950121
5.083950043,-13.53300095,-2.478000164
5.046000004,-16.25295067,3.420000076
0.4110000134,-12.53700066,6.906000137
5.16105032,-8.782050133,-1.980000138
3.091950178,-7.21200037,0.9300000668
1.407000065,-6.406950474,1.045050025
-0.4309500158,-6.331050396,1.926000118
-1.081950068,-4.875,1.965000153
-0.01005000062,-5.257950306,-0.5250000358
0.756000042,-5.908950329,-0.6390000582
5.353050232,-12.2299509,-5.160000324
14.01000023,-11.54100037,-10.33200073
4.318050385,-5.373000145,-6.654000282
5.238000393,-21.07995033,-1.405950069
-1.197000027,-8.629050255,1.275000095
-6.44505024,-2.0400002,2.424000025
-1.579950094,-5.794050217,4.072050095
3.705000162,-13.68600082,5.412000179
9.222000122,-12.3070507,2.386050224
5.544000149,-7.594950199,-4.087049961
4.855050087,-8.092950821,0.77700001
3.628950119,-7.939950466,2.500950098
2.364000082,-9.012000084,-0.7930500507
2.824050188,-8.935950279,-0.7540500164
2.479050159,-9.778050423,0.9300000668
4.663050175,-10.31505013,1.006950021
6.885000229,-10.23795033,-0.4860000312
5.008050442,-10.58295059,-2.554950237
8.149050713,-12.99600029,-0.6010500193
4.663050175,-9.319050789,-2.707950115
5.083950043,-14.3760004,-3.703950167
5.16105032,-16.94205093,4.531050205
1.828050137,-10.50600052,7.825950146
5.008050442,-8.590950012,-5.197950363
3.322050095,-7.825050354,1.006950021
1.483050108,-7.020000458,1.735050082
-0.3540000021,-6.790050507,1.810950041
-1.312050104,-5.679000378,1.735050082
0.1810500026,-5.5260005,0.3169500232
1.024049997,-6.139050484,-0.7930500507
6.118950367,-12.03900051,-5.658000469
16.19400024,-14.5669508,-12.09405041
7.498050213,-4.032000065,-8.646000862
0.6409500241,-15.25695038,-2.401950121
7.306050301,-17.01900101,1.159950018
-6.44505024,-3.073950052,0.3559500277
-3.610950232,-3.763950109,2.998950243
2.824050188,-12.38295078,5.680050373
9.030000687,-12.88095093,2.884050131
6.84705019,-7.633050442,-3.742050171
5.42895031,-8.13105011,-0.295050025
4.126950264,-7.633050442,2.118000031
2.020050049,-8.361000061,1.735050082
2.440950155,-9.357000351,0.5470499992
2.095950127,-9.088950157,0.4699500203
3.246000051,-10.3909502,0.5470499992
6.5020504,-10.27695084,0.126000002
6.310050488,-10.54500008,-2.209950209
5.889000416,-12.03900051,-2.976000071
6.84705019,-11.80905056,-0.6010500193
3.399000168,-9.778050423,-2.095050097
4.08795023,-14.60505104,-2.976000071
3.82005024,-16.75094986,5.259000301
4.203000069,-9.625050545,2.961000204
5.275950432,-8.629050255,-1.942050099
2.25,-6.982050419,0.4320000112
0.6409500241,-5.602950096,0.6240000129
0.1039500013,-5.833050251,0.9300000668
0.06599999964,-5.296050072,0.9300000668
0.1810500026,-5.335050106,0.08700000495
0.9850500226,-5.986050129,-1.750050068
8.914950371,-13.49400043,-6.46200037
14.96805096,-13.7629509,-11.1739502
6.271950245,-4.147050381,-7.189950466
2.440950155,-18.0910511,-0.6390000582
1.330050111,-11.69400024,-0.3330000043
-5.755950451,-2.461950064,1.926000118
-1.236000061,-5.257950306,4.147950172
4.126950264,-11.88495064,5.986950397
10.98405075,-12.72795105,1.888050079
5.083950043,-7.55700016,-6.999000549
3.781950235,-8.284049988,0.4699500203
2.440950155,-8.13105011,2.692050219
1.67505002,-8.245950699,1.237050056
3.28395009,-9.012000084,-0.1030500084
3.246000051,-9.472050667,0.241050005
3.552000284,-10.69800091,1.504950047
6.234000206,-10.69800091,-0.2179500163
5.812050343,-10.66005039,-3.28305006
8.263950348,-12.46005058,-1.060950041
8.149050713,-11.04300022,-0.83100003
3.091950178,-12.88095093,-2.478000164
2.748000145,-15.37200069,0.4699500203
-0.9670500755,-12.72795105,6.447000504
5.238000393,-8.590950012,-2.707950115
6.540000439,-9.051000595,-0.5629500151
1.713000059,-6.714000225,0.5470499992
-0.01005000062,-6.177000523,0.700050056
-0.2400000095,-5.335050106,0.8539500237
0.02805000171,-4.875,0.8920500278
-0.5080500245,-5.641050339,-0.4480500221
2.058000088,-10.50600052,-4.201950073
18.22395134,-18.81900024,-15.65595055
7.267950535,-5.067000389,-8.416049957
1.713000059,-14.45205116,-3.052950144
7.459950447,-12.99600029,-1.023000002
-5.335050106,-2.461950064,1.926000118
-3.151050091,-4.912950039,3.037050247
2.593950033,-11.15805054,4.225049973
8.379000664,-12.2299509,3.802950144
4.930950165,-7.135050297,-4.317000389
4.08795023,-8.513999939,-0.6780000329
3.246000051,-8.590950012,2.731050014
1.94295013,-8.170050621,1.159950018
2.25,-9.166050911,0.2790000141
2.518050194,-9.817050934,1.159950018
3.169050217,-10.88895035,0.4320000112
6.5020504,-10.3909502,0.3940500319
7.996050358,-9.778050423,-2.019000053
8.341050148,-12.80505085,-0.7540500164
4.548000336,-11.69400024,-3.28305006
2.25,-10.23795033,-3.895950079
3.28395009,-13.80105019,-0.5629500151
2.709000111,-15.29505062,5.335950375
7.000050545,-10.08495045,-0.0270000007
5.391000271,-8.476050377,-1.366950035
1.752000093,-7.020000458,0.508949995
0.06599999964,-6.177000523,1.428000093
-0.8140500188,-5.755950451,1.543050051
-0.2400000095,-5.296050072,0.2790000141
0.3340500295,-5.181000233,-0.7930500507
2.173050165,-7.594950199,-2.401950121
17.65005112,-17.13405037,-9.526950836
11.98005104,-8.55300045,-12.74505043
3.246000051,-6.369000435,-5.313000202
4.43295002,-19.4320507,0.3559500277
-3.994050264,-5.449950218,-0.06495000422
-5.5260005,-3.763950109,1.926000118
1.062000036,-9.051000595,6.217050076
7.996050358,-14.75895023,4.339950085
8.839050293,-8.859000206,-1.827000141
5.353050232,-6.943950176,-3.436050177
5.083950043,-8.55300045,1.275000095
1.67505002,-8.55300045,0.126000002
0.6409500241,-9.012000084,0.2020500153
2.364000082,-9.510000229,1.543050051
3.589950085,-10.27695084,1.620000124
6.732000351,-9.892950058,0.1639500111
7.651050568,-9.931950569,-3.015000105
7.345050335,-12.69000053,-2.746050119
8.302050591,-11.61705017,-0.2560500205
1.560000062,-12.69000053,-3.436050177
2.632950068,-15.48600101,-3.244050264
1.062000036,-16.63605118,4.761000156
5.391000271,-8.323050499,-4.317000389
5.889000416,-6.714000225,-1.482000113
1.94295013,-5.679000378,0.5850000381
0.4870500267,-5.641050339,1.696050048
-0.2779500186,-6.522000313,1.888050079
-0.9289500713,-5.449950218,0.8920500278
-0.6610500216,-5.143050194,-0.5629500151
2.748000145,-7.672050476,-2.976000071
17.07495117,-18.97305107,-12.89805031
8.839050293,-6.100950241,-7.650000572
1.483050108,-8.706000328,-2.554950237
7.68900013,-18.97305107,-0.6780000329
-3.649050236,-6.675000191,-1.789050102
-4.032000065,-4.837050438,3.229050159
1.597950101,-8.668050766,5.106000423
6.961950302,-13.64805031,3.880050182
7.68900013,-8.706000328,-2.670000076
5.314050198,-7.825050354,-2.707950115
4.930950165,-7.900950432,2.155950069
2.211000204,-8.476050377,1.045050025
1.981050134,-9.051000595,-0.7159500122
2.901000023,-8.668050766,0.01095000096
3.246000051,-10.08495045,1.696050048
5.581950188,-10.27695084,1.773000121
6.349050522,-10.42995071,-2.248050213
5.275950432,-12.46005058,-3.895950079
7.84305048,-11.27295017,-0.83100003
3.514050245,-11.96205044,-4.777050018
4.203000069,-14.29905033,-1.482000113
3.934950113,-17.13405037,7.443000317
5.620950222,-8.629050255,-2.823000193
4.242000103,-7.978050232,-0.868950069
2.173050165,-6.522000313,1.045050025
0.3720000088,-4.875,1.159950018
-0.01005000062,-6.100950241,2.424000025
-0.5460000038,-5.641050339,1.657950044
-1.04400003,-5.488050461,-1.023000002
1.828050137,-7.174050331,-2.746050119
19.60305023,-17.93805122,-11.44200039
12.0180006,-9.586950302,-12.32400036
1.67505002,-10.27695084,-5.313000202
7.918950558,-18.47504997,1.159950018
-4.453050137,-5.104950428,1.006950021
-5.908950329,-3.151050091,2.616000175
2.748000145,-11.61705017,4.110000134
8.569950104,-13.60905075,2.92200017
7.230000496,-7.900950432,-2.440050125
5.50605011,-7.135050297,-0.2179500163
4.08795023,-7.978050232,1.159950018
1.713000059,-8.55300045,0.126000002
2.364000082,-8.668050766,0.04905000329
3.246000051,-9.241950035,0.9300000668
3.897000074,-10.20000076,1.006950021
6.5020504,-9.970050812,0.2790000141
6.5020504,-10.69800091,-3.666000128
7.996050358,-12.72795105,-0.9840000272
7.612950325,-12.11505032,-0.2560500205
1.828050137,-11.84700012,-4.27905035
2.938950062,-14.98800087,-2.631000042
0.6409500241,-16.67400169,4.225049973
4.08795023,-8.743950844,6.868050098
7.267950535,-7.174050331,-3.781050205
2.326050043,-5.602950096,0.8920500278
0.6019500494,-5.373000145,1.773000121
-0.04800000042,-6.637050152,1.810950041
-1.04400003,-5.908950329,0.2790000141
-0.6610500216,-5.602950096,-0.7930500507
2.326050043,-7.55700016,-3.244050264
16.34700012,-17.44005013,-11.4810009
11.63505077,-8.13105011,-11.86395073
4.930950165,-4.339050293,-4.62405014
6.540000439,-22.76505089,-1.980000138
-2.500050068,-6.253950119,-1.099050045
-4.567950249,-2.461950064,3.304950237
0.02805000171,-7.710000515,4.110000134
6.042000294,-15.10305119,5.143950462
7.728000164,-9.472050667,-1.405950069
5.314050198,-7.710000515,-4.509000301
4.471050262,-8.323050499,3.037050247
3.82005024,-7.863000393,3.037050247
2.632950068,-8.935950279,-0.9079500437
2.977050066,-8.896950722,-0.2179500163
2.403000116,-9.664050102,0.8920500278
5.851050377,-10.04700089,0.9690000415
7.84305048,-9.931950569,-1.291050076
4.930950165,-11.27295017,-3.052950144
8.11095047,-12.76695061,-0.2179500163
3.091950178,-11.84700012,-2.362950087
2.824050188,-13.95405102,-5.695950508
3.0160501,-15.60105038,4.953000069
6.118950367,-9.892950058,7.749000549
4.816050053,-7.825050354,-0.9079500437
2.901000023,-7.174050331,0.08700000495
1.177050114,-5.641050339,0.9690000415
0.02805000171,-6.406950474,1.849950075
-0.8140500188,-5.833050251,1.849950075
-0.46905002,-5.410950184,0.126000002
-0.5460000038,-5.373000145,-0.9079500437
12.78405094,-16.06095123,-6.616050243
14.12505054,-13.37895107,-15.34995079
5.122950077,-3.418950081,-5.964000225
-0.46905002,-14.45205116,-2.325000048
3.552000284,-13.45605087,0.2020500153
-4.300050259,-4.606950283,2.233050108
0.06599999964,-6.598950386,4.416000366
4.16505003,-10.62105083,5.949000359
9.183000565,-10.31505013,1.926000118
3.054000139,-7.518000126,-5.773050308
2.709000111,-8.896950722,1.810950041
2.938950062,-7.78605032,3.343950272
3.589950085,-8.13105011,0.5470499992
3.973050117,-9.166050911,-0.9460500479
2.785950184,-8.935950279,-0.1800000072
2.326050043,-10.16205025,0.9300000668
5.42895031,-9.855000496,1.045050025
6.195000172,-10.66005039,-1.903950095
5.50605011,-12.38295078,-1.942050099
8.149050713,-11.04300022,0.01095000096
3.514050245,-10.46805096,-4.011000156
3.514050245,-14.60505104,-3.781050205
2.977050066,-16.29104996,4.531050205
4.624950409,-9.54900074,5.64195013
5.736000061,-7.978050232,-2.401950121
2.977050066,-7.402950287,0.5850000381
1.291950107,-6.292050362,0.700050056
0.2580000162,-6.829050541,1.620000124
-0.46905002,-5.5260005,1.006950021
-0.08595000207,-5.220000267,-0.06495000422
0.4110000134,-5.602950096,-2.517000198
15.69600105,-15.60105038,-8.454000473
12.89895058,-10.3909502,-13.47300053
4.242000103,-7.78605032,-6.577050209
7.881000519,-21.61605072,-1.750050068
-6.100950241,-3.496050119,-1.674000025
-5.563950062,-2.61495018,3.382050276
1.291950107,-10.08495045,4.57005024
8.569950104,-16.1760006,5.335950375
8.494050026,-8.859000206,-7.650000572
3.859050274,-8.055000305,-3.015000105
3.322050095,-7.672050476,2.845950127
2.938950062,-7.441950321,1.735050082
3.361050129,-8.668050766,0.01095000096
3.322050095,-9.012000084,0.01095000096
3.514050245,-9.586950302,0.1639500111
5.238000393,-10.46805096,0.126000002
7.153050423,-10.35300064,-1.405950069
6.577950478,-12.34500027,-1.482000113
7.536000252,-12.03900051,-1.329000115
2.440950155,-11.34900093,-3.856950283
3.552000284,-15.18000031,-3.742050171
2.785950184,-17.09505081,2.616000175
7.075950146,-8.513999939,4.186050415
5.199000359,-7.249950409,-2.631000042
2.977050066,-6.637050152,-1.213950038
1.177050114,-4.990050316,1.467000127
-0.3540000021,-5.755950451,1.504950047
-1.2739501,-5.5260005,0.4320000112
-0.9670500755,-5.335050106,-0.83100003
0.2580000162,-4.990050316,-2.287050009
5.391000271,-7.825050354,-5.122050285
12.7459507,-13.53300095,-11.09805012
6.195000172,-7.249950409,-7.612050533
0.3340500295,-10.88895035,-5.505000114
6.004050255,-26.71095085,-5.122050285
-0.6990000606,-3.726000071,4.914000034
-3.18900013,-1.081950068,6.600000381
5.046000004,-8.13105011,6.562050343
12.24795055,-18.36000061,-5.428050041
2.938950062,-7.710000515,-3.589050055
0.2190000117,-6.024000168,1.006950021
4.510050297,-8.706000328,1.122000098
4.126950264,-8.437950134,0.4320000112
1.752000093,-8.629050255,-1.060950041
2.518050194,-8.668050766,0.126000002
4.624950409,-9.855000496,2.500950098
5.199000359,-10.16205025,1.351950049
6.042000294,-11.27295017,-1.137000084
8.226000786,-12.07695103,-2.746050119
9.949950218,-11.9239502,-1.405950069
3.246000051,-10.12305069,-2.478000164
3.667050123,-16.44404984,-0.7930500507
0.02805000171,-20.23695183,-0.6010500193
4.16505003,-12.38295078,4.723050117
7.191000462,-7.288050175,-3.015000105
2.862000227,-7.55700016,-1.521000028
-0.46905002,-5.908950329,2.308950186
-2.422950029,-3.95595026,1.006950021
-2.232000113,-4.569000244,0.8539500237
-2.002050161,-5.565000057,-0.4099500179
1.866000056,-5.335050106,-2.17200017
9.873000145,-7.480050564,-6.424050331
12.36300087,-11.08095074,-11.67195034
6.577950478,-8.323050499,-10.83000088
0.8320500255,-9.012000084,-6.040950298
-3.228000164,-15.75495052,-8.836950302
7.881000519,-12.46005058,-6.691950321
-3.916950226,0.5640000105,5.833950043
8.11095047,-5.410950184,5.833950043
11.86500072,-14.5669508,-1.252050042
4.126950264,-10.23795033,-1.252050042
-0.3160500228,-7.288050175,-1.023000002
-0.5080500245,-7.594950199,-1.366950035
3.475050211,-9.510000229,1.045050025
4.242000103,-8.476050377,1.083000064
3.628950119,-7.096950531,2.34795022
5.889000416,-8.476050377,2.34795022
5.122950077,-9.778050423,-0.6780000329
4.126950264,-10.31505013,-0.7159500122
7.075950146,-9.778050423,-2.056950092
5.812050343,-10.12305069,-2.133000135
3.28395009,-9.54900074,-3.55095005
6.616950512,-11.15805054,-0.7540500164
7.765950203,-15.83100033,0.3940500319
5.275950432,-23.99100113,1.428000093
7.612950325,-12.07695103,3.802950144
2.403000116,-9.433950424,-4.048950195
0.3720000088,-9.357000351,1.965000153
-1.006049991,-4.339050293,4.531050205
-1.963050127,-1.081950068,2.769000053
-4.032000065,-3.687000275,1.965000153
-3.036000252,-4.53000021,0.6240000129
3.705000162,-6.790050507,-3.28305006
14.58495045,-17.78505135,-14.3539505
10.37100029,-7.288050175,-10.40805054
3.667050123,-9.664050102,-6.730950356
5.391000271,-24.79500198,-2.860950232
-2.500050068,-4.492050171,3.649950266
-7.365000248,-3.496050119,4.378050327
7.84305048,-10.69800091,4.492950439
9.910950661,-12.49800014,-3.28305006
3.973050117,-7.480050564,-0.1410000026
1.789950132,-7.288050175,-0.06495000422
3.667050123,-8.513999939,0.04905000329
4.471050262,-8.245950699,-0.0270000007
4.510050297,-8.398950577,-0.06495000422
